prime_tar_pos,probe_tar_pos,dimension,tar_color,prime_dist_color,probe_dist_color,prime_dist_shape,probe_dist_shape,prime_tar_dot_pos,probe_tar_dot_pos,col_rep,shape_rep,resp_rep,pos_fixed,sparse,MainLoop.thisRepN,MainLoop.thisTrialN,MainLoop.thisN,MainLoop.thisIndex,PrimeProbe.thisRepN,PrimeProbe.thisTrialN,PrimeProbe.thisN,PrimeProbe.thisIndex,Instruction.started,Instruction.stopped,instruction_key.keys,instruction_key.rt,instruction_key.started,instruction_key.stopped,PairStartText.started,PairStartText.stopped,FixCross.started,FixCross.stopped,SearchFixCross.started,SearchFixCross.stopped,key_resp.keys,key_resp.corr,key_resp.rt,key_resp.started,key_resp.stopped,feedback_text.started,feedback_text.stopped,text_finish.started,text_finish.stopped,finish_key.keys,finish_key.rt,finish_key.started,finish_key.stopped,participant,age,gender,group,date,expName,psychopyVersion,frameRate,
,,,,,,,,,,,,,,,,,,,,,,,752.3586216997355,None,space,18.628501400351524,752.3586216997355,None,,,,,,,,,,,,,,,,,,,,10,21,female,10,2022_May_06_1028,Partial repeat,2021.2.3,59.924877880121784,
2,2,0,1,2,3,2,2,0,1,0,1,0,1,0,0,0,0,0,0,0,0,0,,,,,,,771.1079099997878,None,773.3609666004777,None,774.078879499808,None,l,1,1.3959016986191273,774.078879499808,None,None,None,,,,,,,10,21,female,10,2022_May_06_1028,Partial repeat,2021.2.3,59.924877880121784,
2,2,0,1,2,3,2,2,0,1,0,1,0,1,0,0,0,0,0,1,0,1,0,,,,,,,,,775.4989513009787,None,776.2618834003806,None,l,0,0.9568962994962931,776.2618834003806,None,777.2404434997588,None,,,,,,,10,21,female,10,2022_May_06_1028,Partial repeat,2021.2.3,59.924877880121784,
2,2,0,1,2,3,2,2,0,1,0,1,0,1,0,0,0,0,0,,,,,,,,,,,,,,,,,,,,,,,,,,,,,,10,21,female,10,2022_May_06_1028,Partial repeat,2021.2.3,59.924877880121784,
2,2,0,1,2,2,2,2,1,1,1,1,1,1,0,0,1,1,1,0,0,0,0,,,,,,,777.7529739998281,None,779.7735013011843,None,780.53755380027,None,s,1,0.6173131000250578,780.53755380027,None,None,None,,,,,,,10,21,female,10,2022_May_06_1028,Partial repeat,2021.2.3,59.924877880121784,
2,2,0,1,2,2,2,2,1,1,1,1,1,1,0,0,1,1,1,1,0,1,0,,,,,,,,,781.1805898007005,None,782.0901260003448,None,s,1,0.4487245995551348,782.0901260003448,None,None,None,,,,,,,10,21,female,10,2022_May_06_1028,Partial repeat,2021.2.3,59.924877880121784,
2,2,0,1,2,2,2,2,1,1,1,1,1,1,0,0,1,1,1,,,,,,,,,,,,,,,,,,,,,,,,,,,,,,10,21,female,10,2022_May_06_1028,Partial repeat,2021.2.3,59.924877880121784,
2,2,0,1,2,2,1,2,0,0,1,0,1,1,0,0,2,2,2,0,0,0,0,,,,,,,782.5678887013346,None,785.4176426008344,None,786.432072000578,None,l,1,0.8188359998166561,786.432072000578,None,None,None,,,,,,,10,21,female,10,2022_May_06_1028,Partial repeat,2021.2.3,59.924877880121784,
2,2,0,1,2,2,1,2,0,0,1,0,1,1,0,0,2,2,2,1,0,1,0,,,,,,,,,787.2625616006553,None,788.0517710000277,None,l,1,0.5590673014521599,788.0517710000277,None,None,None,,,,,,,10,21,female,10,2022_May_06_1028,Partial repeat,2021.2.3,59.924877880121784,
2,2,0,1,2,2,1,2,0,0,1,0,1,1,0,0,2,2,2,,,,,,,,,,,,,,,,,,,,,,,,,,,,,,10,21,female,10,2022_May_06_1028,Partial repeat,2021.2.3,59.924877880121784,
2,2,0,1,3,2,1,1,1,1,0,1,1,1,0,0,3,3,3,0,0,0,0,,,,,,,788.6372634004802,None,789.5758852995932,None,790.4727758001536,None,s,1,0.7699996009469032,790.4727758001536,None,None,None,,,,,,,10,21,female,10,2022_May_06_1028,Partial repeat,2021.2.3,59.924877880121784,
2,2,0,1,3,2,1,1,1,1,0,1,1,1,0,0,3,3,3,1,0,1,0,,,,,,,,,791.2622616011649,None,792.2264141999185,None,s,1,0.5204109996557236,792.2264141999185,None,None,None,,,,,,,10,21,female,10,2022_May_06_1028,Partial repeat,2021.2.3,59.924877880121784,
2,2,0,1,3,2,1,1,1,1,0,1,1,1,0,0,3,3,3,,,,,,,,,,,,,,,,,,,,,,,,,,,,,,10,21,female,10,2022_May_06_1028,Partial repeat,2021.2.3,59.924877880121784,
2,2,0,1,3,2,2,2,0,1,0,1,0,1,0,0,4,4,4,0,0,0,0,,,,,,,792.7613674998283,None,793.6838936004788,None,794.5308267995715,None,l,1,0.6399489007890224,794.5308267995715,None,None,None,,,,,,,10,21,female,10,2022_May_06_1028,Partial repeat,2021.2.3,59.924877880121784,
2,2,0,1,3,2,2,2,0,1,0,1,0,1,0,0,4,4,4,1,0,1,0,,,,,,,,,795.1880302000791,None,796.018320299685,None,s,1,0.7364325001835823,796.018320299685,None,None,None,,,,,,,10,21,female,10,2022_May_06_1028,Partial repeat,2021.2.3,59.924877880121784,
2,2,0,1,3,2,2,2,0,1,0,1,0,1,0,0,4,4,4,,,,,,,,,,,,,,,,,,,,,,,,,,,,,,10,21,female,10,2022_May_06_1028,Partial repeat,2021.2.3,59.924877880121784,
2,2,0,1,3,2,2,1,1,1,0,0,1,1,0,0,5,5,5,0,0,0,0,,,,,,,796.7728297002614,None,799.244715500623,None,800.2087597995996,None,s,1,1.1699762996286154,800.2087597995996,None,None,None,,,,,,,10,21,female,10,2022_May_06_1028,Partial repeat,2021.2.3,59.924877880121784,
2,2,0,1,3,2,2,1,1,1,0,0,1,1,0,0,5,5,5,1,0,1,0,,,,,,,,,801.3951241001487,None,802.2459935005754,None,s,1,1.9808808993548155,802.2459935005754,None,None,None,,,,,,,10,21,female,10,2022_May_06_1028,Partial repeat,2021.2.3,59.924877880121784,
2,2,0,1,3,2,2,1,1,1,0,0,1,1,0,0,5,5,5,,,,,,,,,,,,,,,,,,,,,,,,,,,,,,10,21,female,10,2022_May_06_1028,Partial repeat,2021.2.3,59.924877880121784,
2,2,0,1,2,3,1,2,1,0,0,0,0,1,0,0,6,6,6,0,0,0,0,,,,,,,804.2377509996295,None,808.7464840002358,None,809.743664201349,None,s,1,0.7231073994189501,809.743664201349,None,None,None,,,,,,,10,21,female,10,2022_May_06_1028,Partial repeat,2021.2.3,59.924877880121784,
2,2,0,1,2,3,1,2,1,0,0,0,0,1,0,0,6,6,6,1,0,1,0,,,,,,,,,810.4899498000741,None,811.4308065008372,None,l,1,0.9559981990605593,811.4308065008372,None,None,None,,,,,,,10,21,female,10,2022_May_06_1028,Partial repeat,2021.2.3,59.924877880121784,
2,2,0,1,2,3,1,2,1,0,0,0,0,1,0,0,6,6,6,,,,,,,,,,,,,,,,,,,,,,,,,,,,,,10,21,female,10,2022_May_06_1028,Partial repeat,2021.2.3,59.924877880121784,
2,2,0,1,2,2,1,1,1,1,1,1,1,1,0,0,7,7,7,0,0,0,0,,,,,,,812.4131752010435,None,814.9920128006488,None,815.9893689006567,None,s,1,0.6693859007209539,815.9893689006567,None,None,None,,,,,,,10,21,female,10,2022_May_06_1028,Partial repeat,2021.2.3,59.924877880121784,
2,2,0,1,2,2,1,1,1,1,1,1,1,1,0,0,7,7,7,1,0,1,0,,,,,,,,,816.6743425000459,None,817.6090306006372,None,s,1,0.6978417001664639,817.6090306006372,None,None,None,,,,,,,10,21,female,10,2022_May_06_1028,Partial repeat,2021.2.3,59.924877880121784,
2,2,0,1,2,2,1,1,1,1,1,1,1,1,0,0,7,7,7,,,,,,,,,,,,,,,,,,,,,,,,,,,,,,10,21,female,10,2022_May_06_1028,Partial repeat,2021.2.3,59.924877880121784,
2,2,0,1,2,2,2,2,0,0,1,1,1,1,0,0,8,8,8,0,0,0,0,,,,,,,818.3192657995969,None,819.0833596009761,None,820.047817800194,None,l,1,0.8429924007505178,820.047817800194,None,None,None,,,,,,,10,21,female,10,2022_May_06_1028,Partial repeat,2021.2.3,59.924877880121784,
2,2,0,1,2,2,2,2,0,0,1,1,1,1,0,0,8,8,8,1,0,1,0,,,,,,,,,820.9169379007071,None,821.6344779003412,None,l,1,0.7364974990487099,821.6344779003412,None,None,None,,,,,,,10,21,female,10,2022_May_06_1028,Partial repeat,2021.2.3,59.924877880121784,
2,2,0,1,2,2,2,2,0,0,1,1,1,1,0,0,8,8,8,,,,,,,,,,,,,,,,,,,,,,,,,,,,,,10,21,female,10,2022_May_06_1028,Partial repeat,2021.2.3,59.924877880121784,
2,2,0,1,2,2,2,1,1,1,1,0,1,1,0,0,9,9,9,0,0,0,0,,,,,,,822.3834528010339,None,823.1077987998724,None,823.8712131995708,None,s,1,0.6756078004837036,823.8712131995708,None,None,None,,,,,,,10,21,female,10,2022_May_06_1028,Partial repeat,2021.2.3,59.924877880121784,
2,2,0,1,2,2,2,1,1,1,1,0,1,1,0,0,9,9,9,1,0,1,0,,,,,,,,,824.5746414996684,None,825.3073254004121,None,s,1,0.5915735997259617,825.3073254004121,None,None,None,,,,,,,10,21,female,10,2022_May_06_1028,Partial repeat,2021.2.3,59.924877880121784,
2,2,0,1,2,2,2,1,1,1,1,0,1,1,0,0,9,9,9,,,,,,,,,,,,,,,,,,,,,,,,,,,,,,10,21,female,10,2022_May_06_1028,Partial repeat,2021.2.3,59.924877880121784,
2,2,0,1,3,2,1,1,0,1,0,1,0,1,0,0,10,10,10,0,0,0,0,,,,,,,825.9130966011435,None,826.6313586998731,None,827.5285496003926,None,l,1,1.2102641016244888,827.5285496003926,None,None,None,,,,,,,10,21,female,10,2022_May_06_1028,Partial repeat,2021.2.3,59.924877880121784,
2,2,0,1,3,2,1,1,0,1,0,1,0,1,0,0,10,10,10,1,0,1,0,,,,,,,,,828.7545321006328,None,829.5157923996449,None,s,1,0.7109825983643532,829.5157923996449,None,None,None,,,,,,,10,21,female,10,2022_May_06_1028,Partial repeat,2021.2.3,59.924877880121784,
2,2,0,1,3,2,1,1,0,1,0,1,0,1,0,0,10,10,10,,,,,,,,,,,,,,,,,,,,,,,,,,,,,,10,21,female,10,2022_May_06_1028,Partial repeat,2021.2.3,59.924877880121784,
2,2,0,1,3,2,2,1,1,0,0,0,0,1,0,0,11,11,11,0,0,0,0,,,,,,,830.243187200278,None,830.9730986002833,None,831.853357700631,None,s,1,0.661447299644351,831.853357700631,None,None,None,,,,,,,10,21,female,10,2022_May_06_1028,Partial repeat,2021.2.3,59.924877880121784,
2,2,0,1,3,2,2,1,1,0,0,0,0,1,0,0,11,11,11,1,0,1,0,,,,,,,,,832.5311351995915,None,833.4902331996709,None,l,1,0.7124892994761467,833.4902331996709,None,None,None,,,,,,,10,21,female,10,2022_May_06_1028,Partial repeat,2021.2.3,59.924877880121784,
2,2,0,1,3,2,2,1,1,0,0,0,0,1,0,0,11,11,11,,,,,,,,,,,,,,,,,,,,,,,,,,,,,,10,21,female,10,2022_May_06_1028,Partial repeat,2021.2.3,59.924877880121784,
2,2,0,1,2,3,2,1,0,0,0,0,1,1,0,0,12,12,12,0,0,0,0,,,,,,,834.220716400072,None,834.9141109008342,None,835.8294847998768,None,l,1,0.6533281002193689,835.8294847998768,None,None,None,,,,,,,10,21,female,10,2022_May_06_1028,Partial repeat,2021.2.3,59.924877880121784,
2,2,0,1,2,3,2,1,0,0,0,0,1,1,0,0,12,12,12,1,0,1,0,,,,,,,,,836.5083314999938,None,837.4643481001258,None,l,1,0.4665447995066643,837.4643481001258,None,None,None,,,,,,,10,21,female,10,2022_May_06_1028,Partial repeat,2021.2.3,59.924877880121784,
2,2,0,1,2,3,2,1,0,0,0,0,1,1,0,0,12,12,12,,,,,,,,,,,,,,,,,,,,,,,,,,,,,,10,21,female,10,2022_May_06_1028,Partial repeat,2021.2.3,59.924877880121784,
2,2,0,1,3,3,1,2,0,0,1,0,1,1,0,0,13,13,13,0,0,0,0,,,,,,,837.9612195007503,None,838.6380752008408,None,839.5517734996974,None,l,1,0.5389975998550653,839.5517734996974,None,None,None,,,,,,,10,21,female,10,2022_May_06_1028,Partial repeat,2021.2.3,59.924877880121784,
2,2,0,1,3,3,1,2,0,0,1,0,1,1,0,0,13,13,13,1,0,1,0,,,,,,,,,840.103579800576,None,840.8709153011441,None,l,1,0.667892700061202,840.8709153011441,None,None,None,,,,,,,10,21,female,10,2022_May_06_1028,Partial repeat,2021.2.3,59.924877880121784,
2,2,0,1,3,3,1,2,0,0,1,0,1,1,0,0,13,13,13,,,,,,,,,,,,,,,,,,,,,,,,,,,,,,10,21,female,10,2022_May_06_1028,Partial repeat,2021.2.3,59.924877880121784,
2,2,0,1,3,3,1,2,1,1,1,0,1,1,0,0,14,14,14,0,0,0,0,,,,,,,841.5568234007806,None,843.0299040004611,None,843.8266717996448,None,s,1,0.6400872003287077,843.8266717996448,None,None,None,,,,,,,10,21,female,10,2022_May_06_1028,Partial repeat,2021.2.3,59.924877880121784,
2,2,0,1,3,3,1,2,1,1,1,0,1,1,0,0,14,14,14,1,0,1,0,,,,,,,,,844.4834048002958,None,845.3975166007876,None,s,1,0.7973270993679762,845.3975166007876,None,None,None,,,,,,,10,21,female,10,2022_May_06_1028,Partial repeat,2021.2.3,59.924877880121784,
2,2,0,1,3,3,1,2,1,1,1,0,1,1,0,0,14,14,14,,,,,,,,,,,,,,,,,,,,,,,,,,,,,,10,21,female,10,2022_May_06_1028,Partial repeat,2021.2.3,59.924877880121784,
2,2,0,1,2,3,2,2,0,0,0,1,1,1,0,0,15,15,15,0,0,0,0,,,,,,,846.2067722007632,None,847.0878159012645,None,847.9514189995825,None,l,1,0.699354799464345,847.9514189995825,None,None,None,,,,,,,10,21,female,10,2022_May_06_1028,Partial repeat,2021.2.3,59.924877880121784,
2,2,0,1,2,3,2,2,0,0,0,1,1,1,0,0,15,15,15,1,0,1,0,,,,,,,,,848.6664391011,None,849.6047125011683,None,l,1,0.5101832002401352,849.6047125011683,None,None,None,,,,,,,10,21,female,10,2022_May_06_1028,Partial repeat,2021.2.3,59.924877880121784,
2,2,0,1,2,3,2,2,0,0,0,1,1,1,0,0,15,15,15,,,,,,,,,,,,,,,,,,,,,,,,,,,,,,10,21,female,10,2022_May_06_1028,Partial repeat,2021.2.3,59.924877880121784,
2,2,0,1,3,2,2,2,1,1,0,1,1,1,0,0,16,16,16,0,0,0,0,,,,,,,850.1251202002168,None,850.7950605005026,None,851.6589337997139,None,s,1,1.3198073003441095,851.6589337997139,None,None,None,,,,,,,10,21,female,10,2022_May_06_1028,Partial repeat,2021.2.3,59.924877880121784,
2,2,0,1,3,2,2,2,1,1,0,1,1,1,0,0,16,16,16,1,0,1,0,,,,,,,,,852.9923831000924,None,853.8472658004612,None,s,1,0.7155050002038479,853.8472658004612,None,None,None,,,,,,,10,21,female,10,2022_May_06_1028,Partial repeat,2021.2.3,59.924877880121784,
2,2,0,1,3,2,2,2,1,1,0,1,1,1,0,0,16,16,16,,,,,,,,,,,,,,,,,,,,,,,,,,,,,,10,21,female,10,2022_May_06_1028,Partial repeat,2021.2.3,59.924877880121784,
2,2,0,1,2,2,1,2,1,1,1,0,1,1,0,0,17,17,17,0,0,0,0,,,,,,,854.582137901336,None,857.3077054005116,None,858.1716956011951,None,s,1,0.6630829013884068,858.1716956011951,None,None,None,,,,,,,10,21,female,10,2022_May_06_1028,Partial repeat,2021.2.3,59.924877880121784,
2,2,0,1,2,2,1,2,1,1,1,0,1,1,0,0,17,17,17,1,0,1,0,,,,,,,,,858.8537502009422,None,859.7744711004198,None,s,1,0.9642687011510134,859.7744711004198,None,None,None,,,,,,,10,21,female,10,2022_May_06_1028,Partial repeat,2021.2.3,59.924877880121784,
2,2,0,1,2,2,1,2,1,1,1,0,1,1,0,0,17,17,17,,,,,,,,,,,,,,,,,,,,,,,,,,,,,,10,21,female,10,2022_May_06_1028,Partial repeat,2021.2.3,59.924877880121784,
2,2,0,1,2,2,2,1,1,0,1,0,0,1,0,0,18,18,18,0,0,0,0,,,,,,,860.7634519003332,None,862.9353490006179,None,863.9336718004197,None,s,1,0.58927440084517,863.9336718004197,None,None,None,,,,,,,10,21,female,10,2022_May_06_1028,Partial repeat,2021.2.3,59.924877880121784,
2,2,0,1,2,2,2,1,1,0,1,0,0,1,0,0,18,18,18,1,0,1,0,,,,,,,,,864.5321561004966,None,865.5526612997055,None,l,1,0.7061362992972136,865.5526612997055,None,None,None,,,,,,,10,21,female,10,2022_May_06_1028,Partial repeat,2021.2.3,59.924877880121784,
2,2,0,1,2,2,2,1,1,0,1,0,0,1,0,0,18,18,18,,,,,,,,,,,,,,,,,,,,,,,,,,,,,,10,21,female,10,2022_May_06_1028,Partial repeat,2021.2.3,59.924877880121784,
2,2,0,1,3,2,2,1,0,0,0,0,1,1,0,0,19,19,19,0,0,0,0,,,,,,,866.2849305011332,None,867.1936332006007,None,868.1243385002017,None,l,1,0.7024294994771481,868.1243385002017,None,None,None,,,,,,,10,21,female,10,2022_May_06_1028,Partial repeat,2021.2.3,59.924877880121784,
2,2,0,1,3,2,2,1,0,0,0,0,1,1,0,0,19,19,19,1,0,1,0,,,,,,,,,868.8468340002,None,869.7270340006799,None,l,1,0.5797320008277893,869.7270340006799,None,None,None,,,,,,,10,21,female,10,2022_May_06_1028,Partial repeat,2021.2.3,59.924877880121784,
2,2,0,1,3,2,2,1,0,0,0,0,1,1,0,0,19,19,19,,,,,,,,,,,,,,,,,,,,,,,,,,,,,,10,21,female,10,2022_May_06_1028,Partial repeat,2021.2.3,59.924877880121784,
2,2,0,1,2,3,1,1,0,1,0,1,0,1,0,0,20,20,20,0,0,0,0,,,,,,,870.3273644000292,None,872.1532559003681,None,872.9668078999966,None,l,1,0.4759630002081394,872.9668078999966,None,None,None,,,,,,,10,21,female,10,2022_May_06_1028,Partial repeat,2021.2.3,59.924877880121784,
2,2,0,1,2,3,1,1,0,1,0,1,0,1,0,0,20,20,20,1,0,1,0,,,,,,,,,873.458116799593,None,874.3195057995617,None,s,1,0.8032115995883942,874.3195057995617,None,None,None,,,,,,,10,21,female,10,2022_May_06_1028,Partial repeat,2021.2.3,59.924877880121784,
2,2,0,1,2,3,1,1,0,1,0,1,0,1,0,0,20,20,20,,,,,,,,,,,,,,,,,,,,,,,,,,,,,,10,21,female,10,2022_May_06_1028,Partial repeat,2021.2.3,59.924877880121784,
2,2,0,1,3,3,2,2,1,0,1,1,0,1,0,0,21,21,21,0,0,0,0,,,,,,,875.1346135996282,None,877.0294110011309,None,877.8095955997705,None,s,1,0.5211683008819818,877.8095955997705,None,None,None,,,,,,,10,21,female,10,2022_May_06_1028,Partial repeat,2021.2.3,59.924877880121784,
2,2,0,1,3,3,2,2,1,0,1,1,0,1,0,0,21,21,21,1,0,1,0,,,,,,,,,878.3444050997496,None,879.1788958013058,None,l,1,1.1839016005396843,879.1788958013058,None,None,None,,,,,,,10,21,female,10,2022_May_06_1028,Partial repeat,2021.2.3,59.924877880121784,
2,2,0,1,3,3,2,2,1,0,1,1,0,1,0,0,21,21,21,,,,,,,,,,,,,,,,,,,,,,,,,,,,,,10,21,female,10,2022_May_06_1028,Partial repeat,2021.2.3,59.924877880121784,
2,2,0,1,3,3,2,1,0,0,1,0,1,1,0,0,22,22,22,0,0,0,0,,,,,,,880.393398899585,None,880.953737501055,None,881.8507970012724,None,l,1,0.712101798504591,881.8507970012724,None,None,None,,,,,,,10,21,female,10,2022_May_06_1028,Partial repeat,2021.2.3,59.924877880121784,
2,2,0,1,3,3,2,1,0,0,1,0,1,1,0,0,22,22,22,1,0,1,0,,,,,,,,,882.5734761003405,None,883.3368609007448,None,l,1,0.72193400003016,883.3368609007448,None,None,None,,,,,,,10,21,female,10,2022_May_06_1028,Partial repeat,2021.2.3,59.924877880121784,
2,2,0,1,3,3,2,1,0,0,1,0,1,1,0,0,22,22,22,,,,,,,,,,,,,,,,,,,,,,,,,,,,,,10,21,female,10,2022_May_06_1028,Partial repeat,2021.2.3,59.924877880121784,
2,2,0,1,3,3,2,1,0,1,1,0,0,1,0,0,23,23,23,0,0,0,0,,,,,,,884.0877270009369,None,884.944866200909,None,885.775034300983,None,l,1,0.46769499965012074,885.775034300983,None,None,None,,,,,,,10,21,female,10,2022_May_06_1028,Partial repeat,2021.2.3,59.924877880121784,
2,2,0,1,3,3,2,1,0,1,1,0,0,1,0,0,23,23,23,1,0,1,0,,,,,,,,,886.2713738996536,None,887.0611348003149,None,s,1,0.7016285005956888,887.0611348003149,None,None,None,,,,,,,10,21,female,10,2022_May_06_1028,Partial repeat,2021.2.3,59.924877880121784,
2,2,0,1,3,3,2,1,0,1,1,0,0,1,0,0,23,23,23,,,,,,,,,,,,,,,,,,,,,,,,,,,,,,10,21,female,10,2022_May_06_1028,Partial repeat,2021.2.3,59.924877880121784,
2,2,0,1,3,3,1,1,0,0,1,1,1,1,0,0,24,24,24,0,0,0,0,,,,,,,887.7904169000685,None,888.501709099859,None,889.2320953011513,None,l,1,0.7627242002636194,889.2320953011513,None,None,None,,,,,,,10,21,female,10,2022_May_06_1028,Partial repeat,2021.2.3,59.924877880121784,
2,2,0,1,3,3,1,1,0,0,1,1,1,1,0,0,24,24,24,1,0,1,0,,,,,,,,,890.011000899598,None,890.9352931007743,None,l,1,0.4674826003611088,890.9352931007743,None,None,None,,,,,,,10,21,female,10,2022_May_06_1028,Partial repeat,2021.2.3,59.924877880121784,
2,2,0,1,3,3,1,1,0,0,1,1,1,1,0,0,24,24,24,,,,,,,,,,,,,,,,,,,,,,,,,,,,,,10,21,female,10,2022_May_06_1028,Partial repeat,2021.2.3,59.924877880121784,
2,2,0,1,2,3,2,2,1,1,0,1,1,1,0,0,25,25,25,0,0,0,0,,,,,,,891.4279148001224,None,892.0419245008379,None,892.8888715002686,None,s,1,0.6578918993473053,892.8888715002686,None,None,None,,,,,,,10,21,female,10,2022_May_06_1028,Partial repeat,2021.2.3,59.924877880121784,
2,2,0,1,2,3,2,2,1,1,0,1,1,1,0,0,25,25,25,1,0,1,0,,,,,,,,,893.5730246007442,None,894.5754423011094,None,s,1,0.6433205995708704,894.5754423011094,None,None,None,,,,,,,10,21,female,10,2022_May_06_1028,Partial repeat,2021.2.3,59.924877880121784,
2,2,0,1,2,3,2,2,1,1,0,1,1,1,0,0,25,25,25,,,,,,,,,,,,,,,,,,,,,,,,,,,,,,10,21,female,10,2022_May_06_1028,Partial repeat,2021.2.3,59.924877880121784,
2,2,0,1,3,3,2,2,0,0,1,1,1,1,0,0,26,26,26,0,0,0,0,,,,,,,895.2347573004663,None,896.1331466007978,None,896.9637580998242,None,l,1,0.6470046006143093,896.9637580998242,None,None,None,,,,,,,10,21,female,10,2022_May_06_1028,Partial repeat,2021.2.3,59.924877880121784,
2,2,0,1,3,3,2,2,0,0,1,1,1,1,0,0,26,26,26,1,0,1,0,,,,,,,,,897.6233348008245,None,898.6006409004331,None,l,1,0.6421129982918501,898.6006409004331,None,None,None,,,,,,,10,21,female,10,2022_May_06_1028,Partial repeat,2021.2.3,59.924877880121784,
2,2,0,1,3,3,2,2,0,0,1,1,1,1,0,0,26,26,26,,,,,,,,,,,,,,,,,,,,,,,,,,,,,,10,21,female,10,2022_May_06_1028,Partial repeat,2021.2.3,59.924877880121784,
2,2,0,1,3,2,2,2,1,0,0,1,0,1,0,0,27,27,27,0,0,0,0,,,,,,,899.265497200191,None,901.3600862007588,None,902.3740011006594,None,l,0,0.7808370999991894,902.3740011006594,None,903.1830250006169,None,,,,,,,10,21,female,10,2022_May_06_1028,Partial repeat,2021.2.3,59.924877880121784,
2,2,0,1,3,2,2,2,1,0,0,1,0,1,0,0,27,27,27,1,0,1,0,,,,,,,,,903.6979751009494,None,904.4445699006319,None,l,1,0.7661978006362915,904.4445699006319,None,None,None,,,,,,,10,21,female,10,2022_May_06_1028,Partial repeat,2021.2.3,59.924877880121784,
2,2,0,1,3,2,2,2,1,0,0,1,0,1,0,0,27,27,27,,,,,,,,,,,,,,,,,,,,,,,,,,,,,,10,21,female,10,2022_May_06_1028,Partial repeat,2021.2.3,59.924877880121784,
2,2,0,1,2,3,1,2,1,1,0,0,1,1,0,0,28,28,28,0,0,0,0,,,,,,,905.2393578011543,None,907.6723792999983,None,908.5196695998311,None,s,1,0.4110940005630255,908.5196695998311,None,None,None,,,,,,,10,21,female,10,2022_May_06_1028,Partial repeat,2021.2.3,59.924877880121784,
2,2,0,1,2,3,1,2,1,1,0,0,1,1,0,0,28,28,28,1,0,1,0,,,,,,,,,908.9489264003932,None,909.8051894009113,None,s,1,0.605571199208498,909.8051894009113,None,None,None,,,,,,,10,21,female,10,2022_May_06_1028,Partial repeat,2021.2.3,59.924877880121784,
2,2,0,1,2,3,1,2,1,1,0,0,1,1,0,0,28,28,28,,,,,,,,,,,,,,,,,,,,,,,,,,,,,,10,21,female,10,2022_May_06_1028,Partial repeat,2021.2.3,59.924877880121784,
2,2,0,1,3,2,1,2,0,0,0,0,1,1,0,0,29,29,29,0,0,0,0,,,,,,,910.4318487998098,None,911.3962882999331,None,912.309936599806,None,l,1,0.5889232009649277,912.309936599806,None,None,None,,,,,,,10,21,female,10,2022_May_06_1028,Partial repeat,2021.2.3,59.924877880121784,
2,2,0,1,3,2,1,2,0,0,0,0,1,1,0,0,29,29,29,1,0,1,0,,,,,,,,,912.9083508998156,None,913.7127700001001,None,l,1,0.5059734992682934,913.7127700001001,None,None,None,,,,,,,10,21,female,10,2022_May_06_1028,Partial repeat,2021.2.3,59.924877880121784,
2,2,0,1,3,2,1,2,0,0,0,0,1,1,0,0,29,29,29,,,,,,,,,,,,,,,,,,,,,,,,,,,,,,10,21,female,10,2022_May_06_1028,Partial repeat,2021.2.3,59.924877880121784,
2,2,0,1,2,3,2,1,1,0,0,0,0,1,0,0,30,30,30,0,0,0,0,,,,,,,914.2293915003538,None,916.4060539007187,None,917.2031804006547,None,s,1,0.6076152995228767,917.2031804006547,None,None,None,,,,,,,10,21,female,10,2022_May_06_1028,Partial repeat,2021.2.3,59.924877880121784,
2,2,0,1,2,3,2,1,1,0,0,0,0,1,0,0,30,30,30,1,0,1,0,,,,,,,,,917.8241365011781,None,918.5556547995657,None,l,1,0.6792082991451025,918.5556547995657,None,None,None,,,,,,,10,21,female,10,2022_May_06_1028,Partial repeat,2021.2.3,59.924877880121784,
2,2,0,1,2,3,2,1,1,0,0,0,0,1,0,0,30,30,30,,,,,,,,,,,,,,,,,,,,,,,,,,,,,,10,21,female,10,2022_May_06_1028,Partial repeat,2021.2.3,59.924877880121784,
2,2,0,1,3,3,1,2,0,1,1,0,0,1,0,0,31,31,31,0,0,0,0,,,,,,,919.265115801245,None,920.8313945010304,None,921.6949634011835,None,l,1,0.5719226989895105,921.6949634011835,None,None,None,,,,,,,10,21,female,10,2022_May_06_1028,Partial repeat,2021.2.3,59.924877880121784,
2,2,0,1,3,3,1,2,0,1,1,0,0,1,0,0,31,31,31,1,0,1,0,,,,,,,,,922.2747131995857,None,923.0813648998737,None,s,1,0.8414886016398668,923.0813648998737,None,None,None,,,,,,,10,21,female,10,2022_May_06_1028,Partial repeat,2021.2.3,59.924877880121784,
2,2,0,1,3,3,1,2,0,1,1,0,0,1,0,0,31,31,31,,,,,,,,,,,,,,,,,,,,,,,,,,,,,,10,21,female,10,2022_May_06_1028,Partial repeat,2021.2.3,59.924877880121784,
2,2,0,1,2,3,1,1,0,0,0,1,1,1,0,0,32,32,32,0,0,0,0,,,,,,,923.9361979998648,None,924.922564201057,None,925.9365107007325,None,l,1,0.49824819900095463,925.9365107007325,None,None,None,,,,,,,10,21,female,10,2022_May_06_1028,Partial repeat,2021.2.3,59.924877880121784,
2,2,0,1,2,3,1,1,0,0,0,1,1,1,0,0,32,32,32,1,0,1,0,,,,,,,,,926.4507889002562,None,927.3062182012945,None,l,1,0.7685479987412691,927.3062182012945,None,None,None,,,,,,,10,21,female,10,2022_May_06_1028,Partial repeat,2021.2.3,59.924877880121784,
2,2,0,1,2,3,1,1,0,0,0,1,1,1,0,0,32,32,32,,,,,,,,,,,,,,,,,,,,,,,,,,,,,,10,21,female,10,2022_May_06_1028,Partial repeat,2021.2.3,59.924877880121784,
2,2,0,1,2,2,2,1,0,1,1,0,0,1,0,0,33,33,33,0,0,0,0,,,,,,,928.1012719999999,None,928.7967838998884,None,929.7275627013296,None,l,1,0.46726439893245697,929.7275627013296,None,None,None,,,,,,,10,21,female,10,2022_May_06_1028,Partial repeat,2021.2.3,59.924877880121784,
2,2,0,1,2,2,2,1,0,1,1,0,0,1,0,0,33,33,33,1,0,1,0,,,,,,,,,930.2026407010853,None,931.0796231012791,None,s,1,0.5311085004359484,931.0796231012791,None,None,None,,,,,,,10,21,female,10,2022_May_06_1028,Partial repeat,2021.2.3,59.924877880121784,
2,2,0,1,2,2,2,1,0,1,1,0,0,1,0,0,33,33,33,,,,,,,,,,,,,,,,,,,,,,,,,,,,,,10,21,female,10,2022_May_06_1028,Partial repeat,2021.2.3,59.924877880121784,
2,2,0,1,2,3,2,2,1,0,0,1,0,1,0,0,34,34,34,0,0,0,0,,,,,,,931.6383204013109,None,932.7544999998063,None,933.7018628995866,None,l,0,0.5729600992053747,933.7018628995866,None,934.3028008006513,None,,,,,,,10,21,female,10,2022_May_06_1028,Partial repeat,2021.2.3,59.924877880121784,
2,2,0,1,2,3,2,2,1,0,0,1,0,1,0,0,34,34,34,1,0,1,0,,,,,,,,,934.8085204996169,None,935.5720546003431,None,l,1,0.7586725987493992,935.5720546003431,None,None,None,,,,,,,10,21,female,10,2022_May_06_1028,Partial repeat,2021.2.3,59.924877880121784,
2,2,0,1,2,3,2,2,1,0,0,1,0,1,0,0,34,34,34,,,,,,,,,,,,,,,,,,,,,,,,,,,,,,10,21,female,10,2022_May_06_1028,Partial repeat,2021.2.3,59.924877880121784,
2,2,0,1,3,3,1,1,1,1,1,1,1,1,0,0,35,35,35,0,0,0,0,,,,,,,936.3470444008708,None,938.298658400774,None,939.1460018996149,None,s,1,0.6248870994895697,939.1460018996149,None,None,None,,,,,,,10,21,female,10,2022_May_06_1028,Partial repeat,2021.2.3,59.924877880121784,
2,2,0,1,3,3,1,1,1,1,1,1,1,1,0,0,35,35,35,1,0,1,0,,,,,,,,,939.7819465007633,None,940.7665746007115,None,s,1,0.8521436993032694,940.7665746007115,None,None,None,,,,,,,10,21,female,10,2022_May_06_1028,Partial repeat,2021.2.3,59.924877880121784,
2,2,0,1,3,3,1,1,1,1,1,1,1,1,0,0,35,35,35,,,,,,,,,,,,,,,,,,,,,,,,,,,,,,10,21,female,10,2022_May_06_1028,Partial repeat,2021.2.3,59.924877880121784,
2,2,0,1,2,3,1,2,0,1,0,0,0,1,0,0,36,36,36,0,0,0,0,,,,,,,941.6451930999756,None,943.241527499631,None,944.1052567008883,None,l,1,0.49757459945976734,944.1052567008883,None,None,None,,,,,,,10,21,female,10,2022_May_06_1028,Partial repeat,2021.2.3,59.924877880121784,
2,2,0,1,2,3,1,2,0,1,0,0,0,1,0,0,36,36,36,1,0,1,0,,,,,,,,,944.6138465013355,None,945.5916111003608,None,s,1,0.5712347999215126,945.5916111003608,None,None,None,,,,,,,10,21,female,10,2022_May_06_1028,Partial repeat,2021.2.3,59.924877880121784,
2,2,0,1,2,3,1,2,0,1,0,0,0,1,0,0,36,36,36,,,,,,,,,,,,,,,,,,,,,,,,,,,,,,10,21,female,10,2022_May_06_1028,Partial repeat,2021.2.3,59.924877880121784,
2,2,0,1,3,3,2,1,1,1,1,0,1,1,0,0,37,37,37,0,0,0,0,,,,,,,946.1757757011801,None,946.848602199927,None,947.5955066010356,None,s,1,0.575254499912262,947.5955066010356,None,None,None,,,,,,,10,21,female,10,2022_May_06_1028,Partial repeat,2021.2.3,59.924877880121784,
2,2,0,1,3,3,2,1,1,1,1,0,1,1,0,0,37,37,37,1,0,1,0,,,,,,,,,948.1937102004886,None,948.9312893003225,None,s,1,0.6074652001261711,948.9312893003225,None,None,None,,,,,,,10,21,female,10,2022_May_06_1028,Partial repeat,2021.2.3,59.924877880121784,
2,2,0,1,3,3,2,1,1,1,1,0,1,1,0,0,37,37,37,,,,,,,,,,,,,,,,,,,,,,,,,,,,,,10,21,female,10,2022_May_06_1028,Partial repeat,2021.2.3,59.924877880121784,
2,2,0,1,3,2,2,2,0,0,0,1,1,1,0,0,38,38,38,0,0,0,0,,,,,,,949.5563719999045,None,951.1069154012948,None,952.0207513999194,None,l,1,0.8140275999903679,952.0207513999194,None,None,None,,,,,,,10,21,female,10,2022_May_06_1028,Partial repeat,2021.2.3,59.924877880121784,
2,2,0,1,3,2,2,2,0,0,0,1,1,1,0,0,38,38,38,1,0,1,0,,,,,,,,,952.8469744008034,None,953.6908521000296,None,l,1,0.575985599309206,953.6908521000296,None,None,None,,,,,,,10,21,female,10,2022_May_06_1028,Partial repeat,2021.2.3,59.924877880121784,
2,2,0,1,3,2,2,2,0,0,0,1,1,1,0,0,38,38,38,,,,,,,,,,,,,,,,,,,,,,,,,,,,,,10,21,female,10,2022_May_06_1028,Partial repeat,2021.2.3,59.924877880121784,
2,2,0,1,2,3,2,1,0,1,0,0,0,1,0,0,39,39,39,0,0,0,0,,,,,,,954.2771220002323,None,956.4673063997179,None,957.4317177999765,None,l,1,0.555036598816514,957.4317177999765,None,None,None,,,,,,,10,21,female,10,2022_May_06_1028,Partial repeat,2021.2.3,59.924877880121784,
2,2,0,1,2,3,2,1,0,1,0,0,0,1,0,0,39,39,39,1,0,1,0,,,,,,,,,958.0093006007373,None,958.9186883997172,None,s,1,0.668078001588583,958.9186883997172,None,None,None,,,,,,,10,21,female,10,2022_May_06_1028,Partial repeat,2021.2.3,59.924877880121784,
2,2,0,1,2,3,2,1,0,1,0,0,0,1,0,0,39,39,39,,,,,,,,,,,,,,,,,,,,,,,,,,,,,,10,21,female,10,2022_May_06_1028,Partial repeat,2021.2.3,59.924877880121784,
2,2,0,1,3,3,2,1,1,0,1,0,0,1,0,0,40,40,40,0,0,0,0,,,,,,,959.6090514995158,None,960.5418903008103,None,961.4391137007624,None,s,1,0.8837737999856472,961.4391137007624,None,None,None,,,,,,,10,21,female,10,2022_May_06_1028,Partial repeat,2021.2.3,59.924877880121784,
2,2,0,1,3,3,2,1,1,0,1,0,0,1,0,0,40,40,40,1,0,1,0,,,,,,,,,962.3335603009909,None,963.3427358996123,None,l,1,0.6600094009190798,963.3427358996123,None,None,None,,,,,,,10,21,female,10,2022_May_06_1028,Partial repeat,2021.2.3,59.924877880121784,
2,2,0,1,3,3,2,1,1,0,1,0,0,1,0,0,40,40,40,,,,,,,,,,,,,,,,,,,,,,,,,,,,,,10,21,female,10,2022_May_06_1028,Partial repeat,2021.2.3,59.924877880121784,
2,2,0,1,2,3,1,2,0,0,0,0,1,1,0,0,41,41,41,0,0,0,0,,,,,,,964.0302044004202,None,965.8187747001648,None,966.7994343005121,None,l,1,0.5632910002022982,966.7994343005121,None,None,None,,,,,,,10,21,female,10,2022_May_06_1028,Partial repeat,2021.2.3,59.924877880121784,
2,2,0,1,2,3,1,2,0,0,0,0,1,1,0,0,41,41,41,1,0,1,0,,,,,,,,,967.3723096996546,None,968.1022303011268,None,l,1,0.5005213003605604,968.1022303011268,None,None,None,,,,,,,10,21,female,10,2022_May_06_1028,Partial repeat,2021.2.3,59.924877880121784,
2,2,0,1,2,3,1,2,0,0,0,0,1,1,0,0,41,41,41,,,,,,,,,,,,,,,,,,,,,,,,,,,,,,10,21,female,10,2022_May_06_1028,Partial repeat,2021.2.3,59.924877880121784,
2,2,0,1,3,2,1,1,1,0,0,1,0,1,0,0,42,42,42,0,0,0,0,,,,,,,968.619540700689,None,970.3777299001813,None,971.3759183008224,None,s,1,0.6428391002118587,971.3759183008224,None,None,None,,,,,,,10,21,female,10,2022_May_06_1028,Partial repeat,2021.2.3,59.924877880121784,
2,2,0,1,3,2,1,1,1,0,0,1,0,1,0,0,42,42,42,1,0,1,0,,,,,,,,,972.0451782997698,None,972.895579000935,None,l,1,0.8111405000090599,972.895579000935,None,None,None,,,,,,,10,21,female,10,2022_May_06_1028,Partial repeat,2021.2.3,59.924877880121784,
2,2,0,1,3,2,1,1,1,0,0,1,0,1,0,0,42,42,42,,,,,,,,,,,,,,,,,,,,,,,,,,,,,,10,21,female,10,2022_May_06_1028,Partial repeat,2021.2.3,59.924877880121784,
2,2,0,1,3,2,1,2,1,1,0,0,1,1,0,0,43,43,43,0,0,0,0,,,,,,,973.7633643001318,None,975.7715460006148,None,976.4850546009839,None,s,1,0.6456961985677481,976.4850546009839,None,None,None,,,,,,,10,21,female,10,2022_May_06_1028,Partial repeat,2021.2.3,59.924877880121784,
2,2,0,1,3,2,1,2,1,1,0,0,1,1,0,0,43,43,43,1,0,1,0,,,,,,,,,977.1455872002989,None,977.9712384995073,None,s,1,0.60745520144701,977.9712384995073,None,None,None,,,,,,,10,21,female,10,2022_May_06_1028,Partial repeat,2021.2.3,59.924877880121784,
2,2,0,1,3,2,1,2,1,1,0,0,1,1,0,0,43,43,43,,,,,,,,,,,,,,,,,,,,,,,,,,,,,,10,21,female,10,2022_May_06_1028,Partial repeat,2021.2.3,59.924877880121784,
2,2,0,1,3,2,1,2,1,0,0,0,0,1,0,0,44,44,44,0,0,0,0,,,,,,,978.5991012006998,None,979.445353699848,None,980.3760522007942,None,s,1,0.5626995004713535,980.3760522007942,None,None,None,,,,,,,10,21,female,10,2022_May_06_1028,Partial repeat,2021.2.3,59.924877880121784,
2,2,0,1,3,2,1,2,1,0,0,0,0,1,0,0,44,44,44,1,0,1,0,,,,,,,,,980.9526596013457,None,981.7286392003298,None,l,1,0.5381524991244078,981.7286392003298,None,None,None,,,,,,,10,21,female,10,2022_May_06_1028,Partial repeat,2021.2.3,59.924877880121784,
2,2,0,1,3,2,1,2,1,0,0,0,0,1,0,0,44,44,44,,,,,,,,,,,,,,,,,,,,,,,,,,,,,,10,21,female,10,2022_May_06_1028,Partial repeat,2021.2.3,59.924877880121784,
2,2,0,1,2,2,1,2,1,0,1,0,0,1,0,0,45,45,45,0,0,0,0,,,,,,,982.2776944003999,None,983.4697997998446,None,984.216883700341,None,s,1,0.601868299767375,984.216883700341,None,None,None,,,,,,,10,21,female,10,2022_May_06_1028,Partial repeat,2021.2.3,59.924877880121784,
2,2,0,1,2,2,1,2,1,0,1,0,0,1,0,0,45,45,45,1,0,1,0,,,,,,,,,984.832395600155,None,985.836338499561,None,l,1,1.0944240000098944,985.836338499561,None,None,None,,,,,,,10,21,female,10,2022_May_06_1028,Partial repeat,2021.2.3,59.924877880121784,
2,2,0,1,2,2,1,2,1,0,1,0,0,1,0,0,45,45,45,,,,,,,,,,,,,,,,,,,,,,,,,,,,,,10,21,female,10,2022_May_06_1028,Partial repeat,2021.2.3,59.924877880121784,
2,2,0,1,3,2,2,1,0,1,0,0,0,1,0,0,46,46,46,0,0,0,0,,,,,,,986.9472831003368,None,987.8450866006315,None,988.7929496001452,None,l,1,0.5297958999872208,988.7929496001452,None,None,None,,,,,,,10,21,female,10,2022_May_06_1028,Partial repeat,2021.2.3,59.924877880121784,
2,2,0,1,3,2,2,1,0,1,0,0,0,1,0,0,46,46,46,1,0,1,0,,,,,,,,,989.3489718008786,None,990.2119485009462,None,s,1,0.6948076989501715,990.2119485009462,None,None,None,,,,,,,10,21,female,10,2022_May_06_1028,Partial repeat,2021.2.3,59.924877880121784,
2,2,0,1,3,2,2,1,0,1,0,0,0,1,0,0,46,46,46,,,,,,,,,,,,,,,,,,,,,,,,,,,,,,10,21,female,10,2022_May_06_1028,Partial repeat,2021.2.3,59.924877880121784,
2,2,0,1,3,2,1,1,0,0,0,1,1,1,0,0,47,47,47,0,0,0,0,,,,,,,990.9230297002941,None,991.4186566006392,None,992.148837801069,None,l,1,0.7179854996502399,992.148837801069,None,None,None,,,,,,,10,21,female,10,2022_May_06_1028,Partial repeat,2021.2.3,59.924877880121784,
2,2,0,1,3,2,1,1,0,0,0,1,1,1,0,0,47,47,47,1,0,1,0,,,,,,,,,992.8775300011039,None,993.6516558006406,None,l,1,1.3830911982804537,993.6516558006406,None,None,None,,,,,,,10,21,female,10,2022_May_06_1028,Partial repeat,2021.2.3,59.924877880121784,
2,2,0,1,3,2,1,1,0,0,0,1,1,1,0,0,47,47,47,,,,,,,,,,,,,,,,,,,,,,,,,,,,,,10,21,female,10,2022_May_06_1028,Partial repeat,2021.2.3,59.924877880121784,
2,2,0,1,2,2,2,2,0,1,1,1,0,1,0,0,48,48,48,0,0,0,0,,,,,,,995.0567582007498,None,997.280069001019,None,998.2271146997809,None,l,1,0.5116330999881029,998.2271146997809,None,None,None,,,,,,,10,21,female,10,2022_May_06_1028,Partial repeat,2021.2.3,59.924877880121784,
2,2,0,1,2,2,2,2,0,1,1,1,0,1,0,0,48,48,48,1,0,1,0,,,,,,,,,998.7612514998764,None,999.6469050999731,None,s,1,0.8918369989842176,999.6469050999731,None,None,None,,,,,,,10,21,female,10,2022_May_06_1028,Partial repeat,2021.2.3,59.924877880121784,
2,2,0,1,2,2,2,2,0,1,1,1,0,1,0,0,48,48,48,,,,,,,,,,,,,,,,,,,,,,,,,,,,,,10,21,female,10,2022_May_06_1028,Partial repeat,2021.2.3,59.924877880121784,
2,2,0,1,3,3,2,2,0,1,1,1,0,1,0,0,49,49,49,0,0,0,0,,,,,,,1000.5668209008873,None,1001.3880700003356,None,1002.3354273010045,None,l,1,0.6753161996603012,1002.3354273010045,None,None,None,,,,,,,10,21,female,10,2022_May_06_1028,Partial repeat,2021.2.3,59.924877880121784,
2,2,0,1,3,3,2,2,0,1,1,1,0,1,0,0,49,49,49,1,0,1,0,,,,,,,,,1003.033878101036,None,1003.9887911006808,None,s,1,1.2859589997678995,1003.9887911006808,None,None,None,,,,,,,10,21,female,10,2022_May_06_1028,Partial repeat,2021.2.3,59.924877880121784,
2,2,0,1,3,3,2,2,0,1,1,1,0,1,0,0,49,49,49,,,,,,,,,,,,,,,,,,,,,,,,,,,,,,10,21,female,10,2022_May_06_1028,Partial repeat,2021.2.3,59.924877880121784,
2,2,0,1,2,2,1,1,0,0,1,1,1,1,0,0,50,50,50,0,0,0,0,,,,,,,1005.3047652002424,None,1006.7317949011922,None,1007.5621082000434,None,l,1,0.6006351988762617,1007.5621082000434,None,None,None,,,,,,,10,21,female,10,2022_May_06_1028,Partial repeat,2021.2.3,59.924877880121784,
2,2,0,1,2,2,1,1,0,0,1,1,1,1,0,0,50,50,50,1,0,1,0,,,,,,,,,1008.1809836998582,None,1009.0147964004427,None,l,1,0.6121155992150307,1009.0147964004427,None,None,None,,,,,,,10,21,female,10,2022_May_06_1028,Partial repeat,2021.2.3,59.924877880121784,
2,2,0,1,2,2,1,1,0,0,1,1,1,1,0,0,50,50,50,,,,,,,,,,,,,,,,,,,,,,,,,,,,,,10,21,female,10,2022_May_06_1028,Partial repeat,2021.2.3,59.924877880121784,
2,2,0,1,2,2,1,1,1,0,1,1,0,1,0,0,51,51,51,0,0,0,0,,,,,,,1009.6398323010653,None,1010.3888627998531,None,1011.4032080005854,None,l,0,0.5835429988801479,1011.4032080005854,None,1012.000176500529,None,,,,,,,10,21,female,10,2022_May_06_1028,Partial repeat,2021.2.3,59.924877880121784,
2,2,0,1,2,2,1,1,1,0,1,1,0,1,0,0,51,51,51,1,0,1,0,,,,,,,,,1012.5095384996384,None,1013.3066266998649,None,s,0,0.6161371991038322,1013.3066266998649,None,1013.9510268010199,None,,,,,,,10,21,female,10,2022_May_06_1028,Partial repeat,2021.2.3,59.924877880121784,
2,2,0,1,2,2,1,1,1,0,1,1,0,1,0,0,51,51,51,,,,,,,,,,,,,,,,,,,,,,,,,,,,,,10,21,female,10,2022_May_06_1028,Partial repeat,2021.2.3,59.924877880121784,
2,2,0,1,2,2,2,2,1,0,1,1,0,1,0,0,52,52,52,0,0,0,0,,,,,,,1014.4634761996567,None,1015.7493016999215,None,1016.64681090042,None,s,1,0.6519243996590376,1016.64681090042,None,None,None,,,,,,,10,21,female,10,2022_May_06_1028,Partial repeat,2021.2.3,59.924877880121784,
2,2,0,1,2,2,2,2,1,0,1,1,0,1,0,0,52,52,52,1,0,1,0,,,,,,,,,1017.311606399715,None,1018.2337328996509,None,l,1,0.8969745989888906,1018.2337328996509,None,None,None,,,,,,,10,21,female,10,2022_May_06_1028,Partial repeat,2021.2.3,59.924877880121784,
2,2,0,1,2,2,2,2,1,0,1,1,0,1,0,0,52,52,52,,,,,,,,,,,,,,,,,,,,,,,,,,,,,,10,21,female,10,2022_May_06_1028,Partial repeat,2021.2.3,59.924877880121784,
2,2,0,1,2,2,1,2,0,1,1,0,0,1,0,0,53,53,53,0,0,0,0,,,,,,,1019.1541162002832,None,1020.2747457996011,None,1021.1720922999084,None,l,1,0.7426762003451586,1021.1720922999084,None,None,None,,,,,,,10,21,female,10,2022_May_06_1028,Partial repeat,2021.2.3,59.924877880121784,
2,2,0,1,2,2,1,2,0,1,1,0,0,1,0,0,53,53,53,1,0,1,0,,,,,,,,,1021.9345858003944,None,1022.7582096010447,None,s,1,0.5885374005883932,1022.7582096010447,None,None,None,,,,,,,10,21,female,10,2022_May_06_1028,Partial repeat,2021.2.3,59.924877880121784,
2,2,0,1,2,2,1,2,0,1,1,0,0,1,0,0,53,53,53,,,,,,,,,,,,,,,,,,,,,,,,,,,,,,10,21,female,10,2022_May_06_1028,Partial repeat,2021.2.3,59.924877880121784,
2,2,0,1,3,3,2,2,1,1,1,1,1,1,0,0,54,54,54,0,0,0,0,,,,,,,1023.3705674000084,None,1024.282599100843,None,1025.1798494998366,None,l,0,1.1109515000134706,1025.1798494998366,None,1026.3167394008487,None,,,,,,,10,21,female,10,2022_May_06_1028,Partial repeat,2021.2.3,59.924877880121784,
2,2,0,1,3,3,2,2,1,1,1,1,1,1,0,0,54,54,54,1,0,1,0,,,,,,,,,1026.8208806999028,None,1027.65131559968,None,s,1,0.591483898460865,1027.65131559968,None,None,None,,,,,,,10,21,female,10,2022_May_06_1028,Partial repeat,2021.2.3,59.924877880121784,
2,2,0,1,3,3,2,2,1,1,1,1,1,1,0,0,54,54,54,,,,,,,,,,,,,,,,,,,,,,,,,,,,,,10,21,female,10,2022_May_06_1028,Partial repeat,2021.2.3,59.924877880121784,
2,2,0,1,2,3,1,1,1,1,0,1,1,1,0,0,55,55,55,0,0,0,0,,,,,,,1028.2579848002642,None,1029.4259821996093,None,1030.25717770122,None,s,1,0.5215674005448818,1030.25717770122,None,None,None,,,,,,,10,21,female,10,2022_May_06_1028,Partial repeat,2021.2.3,59.924877880121784,
2,2,0,1,2,3,1,1,1,1,0,1,1,1,0,0,55,55,55,1,0,1,0,,,,,,,,,1030.7924483008683,None,1031.5420798007399,None,s,1,0.46864120103418827,1031.5420798007399,None,None,None,,,,,,,10,21,female,10,2022_May_06_1028,Partial repeat,2021.2.3,59.924877880121784,
2,2,0,1,2,3,1,1,1,1,0,1,1,1,0,0,55,55,55,,,,,,,,,,,,,,,,,,,,,,,,,,,,,,10,21,female,10,2022_May_06_1028,Partial repeat,2021.2.3,59.924877880121784,
2,2,0,1,3,3,1,1,0,1,1,1,0,1,0,0,56,56,56,0,0,0,0,,,,,,,1032.0405270997435,None,1033.6508988011628,None,1034.4646765999496,None,l,1,0.5461862999945879,1034.4646765999496,None,None,None,,,,,,,10,21,female,10,2022_May_06_1028,Partial repeat,2021.2.3,59.924877880121784,
2,2,0,1,3,3,1,1,0,1,1,1,0,1,0,0,56,56,56,1,0,1,0,,,,,,,,,1035.0217483006418,None,1035.8673593010753,None,s,1,1.3913851007819176,1035.8673593010753,None,None,None,,,,,,,10,21,female,10,2022_May_06_1028,Partial repeat,2021.2.3,59.924877880121784,
2,2,0,1,3,3,1,1,0,1,1,1,0,1,0,0,56,56,56,,,,,,,,,,,,,,,,,,,,,,,,,,,,,,10,21,female,10,2022_May_06_1028,Partial repeat,2021.2.3,59.924877880121784,
2,2,0,1,2,2,1,1,0,1,1,1,0,1,0,0,57,57,57,0,0,0,0,,,,,,,1037.2805984001607,None,1037.925803700462,None,1038.6895048003644,None,l,1,0.8572908006608486,1038.6895048003644,None,None,None,,,,,,,10,21,female,10,2022_May_06_1028,Partial repeat,2021.2.3,59.924877880121784,
2,2,0,1,2,2,1,1,0,1,1,1,0,1,0,0,57,57,57,1,0,1,0,,,,,,,,,1039.575543999672,None,1040.4929710999131,None,s,1,0.5817756000906229,1040.4929710999131,None,None,None,,,,,,,10,21,female,10,2022_May_06_1028,Partial repeat,2021.2.3,59.924877880121784,
2,2,0,1,2,2,1,1,0,1,1,1,0,1,0,0,57,57,57,,,,,,,,,,,,,,,,,,,,,,,,,,,,,,10,21,female,10,2022_May_06_1028,Partial repeat,2021.2.3,59.924877880121784,
2,2,0,1,3,3,1,2,1,0,1,0,0,1,0,0,58,58,58,0,0,0,0,,,,,,,1041.0930886007845,None,1042.96888920106,None,1043.799422301352,None,s,1,0.6593279987573624,1043.799422301352,None,None,None,,,,,,,10,21,female,10,2022_May_06_1028,Partial repeat,2021.2.3,59.924877880121784,
2,2,0,1,3,3,1,2,1,0,1,0,0,1,0,0,58,58,58,1,0,1,0,,,,,,,,,1044.4794722013175,None,1045.2019124999642,None,l,1,0.808958999812603,1045.2019124999642,None,None,None,,,,,,,10,21,female,10,2022_May_06_1028,Partial repeat,2021.2.3,59.924877880121784,
2,2,0,1,3,3,1,2,1,0,1,0,0,1,0,0,58,58,58,,,,,,,,,,,,,,,,,,,,,,,,,,,,,,10,21,female,10,2022_May_06_1028,Partial repeat,2021.2.3,59.924877880121784,
2,2,0,1,2,2,2,1,0,0,1,0,1,1,0,0,59,59,59,0,0,0,0,,,,,,,1046.021040501073,None,1046.6427849996835,None,1047.506360899657,None,l,1,0.6403721012175083,1047.506360899657,None,None,None,,,,,,,10,21,female,10,2022_May_06_1028,Partial repeat,2021.2.3,59.924877880121784,
2,2,0,1,2,2,2,1,0,0,1,0,1,1,0,0,59,59,59,1,0,1,0,,,,,,,,,1048.167720001191,None,1049.1767512001097,None,l,1,0.457998801022768,1049.1767512001097,None,None,None,,,,,,,10,21,female,10,2022_May_06_1028,Partial repeat,2021.2.3,59.924877880121784,
2,2,0,1,2,2,2,1,0,0,1,0,1,1,0,0,59,59,59,,,,,,,,,,,,,,,,,,,,,,,,,,,,,,10,21,female,10,2022_May_06_1028,Partial repeat,2021.2.3,59.924877880121784,
2,2,0,1,3,3,1,1,1,0,1,1,0,1,0,0,60,60,60,0,0,0,0,,,,,,,1049.6515562999994,None,1050.283200699836,None,1051.2639752011746,None,s,1,0.5627824012190104,1051.2639752011746,None,None,None,,,,,,,10,21,female,10,2022_May_06_1028,Partial repeat,2021.2.3,59.924877880121784,
2,2,0,1,3,3,1,1,1,0,1,1,0,1,0,0,60,60,60,1,0,1,0,,,,,,,,,1051.8398356009275,None,1052.7167434003204,None,l,1,1.0379712004214525,1052.7167434003204,None,None,None,,,,,,,10,21,female,10,2022_May_06_1028,Partial repeat,2021.2.3,59.924877880121784,
2,2,0,1,3,3,1,1,1,0,1,1,0,1,0,0,60,60,60,,,,,,,,,,,,,,,,,,,,,,,,,,,,,,10,21,female,10,2022_May_06_1028,Partial repeat,2021.2.3,59.924877880121784,
2,2,0,1,2,3,2,1,1,1,0,0,1,1,0,0,61,61,61,0,0,0,0,,,,,,,1053.7666827011853,None,1054.5915823001415,None,1055.438393600285,None,s,1,0.7644039001315832,1055.438393600285,None,None,None,,,,,,,10,21,female,10,2022_May_06_1028,Partial repeat,2021.2.3,59.924877880121784,
2,2,0,1,2,3,2,1,1,1,0,0,1,1,0,0,61,61,61,1,0,1,0,,,,,,,,,1056.2256565000862,None,1057.0920459013432,None,s,1,0.6147684995085001,1057.0920459013432,None,None,None,,,,,,,10,21,female,10,2022_May_06_1028,Partial repeat,2021.2.3,59.924877880121784,
2,2,0,1,2,3,2,1,1,1,0,0,1,1,0,0,61,61,61,,,,,,,,,,,,,,,,,,,,,,,,,,,,,,10,21,female,10,2022_May_06_1028,Partial repeat,2021.2.3,59.924877880121784,
2,2,0,1,3,2,1,2,0,1,0,0,0,1,0,0,62,62,62,0,0,0,0,,,,,,,1057.7376898005605,None,1058.4657547995448,None,1059.4464204013348,None,s,0,0.6203268002718687,1059.4464204013348,None,1060.0855807010084,None,,,,,,,10,21,female,10,2022_May_06_1028,Partial repeat,2021.2.3,59.924877880121784,
2,2,0,1,3,2,1,2,0,1,0,0,0,1,0,0,62,62,62,1,0,1,0,,,,,,,,,1060.5865883007646,None,1061.5505568012595,None,s,1,0.7961778994649649,1061.5505568012595,None,None,None,,,,,,,10,21,female,10,2022_May_06_1028,Partial repeat,2021.2.3,59.924877880121784,
2,2,0,1,3,2,1,2,0,1,0,0,0,1,0,0,62,62,62,,,,,,,,,,,,,,,,,,,,,,,,,,,,,,10,21,female,10,2022_May_06_1028,Partial repeat,2021.2.3,59.924877880121784,
2,2,0,1,2,3,1,1,1,0,0,1,0,1,0,0,63,63,63,0,0,0,0,,,,,,,1062.368299599737,None,1063.0246584005654,None,1063.9219094011933,None,s,1,0.584816200658679,1063.9219094011933,None,None,None,,,,,,,10,21,female,10,2022_May_06_1028,Partial repeat,2021.2.3,59.924877880121784,
2,2,0,1,2,3,1,1,1,0,0,1,0,1,0,0,63,63,63,1,0,1,0,,,,,,,,,1064.5231557004154,None,1065.2577941007912,None,l,1,0.5050374008715153,1065.2577941007912,None,None,None,,,,,,,10,21,female,10,2022_May_06_1028,Partial repeat,2021.2.3,59.924877880121784,
2,2,0,1,2,3,1,1,1,0,0,1,0,1,0,0,63,63,63,,,,,,,,,,,,,,,,,,,,,,,,,,,,,,10,21,female,10,2022_May_06_1028,Partial repeat,2021.2.3,59.924877880121784,
2,3,0,1,3,3,1,2,0,1,1,0,0,0,0,0,64,64,64,0,0,0,0,,,,,,,1069.2017117012292,None,1070.33887029998,None,1071.2696270011365,None,l,1,0.8291124999523163,1071.2696270011365,None,None,None,,,,,,,10,21,female,10,2022_May_06_1028,Partial repeat,2021.2.3,59.924877880121784,
2,3,0,1,3,3,1,2,0,1,1,0,0,0,0,0,64,64,64,1,0,1,0,,,,,,,,,1072.1240173000842,None,1072.8558785002679,None,s,1,0.7548591997474432,1072.8558785002679,None,None,None,,,,,,,10,21,female,10,2022_May_06_1028,Partial repeat,2021.2.3,59.924877880121784,
2,3,0,1,3,3,1,2,0,1,1,0,0,0,0,0,64,64,64,,,,,,,,,,,,,,,,,,,,,,,,,,,,,,10,21,female,10,2022_May_06_1028,Partial repeat,2021.2.3,59.924877880121784,
8,3,0,1,2,3,1,2,1,1,0,0,1,0,0,0,65,65,65,0,0,0,0,,,,,,,1073.6277808006853,None,1075.4320944007486,None,1076.3133124001324,None,s,1,0.93743110075593,1076.3133124001324,None,None,None,,,,,,,10,21,female,10,2022_May_06_1028,Partial repeat,2021.2.3,59.924877880121784,
8,3,0,1,2,3,1,2,1,1,0,0,1,0,0,0,65,65,65,1,0,1,0,,,,,,,,,1077.2692952007055,None,1078.2329203002155,None,s,1,0.8098202999681234,1078.2329203002155,None,None,None,,,,,,,10,21,female,10,2022_May_06_1028,Partial repeat,2021.2.3,59.924877880121784,
8,3,0,1,2,3,1,2,1,1,0,0,1,0,0,0,65,65,65,,,,,,,,,,,,,,,,,,,,,,,,,,,,,,10,21,female,10,2022_May_06_1028,Partial repeat,2021.2.3,59.924877880121784,
7,4,0,1,3,3,1,1,1,0,1,1,0,0,0,0,66,66,66,0,0,0,0,,,,,,,1079.0688709001988,None,1079.6235956009477,None,1080.5550811011344,None,s,1,0.5677249003201723,1080.5550811011344,None,None,None,,,,,,,10,21,female,10,2022_May_06_1028,Partial repeat,2021.2.3,59.924877880121784,
7,4,0,1,3,3,1,1,1,0,1,1,0,0,0,0,66,66,66,1,0,1,0,,,,,,,,,1081.1321664005518,None,1081.923560200259,None,l,1,0.7271628007292747,1081.923560200259,None,None,None,,,,,,,10,21,female,10,2022_May_06_1028,Partial repeat,2021.2.3,59.924877880121784,
7,4,0,1,3,3,1,1,1,0,1,1,0,0,0,0,66,66,66,,,,,,,,,,,,,,,,,,,,,,,,,,,,,,10,21,female,10,2022_May_06_1028,Partial repeat,2021.2.3,59.924877880121784,
3,1,0,1,3,2,2,2,0,0,0,1,1,0,0,0,67,67,67,0,0,0,0,,,,,,,1082.6793383006006,None,1083.5645832996815,None,1084.4784331005067,None,l,1,1.028311500325799,1084.4784331005067,None,None,None,,,,,,,10,21,female,10,2022_May_06_1028,Partial repeat,2021.2.3,59.924877880121784,
3,1,0,1,3,2,2,2,0,0,0,1,1,0,0,0,67,67,67,1,0,1,0,,,,,,,,,1085.5188437011093,None,1086.4489096999168,None,l,1,0.7778829988092184,1086.4489096999168,None,None,None,,,,,,,10,21,female,10,2022_May_06_1028,Partial repeat,2021.2.3,59.924877880121784,
3,1,0,1,3,2,2,2,0,0,0,1,1,0,0,0,67,67,67,,,,,,,,,,,,,,,,,,,,,,,,,,,,,,10,21,female,10,2022_May_06_1028,Partial repeat,2021.2.3,59.924877880121784,
8,6,0,1,2,3,1,1,1,1,0,1,1,0,0,0,68,68,68,0,0,0,0,,,,,,,1087.2491168007255,None,1087.8896947000176,None,1088.7546165008098,None,s,1,0.6161196995526552,1088.7546165008098,None,None,None,,,,,,,10,21,female,10,2022_May_06_1028,Partial repeat,2021.2.3,59.924877880121784,
8,6,0,1,2,3,1,1,1,1,0,1,1,0,0,0,68,68,68,1,0,1,0,,,,,,,,,1089.3937194999307,None,1090.122972600162,None,s,1,0.5597459003329277,1090.122972600162,None,None,None,,,,,,,10,21,female,10,2022_May_06_1028,Partial repeat,2021.2.3,59.924877880121784,
8,6,0,1,2,3,1,1,1,1,0,1,1,0,0,0,68,68,68,,,,,,,,,,,,,,,,,,,,,,,,,,,,,,10,21,female,10,2022_May_06_1028,Partial repeat,2021.2.3,59.924877880121784,
2,7,0,1,2,3,2,2,1,0,0,1,0,0,0,0,69,69,69,0,0,0,0,,,,,,,1090.7093185000122,None,1091.513422999531,None,1092.494218500331,None,l,0,0.5325588006526232,1092.494218500331,None,1093.0540380999446,None,,,,,,,10,21,female,10,2022_May_06_1028,Partial repeat,2021.2.3,59.924877880121784,
2,7,0,1,2,3,2,2,1,0,0,1,0,0,0,0,69,69,69,1,0,1,0,,,,,,,,,1093.5674182008952,None,1094.5311786010861,None,l,1,0.7356219999492168,1094.5311786010861,None,None,None,,,,,,,10,21,female,10,2022_May_06_1028,Partial repeat,2021.2.3,59.924877880121784,
2,7,0,1,2,3,2,2,1,0,0,1,0,0,0,0,69,69,69,,,,,,,,,,,,,,,,,,,,,,,,,,,,,,10,21,female,10,2022_May_06_1028,Partial repeat,2021.2.3,59.924877880121784,
7,1,0,1,2,3,2,1,1,0,0,0,0,0,0,0,70,70,70,0,0,0,0,,,,,,,1095.2840599007905,None,1096.038850300014,None,1096.8360392004251,None,s,1,1.1027033999562263,1096.8360392004251,None,None,None,,,,,,,10,21,female,10,2022_May_06_1028,Partial repeat,2021.2.3,59.924877880121784,
7,1,0,1,2,3,2,1,1,0,0,0,0,0,0,0,70,70,70,1,0,1,0,,,,,,,,,1097.947842599824,None,1098.806477399543,None,l,1,0.9642207007855177,1098.806477399543,None,None,None,,,,,,,10,21,female,10,2022_May_06_1028,Partial repeat,2021.2.3,59.924877880121784,
7,1,0,1,2,3,2,1,1,0,0,0,0,0,0,0,70,70,70,,,,,,,,,,,,,,,,,,,,,,,,,,,,,,10,21,female,10,2022_May_06_1028,Partial repeat,2021.2.3,59.924877880121784,
5,2,0,1,2,3,1,2,1,0,0,0,0,0,0,0,71,71,71,0,0,0,0,,,,,,,1099.789166500792,None,1100.5142409000546,None,1101.277725899592,None,s,1,0.6772023998200893,1101.277725899592,None,None,None,,,,,,,10,21,female,10,2022_May_06_1028,Partial repeat,2021.2.3,59.924877880121784,
5,2,0,1,2,3,1,2,1,0,0,0,0,0,0,0,71,71,71,1,0,1,0,,,,,,,,,1101.9642508011311,None,1102.6972691006958,None,l,1,1.1134700011461973,1102.6972691006958,None,None,None,,,,,,,10,21,female,10,2022_May_06_1028,Partial repeat,2021.2.3,59.924877880121784,
5,2,0,1,2,3,1,2,1,0,0,0,0,0,0,0,71,71,71,,,,,,,,,,,,,,,,,,,,,,,,,,,,,,10,21,female,10,2022_May_06_1028,Partial repeat,2021.2.3,59.924877880121784,
3,5,0,1,3,2,2,1,1,1,0,0,1,0,0,0,72,72,72,0,0,0,0,,,,,,,1103.8328147009015,None,1105.4405177999288,None,1106.2212592996657,None,s,1,0.7014357000589371,1106.2212592996657,None,None,None,,,,,,,10,21,female,10,2022_May_06_1028,Partial repeat,2021.2.3,59.924877880121784,
3,5,0,1,3,2,2,1,1,1,0,0,1,0,0,0,72,72,72,1,0,1,0,,,,,,,,,1106.9488121997565,None,1107.7402471005917,None,s,1,0.6945698000490665,1107.7402471005917,None,None,None,,,,,,,10,21,female,10,2022_May_06_1028,Partial repeat,2021.2.3,59.924877880121784,
3,5,0,1,3,2,2,1,1,1,0,0,1,0,0,0,72,72,72,,,,,,,,,,,,,,,,,,,,,,,,,,,,,,10,21,female,10,2022_May_06_1028,Partial repeat,2021.2.3,59.924877880121784,
5,6,0,1,3,2,2,2,1,1,0,1,1,0,0,0,73,73,73,0,0,0,0,,,,,,,1108.4489606004208,None,1110.26655360125,None,1111.1804173011333,None,s,1,0.5903139989823103,1111.1804173011333,None,None,None,,,,,,,10,21,female,10,2022_May_06_1028,Partial repeat,2021.2.3,59.924877880121784,
5,6,0,1,3,2,2,2,1,1,0,1,1,0,0,0,73,73,73,1,0,1,0,,,,,,,,,1111.7835609000176,None,1112.767591400072,None,s,1,0.6031045001000166,1112.767591400072,None,None,None,,,,,,,10,21,female,10,2022_May_06_1028,Partial repeat,2021.2.3,59.924877880121784,
5,6,0,1,3,2,2,2,1,1,0,1,1,0,0,0,73,73,73,,,,,,,,,,,,,,,,,,,,,,,,,,,,,,10,21,female,10,2022_May_06_1028,Partial repeat,2021.2.3,59.924877880121784,
6,2,0,1,3,2,1,2,0,0,0,0,1,0,0,0,74,74,74,0,0,0,0,,,,,,,1113.3911480009556,None,1115.6103105004877,None,1116.5908359009773,None,l,1,1.4999112989753485,1116.5908359009773,None,None,None,,,,,,,10,21,female,10,2022_May_06_1028,Partial repeat,2021.2.3,59.924877880121784,
6,2,0,1,3,2,1,2,0,0,0,0,1,0,0,0,74,74,74,1,0,1,0,,,,,,,,,1118.1183748003095,None,1118.8955410011113,None,l,1,0.6192371007055044,1118.8955410011113,None,None,None,,,,,,,10,21,female,10,2022_May_06_1028,Partial repeat,2021.2.3,59.924877880121784,
6,2,0,1,3,2,1,2,0,0,0,0,1,0,0,0,74,74,74,,,,,,,,,,,,,,,,,,,,,,,,,,,,,,10,21,female,10,2022_May_06_1028,Partial repeat,2021.2.3,59.924877880121784,
6,1,0,1,2,3,2,1,1,1,0,0,1,0,0,0,75,75,75,0,0,0,0,,,,,,,1119.5442390013486,None,1120.302752399817,None,1121.283835399896,None,s,1,0.8228922002017498,1121.283835399896,None,None,None,,,,,,,10,21,female,10,2022_May_06_1028,Partial repeat,2021.2.3,59.924877880121784,
6,1,0,1,2,3,2,1,1,1,0,0,1,0,0,0,75,75,75,1,0,1,0,,,,,,,,,1122.130791200325,None,1123.0706984996796,None,s,1,0.8120274990797043,1123.0706984996796,None,None,None,,,,,,,10,21,female,10,2022_May_06_1028,Partial repeat,2021.2.3,59.924877880121784,
6,1,0,1,2,3,2,1,1,1,0,0,1,0,0,0,75,75,75,,,,,,,,,,,,,,,,,,,,,,,,,,,,,,10,21,female,10,2022_May_06_1028,Partial repeat,2021.2.3,59.924877880121784,
6,4,0,1,3,2,1,1,0,1,0,1,0,0,0,0,76,76,76,0,0,0,0,,,,,,,1123.9092009998858,None,1124.4441251996905,None,1125.4246792998165,None,l,1,0.7220328003168106,1125.4246792998165,None,None,None,,,,,,,10,21,female,10,2022_May_06_1028,Partial repeat,2021.2.3,59.924877880121784,
6,4,0,1,3,2,1,1,0,1,0,1,0,0,0,0,76,76,76,1,0,1,0,,,,,,,,,1126.1647842004895,None,1127.1114751007408,None,s,1,0.6432815995067358,1127.1114751007408,None,None,None,,,,,,,10,21,female,10,2022_May_06_1028,Partial repeat,2021.2.3,59.924877880121784,
6,4,0,1,3,2,1,1,0,1,0,1,0,0,0,0,76,76,76,,,,,,,,,,,,,,,,,,,,,,,,,,,,,,10,21,female,10,2022_May_06_1028,Partial repeat,2021.2.3,59.924877880121784,
8,4,0,1,2,2,1,1,0,1,1,1,0,0,0,0,77,77,77,0,0,0,0,,,,,,,1127.7758010011166,None,1128.8361480999738,None,1129.7501063011587,None,l,1,0.8126362003386021,1129.7501063011587,None,None,None,,,,,,,10,21,female,10,2022_May_06_1028,Partial repeat,2021.2.3,59.924877880121784,
8,4,0,1,2,2,1,1,0,1,1,1,0,0,0,0,77,77,77,1,0,1,0,,,,,,,,,1130.5846720002592,None,1131.52000920102,None,s,1,0.7147784996777773,1131.52000920102,None,None,None,,,,,,,10,21,female,10,2022_May_06_1028,Partial repeat,2021.2.3,59.924877880121784,
8,4,0,1,2,2,1,1,0,1,1,1,0,0,0,0,77,77,77,,,,,,,,,,,,,,,,,,,,,,,,,,,,,,10,21,female,10,2022_May_06_1028,Partial repeat,2021.2.3,59.924877880121784,
1,7,0,1,3,2,2,1,0,1,0,0,0,0,0,0,78,78,78,0,0,0,0,,,,,,,1132.2523935995996,None,1132.944031700492,None,1133.8078253008425,None,l,1,0.5149259995669127,1133.8078253008425,None,None,None,,,,,,,10,21,female,10,2022_May_06_1028,Partial repeat,2021.2.3,59.924877880121784,
1,7,0,1,3,2,2,1,0,1,0,0,0,0,0,0,78,78,78,1,0,1,0,,,,,,,,,1134.344486599788,None,1135.360622599721,None,s,1,1.162109101191163,1135.360622599721,None,None,None,,,,,,,10,21,female,10,2022_May_06_1028,Partial repeat,2021.2.3,59.924877880121784,
1,7,0,1,3,2,2,1,0,1,0,0,0,0,0,0,78,78,78,,,,,,,,,,,,,,,,,,,,,,,,,,,,,,10,21,female,10,2022_May_06_1028,Partial repeat,2021.2.3,59.924877880121784,
7,7,0,1,2,3,2,2,0,1,0,1,0,0,0,0,79,79,79,0,0,0,0,,,,,,,1136.5460270997137,None,1137.4026552010328,None,1138.2843648996204,None,l,1,0.8063648007810116,1138.2843648996204,None,None,None,,,,,,,10,21,female,10,2022_May_06_1028,Partial repeat,2021.2.3,59.924877880121784,
7,7,0,1,2,3,2,2,0,1,0,1,0,0,0,0,79,79,79,1,0,1,0,,,,,,,,,1139.1147386003286,None,1139.9028684999794,None,s,1,0.6678622011095285,1139.9028684999794,None,None,None,,,,,,,10,21,female,10,2022_May_06_1028,Partial repeat,2021.2.3,59.924877880121784,
7,7,0,1,2,3,2,2,0,1,0,1,0,0,0,0,79,79,79,,,,,,,,,,,,,,,,,,,,,,,,,,,,,,10,21,female,10,2022_May_06_1028,Partial repeat,2021.2.3,59.924877880121784,
1,6,0,1,3,2,1,2,1,1,0,0,1,0,0,0,80,80,80,0,0,0,0,,,,,,,1140.5909922011197,None,1142.328957401216,None,1143.0757465008646,None,s,1,0.7429965995252132,1143.0757465008646,None,None,None,,,,,,,10,21,female,10,2022_May_06_1028,Partial repeat,2021.2.3,59.924877880121784,
1,6,0,1,3,2,1,2,1,1,0,0,1,0,0,0,80,80,80,1,0,1,0,,,,,,,,,1143.841469699517,None,1144.8292389009148,None,s,1,0.5414881985634565,1144.8292389009148,None,None,None,,,,,,,10,21,female,10,2022_May_06_1028,Partial repeat,2021.2.3,59.924877880121784,
1,6,0,1,3,2,1,2,1,1,0,0,1,0,0,0,80,80,80,,,,,,,,,,,,,,,,,,,,,,,,,,,,,,10,21,female,10,2022_May_06_1028,Partial repeat,2021.2.3,59.924877880121784,
7,8,0,1,2,2,2,1,0,0,1,0,1,0,0,0,81,81,81,0,0,0,0,,,,,,,1145.3934017010033,None,1146.4703179001808,None,1147.4340864010155,None,l,1,0.6166462004184723,1147.4340864010155,None,None,None,,,,,,,10,21,female,10,2022_May_06_1028,Partial repeat,2021.2.3,59.924877880121784,
7,8,0,1,2,2,2,1,0,0,1,0,1,0,0,0,81,81,81,1,0,1,0,,,,,,,,,1148.0769919008017,None,1148.954085899517,None,l,1,0.7206851989030838,1148.954085899517,None,None,None,,,,,,,10,21,female,10,2022_May_06_1028,Partial repeat,2021.2.3,59.924877880121784,
7,8,0,1,2,2,2,1,0,0,1,0,1,0,0,0,81,81,81,,,,,,,,,,,,,,,,,,,,,,,,,,,,,,10,21,female,10,2022_May_06_1028,Partial repeat,2021.2.3,59.924877880121784,
4,4,0,1,3,2,1,2,1,0,0,0,0,0,0,0,82,82,82,0,0,0,0,,,,,,,1149.686623301357,None,1151.5468209013343,None,1152.3771177008748,None,s,1,0.7616118993610144,1152.3771177008748,None,None,None,,,,,,,10,21,female,10,2022_May_06_1028,Partial repeat,2021.2.3,59.924877880121784,
4,4,0,1,3,2,1,2,1,0,0,0,0,0,0,0,82,82,82,1,0,1,0,,,,,,,,,1153.1638437006623,None,1153.9638653006405,None,l,1,0.7988600004464388,1153.9638653006405,None,None,None,,,,,,,10,21,female,10,2022_May_06_1028,Partial repeat,2021.2.3,59.924877880121784,
4,4,0,1,3,2,1,2,1,0,0,0,0,0,0,0,82,82,82,,,,,,,,,,,,,,,,,,,,,,,,,,,,,,10,21,female,10,2022_May_06_1028,Partial repeat,2021.2.3,59.924877880121784,
7,6,0,1,3,3,2,2,0,0,1,1,1,0,0,0,83,83,83,0,0,0,0,,,,,,,1154.7796967998147,None,1156.4397385008633,None,1157.2866329010576,None,l,1,1.0921682007610798,1157.2866329010576,None,None,None,,,,,,,10,21,female,10,2022_May_06_1028,Partial repeat,2021.2.3,59.924877880121784,
7,6,0,1,3,3,2,2,0,0,1,1,1,0,0,0,83,83,83,1,0,1,0,,,,,,,,,1158.3891187999398,None,1159.2411985006183,None,l,1,0.5615037009119987,1159.2411985006183,None,None,None,,,,,,,10,21,female,10,2022_May_06_1028,Partial repeat,2021.2.3,59.924877880121784,
7,6,0,1,3,3,2,2,0,0,1,1,1,0,0,0,83,83,83,,,,,,,,,,,,,,,,,,,,,,,,,,,,,,10,21,female,10,2022_May_06_1028,Partial repeat,2021.2.3,59.924877880121784,
2,5,0,1,2,2,2,1,0,1,1,0,0,0,0,0,84,84,84,0,0,0,0,,,,,,,1159.821727000177,None,1161.4995268005878,None,1162.4637120012194,None,l,1,0.7550067994743586,1162.4637120012194,None,None,None,,,,,,,10,21,female,10,2022_May_06_1028,Partial repeat,2021.2.3,59.924877880121784,
2,5,0,1,2,2,2,1,0,1,1,0,0,0,0,0,84,84,84,1,0,1,0,,,,,,,,,1163.2430550996214,None,1164.233736300841,None,s,1,0.6730431001633406,1164.233736300841,None,None,None,,,,,,,10,21,female,10,2022_May_06_1028,Partial repeat,2021.2.3,59.924877880121784,
2,5,0,1,2,2,2,1,0,1,1,0,0,0,0,0,84,84,84,,,,,,,,,,,,,,,,,,,,,,,,,,,,,,10,21,female,10,2022_May_06_1028,Partial repeat,2021.2.3,59.924877880121784,
8,7,0,1,3,3,2,2,0,1,1,1,0,0,0,0,85,85,85,0,0,0,0,,,,,,,1164.9189884997904,None,1165.6409831009805,None,1166.5884333010763,None,l,1,0.7262768987566233,1166.5884333010763,None,None,None,,,,,,,10,21,female,10,2022_May_06_1028,Partial repeat,2021.2.3,59.924877880121784,
8,7,0,1,3,3,2,2,0,1,1,1,0,0,0,0,85,85,85,1,0,1,0,,,,,,,,,1167.333695501089,None,1168.2423733007163,None,s,1,1.1043336000293493,1168.2423733007163,None,None,None,,,,,,,10,21,female,10,2022_May_06_1028,Partial repeat,2021.2.3,59.924877880121784,
8,7,0,1,3,3,2,2,0,1,1,1,0,0,0,0,85,85,85,,,,,,,,,,,,,,,,,,,,,,,,,,,,,,10,21,female,10,2022_May_06_1028,Partial repeat,2021.2.3,59.924877880121784,
7,3,0,1,2,2,1,2,1,0,1,0,0,0,0,0,86,86,86,0,0,0,0,,,,,,,1169.357231700793,None,1170.0996596012264,None,1170.9304032996297,None,s,1,0.5523305013775826,1170.9304032996297,None,None,None,,,,,,,10,21,female,10,2022_May_06_1028,Partial repeat,2021.2.3,59.924877880121784,
7,3,0,1,2,2,1,2,1,0,1,0,0,0,0,0,86,86,86,1,0,1,0,,,,,,,,,1171.5082382000983,None,1172.4343986008316,None,l,1,0.8082895986735821,1172.4343986008316,None,None,None,,,,,,,10,21,female,10,2022_May_06_1028,Partial repeat,2021.2.3,59.924877880121784,
7,3,0,1,2,2,1,2,1,0,1,0,0,0,0,0,86,86,86,,,,,,,,,,,,,,,,,,,,,,,,,,,,,,10,21,female,10,2022_May_06_1028,Partial repeat,2021.2.3,59.924877880121784,
1,5,0,1,2,3,1,2,0,1,0,0,0,0,0,0,87,87,87,0,0,0,0,,,,,,,1173.2701380010694,None,1175.627078000456,None,1176.4739619996399,None,l,1,1.1607579998672009,1176.4739619996399,None,None,None,,,,,,,10,21,female,10,2022_May_06_1028,Partial repeat,2021.2.3,59.924877880121784,
1,5,0,1,2,3,1,2,0,1,0,0,0,0,0,0,87,87,87,1,0,1,0,,,,,,,,,1177.6596264000982,None,1178.3946727011353,None,s,1,0.6401538997888565,1178.3946727011353,None,None,None,,,,,,,10,21,female,10,2022_May_06_1028,Partial repeat,2021.2.3,59.924877880121784,
1,5,0,1,2,3,1,2,0,1,0,0,0,0,0,0,87,87,87,,,,,,,,,,,,,,,,,,,,,,,,,,,,,,10,21,female,10,2022_May_06_1028,Partial repeat,2021.2.3,59.924877880121784,
5,5,0,1,2,3,2,2,1,1,0,1,1,0,0,0,88,88,88,0,0,0,0,,,,,,,1179.0642549004406,None,1180.9373854007572,None,1181.8011895008385,None,s,1,0.7055942006409168,1181.8011895008385,None,None,None,,,,,,,10,21,female,10,2022_May_06_1028,Partial repeat,2021.2.3,59.924877880121784,
5,5,0,1,2,3,2,2,1,1,0,1,1,0,0,0,88,88,88,1,0,1,0,,,,,,,,,1182.5204721000046,None,1183.5379553008825,None,s,1,0.5048289000988007,1183.5379553008825,None,None,None,,,,,,,10,21,female,10,2022_May_06_1028,Partial repeat,2021.2.3,59.924877880121784,
5,5,0,1,2,3,2,2,1,1,0,1,1,0,0,0,88,88,88,,,,,,,,,,,,,,,,,,,,,,,,,,,,,,10,21,female,10,2022_May_06_1028,Partial repeat,2021.2.3,59.924877880121784,
2,2,0,1,3,3,2,1,0,1,1,0,0,0,0,0,89,89,89,0,0,0,0,,,,,,,1184.0566828995943,None,1185.9972133003175,None,1186.9447456002235,None,l,1,0.7220922987908125,1186.9447456002235,None,None,None,,,,,,,10,21,female,10,2022_May_06_1028,Partial repeat,2021.2.3,59.924877880121784,
2,2,0,1,3,3,2,1,0,1,1,0,0,0,0,0,89,89,89,1,0,1,0,,,,,,,,,1187.6746137011796,None,1188.5144044999033,None,s,1,0.8403245005756617,1188.5144044999033,None,None,None,,,,,,,10,21,female,10,2022_May_06_1028,Partial repeat,2021.2.3,59.924877880121784,
2,2,0,1,3,3,2,1,0,1,1,0,0,0,0,0,89,89,89,,,,,,,,,,,,,,,,,,,,,,,,,,,,,,10,21,female,10,2022_May_06_1028,Partial repeat,2021.2.3,59.924877880121784,
3,7,0,1,3,3,1,1,0,1,1,1,0,0,0,0,90,90,90,0,0,0,0,,,,,,,1189.3754781000316,None,1190.1719988007098,None,1190.9356679003686,None,l,1,0.9230578988790512,1190.9356679003686,None,None,None,,,,,,,10,21,female,10,2022_May_06_1028,Partial repeat,2021.2.3,59.924877880121784,
3,7,0,1,3,3,1,1,0,1,1,1,0,0,0,0,90,90,90,1,0,1,0,,,,,,,,,1191.8722334001213,None,1192.78931960091,None,s,1,0.9814766999334097,1192.78931960091,None,None,None,,,,,,,10,21,female,10,2022_May_06_1028,Partial repeat,2021.2.3,59.924877880121784,
3,7,0,1,3,3,1,1,0,1,1,1,0,0,0,0,90,90,90,,,,,,,,,,,,,,,,,,,,,,,,,,,,,,10,21,female,10,2022_May_06_1028,Partial repeat,2021.2.3,59.924877880121784,
4,2,0,1,3,2,2,1,0,0,0,0,1,0,0,0,91,91,91,0,0,0,0,,,,,,,1193.8008728008717,None,1194.4804311003536,None,1195.2612804006785,None,l,1,0.7894429992884398,1195.2612804006785,None,None,None,,,,,,,10,21,female,10,2022_May_06_1028,Partial repeat,2021.2.3,59.924877880121784,
4,2,0,1,3,2,2,1,0,0,0,0,1,0,0,0,91,91,91,1,0,1,0,,,,,,,,,1196.0722505003214,None,1196.7969252001494,None,l,1,0.5978622995316982,1196.7969252001494,None,None,None,,,,,,,10,21,female,10,2022_May_06_1028,Partial repeat,2021.2.3,59.924877880121784,
4,2,0,1,3,2,2,1,0,0,0,0,1,0,0,0,91,91,91,,,,,,,,,,,,,,,,,,,,,,,,,,,,,,10,21,female,10,2022_May_06_1028,Partial repeat,2021.2.3,59.924877880121784,
3,3,0,1,3,3,1,2,0,0,1,0,1,0,0,0,92,92,92,0,0,0,0,,,,,,,1197.4261339008808,None,1198.4714836012572,None,1199.3187082000077,None,l,1,1.4200100004673004,1199.3187082000077,None,None,None,,,,,,,10,21,female,10,2022_May_06_1028,Partial repeat,2021.2.3,59.924877880121784,
3,3,0,1,3,3,1,2,0,0,1,0,1,0,0,0,92,92,92,1,0,1,0,,,,,,,,,1200.7596263010055,None,1201.5895034000278,None,l,1,0.5892255008220673,1201.5895034000278,None,None,None,,,,,,,10,21,female,10,2022_May_06_1028,Partial repeat,2021.2.3,59.924877880121784,
3,3,0,1,3,3,1,2,0,0,1,0,1,0,0,0,92,92,92,,,,,,,,,,,,,,,,,,,,,,,,,,,,,,10,21,female,10,2022_May_06_1028,Partial repeat,2021.2.3,59.924877880121784,
4,1,0,1,3,3,1,2,1,0,1,0,0,0,0,0,93,93,93,0,0,0,0,,,,,,,1202.1941822003573,None,1203.013680100441,None,1203.9942020997405,None,s,1,1.1925204005092382,1203.9942020997405,None,None,None,,,,,,,10,21,female,10,2022_May_06_1028,Partial repeat,2021.2.3,59.924877880121784,
4,1,0,1,3,3,1,2,1,0,1,0,0,0,0,0,93,93,93,1,0,1,0,,,,,,,,,1205.2033696006984,None,1205.9650593996048,None,l,1,0.9176665991544724,1205.9650593996048,None,None,None,,,,,,,10,21,female,10,2022_May_06_1028,Partial repeat,2021.2.3,59.924877880121784,
4,1,0,1,3,3,1,2,1,0,1,0,0,0,0,0,93,93,93,,,,,,,,,,,,,,,,,,,,,,,,,,,,,,10,21,female,10,2022_May_06_1028,Partial repeat,2021.2.3,59.924877880121784,
2,1,0,1,2,2,2,1,1,1,1,0,1,0,0,0,94,94,94,0,0,0,0,,,,,,,1206.908601500094,None,1207.505765400827,None,1208.519980199635,None,s,1,1.01873330026865,1208.519980199635,None,None,None,,,,,,,10,21,female,10,2022_May_06_1028,Partial repeat,2021.2.3,59.924877880121784,
2,1,0,1,2,2,2,1,1,1,1,0,1,0,0,0,94,94,94,1,0,1,0,,,,,,,,,1209.5644097011536,None,1210.5235452000052,None,s,1,0.583177600055933,1210.5235452000052,None,None,None,,,,,,,10,21,female,10,2022_May_06_1028,Partial repeat,2021.2.3,59.924877880121784,
2,1,0,1,2,2,2,1,1,1,1,0,1,0,0,0,94,94,94,,,,,,,,,,,,,,,,,,,,,,,,,,,,,,10,21,female,10,2022_May_06_1028,Partial repeat,2021.2.3,59.924877880121784,
6,8,0,1,3,3,2,2,1,0,1,1,0,0,0,0,95,95,95,0,0,0,0,,,,,,,1211.1278681010008,None,1212.1815406996757,None,1213.02843850106,None,s,1,0.5742818005383015,1213.02843850106,None,None,None,,,,,,,10,21,female,10,2022_May_06_1028,Partial repeat,2021.2.3,59.924877880121784,
6,8,0,1,3,3,2,2,1,0,1,1,0,0,0,0,95,95,95,1,0,1,0,,,,,,,,,1213.6244249995798,None,1214.5149541012943,None,l,1,0.6798082999885082,1214.5149541012943,None,None,None,,,,,,,10,21,female,10,2022_May_06_1028,Partial repeat,2021.2.3,59.924877880121784,
6,8,0,1,3,3,2,2,1,0,1,1,0,0,0,0,95,95,95,,,,,,,,,,,,,,,,,,,,,,,,,,,,,,10,21,female,10,2022_May_06_1028,Partial repeat,2021.2.3,59.924877880121784,
2,4,0,1,3,2,1,1,1,1,0,1,1,0,0,0,96,96,96,0,0,0,0,,,,,,,1215.224282199517,None,1215.9888541009277,None,1216.7693838998675,None,l,0,0.929331099614501,1216.7693838998675,None,1217.711330300197,None,,,,,,,10,21,female,10,2022_May_06_1028,Partial repeat,2021.2.3,59.924877880121784,
2,4,0,1,3,2,1,1,1,1,0,1,1,0,0,0,96,96,96,1,0,1,0,,,,,,,,,1218.2265687007457,None,1219.2239925004542,None,s,1,0.5387264005839825,1219.2239925004542,None,None,None,,,,,,,10,21,female,10,2022_May_06_1028,Partial repeat,2021.2.3,59.924877880121784,
2,4,0,1,3,2,1,1,1,1,0,1,1,0,0,0,96,96,96,,,,,,,,,,,,,,,,,,,,,,,,,,,,,,10,21,female,10,2022_May_06_1028,Partial repeat,2021.2.3,59.924877880121784,
3,8,0,1,2,2,1,2,0,0,1,0,1,0,0,0,97,97,97,0,0,0,0,,,,,,,1219.7852424997836,None,1221.6498460005969,None,1222.4803433995694,None,l,1,0.6664508003741503,1222.4803433995694,None,None,None,,,,,,,10,21,female,10,2022_May_06_1028,Partial repeat,2021.2.3,59.924877880121784,
3,8,0,1,2,2,1,2,0,0,1,0,1,0,0,0,97,97,97,1,0,1,0,,,,,,,,,1223.1606655996293,None,1224.0508770998567,None,l,1,0.9038475006818771,1224.0508770998567,None,None,None,,,,,,,10,21,female,10,2022_May_06_1028,Partial repeat,2021.2.3,59.924877880121784,
3,8,0,1,2,2,1,2,0,0,1,0,1,0,0,0,97,97,97,,,,,,,,,,,,,,,,,,,,,,,,,,,,,,10,21,female,10,2022_May_06_1028,Partial repeat,2021.2.3,59.924877880121784,
5,7,0,1,2,2,2,2,0,0,1,1,1,0,0,0,98,98,98,0,0,0,0,,,,,,,1224.9775361996144,None,1228.797175200656,None,1229.7785644996911,None,s,0,0.50430559925735,1229.7785644996911,None,1230.2929561007768,None,,,,,,,10,21,female,10,2022_May_06_1028,Partial repeat,2021.2.3,59.924877880121784,
5,7,0,1,2,2,2,2,0,0,1,1,1,0,0,0,98,98,98,1,0,1,0,,,,,,,,,1230.80108669959,None,1231.7503919005394,None,l,1,0.6923111006617546,1231.7503919005394,None,None,None,,,,,,,10,21,female,10,2022_May_06_1028,Partial repeat,2021.2.3,59.924877880121784,
5,7,0,1,2,2,2,2,0,0,1,1,1,0,0,0,98,98,98,,,,,,,,,,,,,,,,,,,,,,,,,,,,,,10,21,female,10,2022_May_06_1028,Partial repeat,2021.2.3,59.924877880121784,
6,5,0,1,3,3,2,2,1,1,1,1,1,0,0,0,99,99,99,0,0,0,0,,,,,,,1232.4706878997386,None,1233.472912101075,None,1234.2535420004278,None,s,1,0.7972525991499424,1234.2535420004278,None,None,None,,,,,,,10,21,female,10,2022_May_06_1028,Partial repeat,2021.2.3,59.924877880121784,
6,5,0,1,3,3,2,2,1,1,1,1,1,0,0,0,99,99,99,1,0,1,0,,,,,,,,,1235.0602227002382,None,1235.9902455005795,None,s,1,0.5564770009368658,1235.9902455005795,None,None,None,,,,,,,10,21,female,10,2022_May_06_1028,Partial repeat,2021.2.3,59.924877880121784,
6,5,0,1,3,3,2,2,1,1,1,1,1,0,0,0,99,99,99,,,,,,,,,,,,,,,,,,,,,,,,,,,,,,10,21,female,10,2022_May_06_1028,Partial repeat,2021.2.3,59.924877880121784,
1,4,0,1,2,3,2,1,0,1,0,0,0,0,0,0,100,100,100,0,0,0,0,,,,,,,1236.572793500498,None,1238.2822973001748,None,1239.2631291002035,None,l,1,0.5395837016403675,1239.2631291002035,None,None,None,,,,,,,10,21,female,10,2022_May_06_1028,Partial repeat,2021.2.3,59.924877880121784,
1,4,0,1,2,3,2,1,0,1,0,0,0,0,0,0,100,100,100,1,0,1,0,,,,,,,,,1239.8191465996206,None,1240.6658766996115,None,s,1,0.8888603001832962,1240.6658766996115,None,None,None,,,,,,,10,21,female,10,2022_May_06_1028,Partial repeat,2021.2.3,59.924877880121784,
1,4,0,1,2,3,2,1,0,1,0,0,0,0,0,0,100,100,100,,,,,,,,,,,,,,,,,,,,,,,,,,,,,,10,21,female,10,2022_May_06_1028,Partial repeat,2021.2.3,59.924877880121784,
6,7,0,1,3,3,1,1,1,1,1,1,1,0,0,0,101,101,101,0,0,0,0,,,,,,,1241.5653828997165,None,1243.2920182999223,None,1244.2725897002965,None,s,1,0.6021337993443012,1244.2725897002965,None,None,None,,,,,,,10,21,female,10,2022_May_06_1028,Partial repeat,2021.2.3,59.924877880121784,
6,7,0,1,3,3,1,1,1,1,1,1,1,0,0,0,101,101,101,1,0,1,0,,,,,,,,,1244.8931818008423,None,1245.859143100679,None,s,1,0.9596267994493246,1245.859143100679,None,None,None,,,,,,,10,21,female,10,2022_May_06_1028,Partial repeat,2021.2.3,59.924877880121784,
6,7,0,1,3,3,1,1,1,1,1,1,1,0,0,0,101,101,101,,,,,,,,,,,,,,,,,,,,,,,,,,,,,,10,21,female,10,2022_May_06_1028,Partial repeat,2021.2.3,59.924877880121784,
8,2,0,1,3,3,1,2,1,1,1,0,1,0,0,0,102,102,102,0,0,0,0,,,,,,,1246.8318562004715,None,1248.7860515005887,None,1249.7336095012724,None,s,1,0.7971312999725342,1249.7336095012724,None,None,None,,,,,,,10,21,female,10,2022_May_06_1028,Partial repeat,2021.2.3,59.924877880121784,
8,2,0,1,3,3,1,2,1,1,1,0,1,0,0,0,102,102,102,1,0,1,0,,,,,,,,,1250.5433156006038,None,1251.503374600783,None,s,1,0.5552970003336668,1251.503374600783,None,None,None,,,,,,,10,21,female,10,2022_May_06_1028,Partial repeat,2021.2.3,59.924877880121784,
8,2,0,1,3,3,1,2,1,1,1,0,1,0,0,0,102,102,102,,,,,,,,,,,,,,,,,,,,,,,,,,,,,,10,21,female,10,2022_May_06_1028,Partial repeat,2021.2.3,59.924877880121784,
4,7,0,1,3,2,2,2,0,1,0,1,0,0,0,0,103,103,103,0,0,0,0,,,,,,,1252.0874646995217,None,1254.2800959013402,None,1255.0105872005224,None,l,1,0.6881162002682686,1255.0105872005224,None,None,None,,,,,,,10,21,female,10,2022_May_06_1028,Partial repeat,2021.2.3,59.924877880121784,
4,7,0,1,3,2,2,2,0,1,0,1,0,0,0,0,103,103,103,1,0,1,0,,,,,,,,,1255.7144127003849,None,1256.5468560997397,None,s,1,0.703830499202013,1256.5468560997397,None,None,None,,,,,,,10,21,female,10,2022_May_06_1028,Partial repeat,2021.2.3,59.924877880121784,
4,7,0,1,3,2,2,2,0,1,0,1,0,0,0,0,103,103,103,,,,,,,,,,,,,,,,,,,,,,,,,,,,,,10,21,female,10,2022_May_06_1028,Partial repeat,2021.2.3,59.924877880121784,
5,1,0,1,2,3,2,1,0,0,0,0,1,0,0,0,104,104,104,0,0,0,0,,,,,,,1257.2788960002363,None,1259.7239315006882,None,1260.6212383005768,None,l,1,0.8534746002405882,1260.6212383005768,None,None,None,,,,,,,10,21,female,10,2022_May_06_1028,Partial repeat,2021.2.3,59.924877880121784,
5,1,0,1,2,3,2,1,0,0,0,0,1,0,0,0,104,104,104,1,0,1,0,,,,,,,,,1261.494191199541,None,1262.508156100288,None,l,1,0.6465929001569748,1262.508156100288,None,None,None,,,,,,,10,21,female,10,2022_May_06_1028,Partial repeat,2021.2.3,59.924877880121784,
5,1,0,1,2,3,2,1,0,0,0,0,1,0,0,0,104,104,104,,,,,,,,,,,,,,,,,,,,,,,,,,,,,,10,21,female,10,2022_May_06_1028,Partial repeat,2021.2.3,59.924877880121784,
3,4,0,1,2,2,2,2,1,1,1,1,1,0,0,0,105,105,105,0,0,0,0,,,,,,,1263.1756031997502,None,1265.0175701007247,None,1265.9983453005552,None,s,1,0.6843673996627331,1265.9983453005552,None,None,None,,,,,,,10,21,female,10,2022_May_06_1028,Partial repeat,2021.2.3,59.924877880121784,
3,4,0,1,2,2,2,2,1,1,1,1,1,0,0,0,105,105,105,1,0,1,0,,,,,,,,,1266.698412699625,None,1267.4345615003258,None,s,1,0.5681149996817112,1267.4345615003258,None,None,None,,,,,,,10,21,female,10,2022_May_06_1028,Partial repeat,2021.2.3,59.924877880121784,
3,4,0,1,2,2,2,2,1,1,1,1,1,0,0,0,105,105,105,,,,,,,,,,,,,,,,,,,,,,,,,,,,,,10,21,female,10,2022_May_06_1028,Partial repeat,2021.2.3,59.924877880121784,
4,3,0,1,2,3,2,2,0,0,0,1,1,0,0,0,106,106,106,0,0,0,0,,,,,,,1268.020315401256,None,1270.1777194011956,None,1270.9414943009615,None,l,1,0.9652213994413614,1270.9414943009615,None,None,None,,,,,,,10,21,female,10,2022_May_06_1028,Partial repeat,2021.2.3,59.924877880121784,
4,3,0,1,2,3,2,2,0,0,0,1,1,0,0,0,106,106,106,1,0,1,0,,,,,,,,,1271.9282577000558,None,1272.6447061002254,None,l,1,0.6220038998872042,1272.6447061002254,None,None,None,,,,,,,10,21,female,10,2022_May_06_1028,Partial repeat,2021.2.3,59.924877880121784,
4,3,0,1,2,3,2,2,0,0,0,1,1,0,0,0,106,106,106,,,,,,,,,,,,,,,,,,,,,,,,,,,,,,10,21,female,10,2022_May_06_1028,Partial repeat,2021.2.3,59.924877880121784,
8,5,0,1,2,2,2,2,0,1,1,1,0,0,0,0,107,107,107,0,0,0,0,,,,,,,1273.2910082004964,None,1277.0076733008027,None,1277.871416401118,None,l,1,0.7713286001235247,1277.871416401118,None,None,None,,,,,,,10,21,female,10,2022_May_06_1028,Partial repeat,2021.2.3,59.924877880121784,
8,5,0,1,2,2,2,2,0,1,1,1,0,0,0,0,107,107,107,1,0,1,0,,,,,,,,,1278.6632554009557,None,1279.4079375006258,None,s,1,0.650781000033021,1279.4079375006258,None,None,None,,,,,,,10,21,female,10,2022_May_06_1028,Partial repeat,2021.2.3,59.924877880121784,
8,5,0,1,2,2,2,2,0,1,1,1,0,0,0,0,107,107,107,,,,,,,,,,,,,,,,,,,,,,,,,,,,,,10,21,female,10,2022_May_06_1028,Partial repeat,2021.2.3,59.924877880121784,
1,8,0,1,2,3,1,2,0,0,0,0,1,0,0,0,108,108,108,0,0,0,0,,,,,,,1280.0830308012664,None,1281.983929000795,None,1282.8988688997924,None,l,1,0.5678415987640619,1282.8988688997924,None,None,None,,,,,,,10,21,female,10,2022_May_06_1028,Partial repeat,2021.2.3,59.924877880121784,
1,8,0,1,2,3,1,2,0,0,0,0,1,0,0,0,108,108,108,1,0,1,0,,,,,,,,,1283.4831555001438,None,1284.3009029999375,None,l,1,0.8778054993599653,1284.3009029999375,None,None,None,,,,,,,10,21,female,10,2022_May_06_1028,Partial repeat,2021.2.3,59.924877880121784,
1,8,0,1,2,3,1,2,0,0,0,0,1,0,0,0,108,108,108,,,,,,,,,,,,,,,,,,,,,,,,,,,,,,10,21,female,10,2022_May_06_1028,Partial repeat,2021.2.3,59.924877880121784,
4,6,0,1,3,3,1,1,0,0,1,1,1,0,0,0,109,109,109,0,0,0,0,,,,,,,1285.20397759974,None,1286.3925365004689,None,1287.3399769999087,None,l,1,1.2387386001646519,1287.3399769999087,None,None,None,,,,,,,10,21,female,10,2022_May_06_1028,Partial repeat,2021.2.3,59.924877880121784,
4,6,0,1,3,3,1,1,0,0,1,1,1,0,0,0,109,109,109,1,0,1,0,,,,,,,,,1288.5924083013088,None,1289.5442671999335,None,s,0,0.6984215006232262,1289.5442671999335,None,1290.2512995004654,None,,,,,,,10,21,female,10,2022_May_06_1028,Partial repeat,2021.2.3,59.924877880121784,
4,6,0,1,3,3,1,1,0,0,1,1,1,0,0,0,109,109,109,,,,,,,,,,,,,,,,,,,,,,,,,,,,,,10,21,female,10,2022_May_06_1028,Partial repeat,2021.2.3,59.924877880121784,
1,1,0,1,3,3,2,1,1,0,1,0,0,0,0,0,110,110,110,0,0,0,0,,,,,,,1290.7511321995407,None,1291.8031211998314,None,1292.5498756002635,None,s,1,0.8608304001390934,1292.5498756002635,None,None,None,,,,,,,10,21,female,10,2022_May_06_1028,Partial repeat,2021.2.3,59.924877880121784,
1,1,0,1,3,3,2,1,1,0,1,0,0,0,0,0,110,110,110,1,0,1,0,,,,,,,,,1293.4227712005377,None,1294.3870903998613,None,l,1,0.6315871011465788,1294.3870903998613,None,None,None,,,,,,,10,21,female,10,2022_May_06_1028,Partial repeat,2021.2.3,59.924877880121784,
1,1,0,1,3,3,2,1,1,0,1,0,0,0,0,0,110,110,110,,,,,,,,,,,,,,,,,,,,,,,,,,,,,,10,21,female,10,2022_May_06_1028,Partial repeat,2021.2.3,59.924877880121784,
5,3,0,1,2,2,2,1,1,0,1,0,0,0,0,0,111,111,111,0,0,0,0,,,,,,,1295.033281199634,None,1295.6772684995085,None,1296.6414831001312,None,s,1,0.6012258995324373,1296.6414831001312,None,None,None,,,,,,,10,21,female,10,2022_May_06_1028,Partial repeat,2021.2.3,59.924877880121784,
5,3,0,1,2,2,2,1,1,0,1,0,0,0,0,0,111,111,111,1,0,1,0,,,,,,,,,1297.2622820995748,None,1298.1608968004584,None,l,1,0.705817898735404,1298.1608968004584,None,None,None,,,,,,,10,21,female,10,2022_May_06_1028,Partial repeat,2021.2.3,59.924877880121784,
5,3,0,1,2,2,2,1,1,0,1,0,0,0,0,0,111,111,111,,,,,,,,,,,,,,,,,,,,,,,,,,,,,,10,21,female,10,2022_May_06_1028,Partial repeat,2021.2.3,59.924877880121784,
7,5,0,1,2,3,1,1,0,0,0,1,1,0,0,0,112,112,112,0,0,0,0,,,,,,,1298.8982044011354,None,1300.4532126002014,None,1301.400694200769,None,s,0,0.7460153996944427,1301.400694200769,None,1302.1654311995953,None,,,,,,,10,21,female,10,2022_May_06_1028,Partial repeat,2021.2.3,59.924877880121784,
7,5,0,1,2,3,1,1,0,0,0,1,1,0,0,0,112,112,112,1,0,1,0,,,,,,,,,1302.6743211001158,None,1303.40420650132,None,l,1,0.9505464006215334,1303.40420650132,None,None,None,,,,,,,10,21,female,10,2022_May_06_1028,Partial repeat,2021.2.3,59.924877880121784,
7,5,0,1,2,3,1,1,0,0,0,1,1,0,0,0,112,112,112,,,,,,,,,,,,,,,,,,,,,,,,,,,,,,10,21,female,10,2022_May_06_1028,Partial repeat,2021.2.3,59.924877880121784,
7,2,0,1,3,3,2,1,1,1,1,0,1,0,0,0,113,113,113,0,0,0,0,,,,,,,1304.3649941999465,None,1305.0789372008294,None,1305.8427785001695,None,s,1,0.8879290986806154,1305.8427785001695,None,None,None,,,,,,,10,21,female,10,2022_May_06_1028,Partial repeat,2021.2.3,59.924877880121784,
7,2,0,1,3,3,2,1,1,1,1,0,1,0,0,0,113,113,113,1,0,1,0,,,,,,,,,1306.75681810081,None,1307.5961783006787,None,s,1,0.6225319001823664,1307.5961783006787,None,None,None,,,,,,,10,21,female,10,2022_May_06_1028,Partial repeat,2021.2.3,59.924877880121784,
7,2,0,1,3,3,2,1,1,1,1,0,1,0,0,0,113,113,113,,,,,,,,,,,,,,,,,,,,,,,,,,,,,,10,21,female,10,2022_May_06_1028,Partial repeat,2021.2.3,59.924877880121784,
6,3,0,1,3,2,1,1,0,0,0,1,1,0,0,0,114,114,114,0,0,0,0,,,,,,,1308.2413109000772,None,1309.0366313010454,None,1309.766658199951,None,s,0,0.6361609995365143,1309.766658199951,None,1310.4111401997507,None,,,,,,,10,21,female,10,2022_May_06_1028,Partial repeat,2021.2.3,59.924877880121784,
6,3,0,1,3,2,1,1,0,0,0,1,1,0,0,0,114,114,114,1,0,1,0,,,,,,,,,1310.923701999709,None,1311.7372471001,None,l,1,0.6894581001251936,1311.7372471001,None,None,None,,,,,,,10,21,female,10,2022_May_06_1028,Partial repeat,2021.2.3,59.924877880121784,
6,3,0,1,3,2,1,1,0,0,0,1,1,0,0,0,114,114,114,,,,,,,,,,,,,,,,,,,,,,,,,,,,,,10,21,female,10,2022_May_06_1028,Partial repeat,2021.2.3,59.924877880121784,
3,6,0,1,3,3,2,1,0,0,1,0,1,0,0,0,115,115,115,0,0,0,0,,,,,,,1312.4479549005628,None,1314.1131996009499,None,1314.9437138009816,None,l,1,1.1949918996542692,1314.9437138009816,None,None,None,,,,,,,10,21,female,10,2022_May_06_1028,Partial repeat,2021.2.3,59.924877880121784,
3,6,0,1,3,3,2,1,0,0,1,0,1,0,0,0,115,115,115,1,0,1,0,,,,,,,,,1316.165095301345,None,1317.0645026005805,None,s,0,0.8262274991720915,1317.0645026005805,None,1317.8994779996574,None,,,,,,,10,21,female,10,2022_May_06_1028,Partial repeat,2021.2.3,59.924877880121784,
3,6,0,1,3,3,2,1,0,0,1,0,1,0,0,0,115,115,115,,,,,,,,,,,,,,,,,,,,,,,,,,,,,,10,21,female,10,2022_May_06_1028,Partial repeat,2021.2.3,59.924877880121784,
3,2,0,1,2,2,1,2,0,1,1,0,0,0,0,0,116,116,116,0,0,0,0,,,,,,,1318.4049126002938,None,1320.2251000013202,None,1321.1225570011884,None,l,1,0.5681365989148617,1321.1225570011884,None,None,None,,,,,,,10,21,female,10,2022_May_06_1028,Partial repeat,2021.2.3,59.924877880121784,
3,2,0,1,2,2,1,2,0,1,1,0,0,0,0,0,116,116,116,1,0,1,0,,,,,,,,,1321.7038365006447,None,1322.6085387002677,None,l,0,0.4261499997228384,1322.6085387002677,None,1323.0588761009276,None,,,,,,,10,21,female,10,2022_May_06_1028,Partial repeat,2021.2.3,59.924877880121784,
3,2,0,1,2,2,1,2,0,1,1,0,0,0,0,0,116,116,116,,,,,,,,,,,,,,,,,,,,,,,,,,,,,,10,21,female,10,2022_May_06_1028,Partial repeat,2021.2.3,59.924877880121784,
5,4,0,1,2,3,1,1,0,1,0,1,0,0,0,0,117,117,117,0,0,0,0,,,,,,,1323.5649471003562,None,1324.3497011009604,None,1325.313590200618,None,l,1,0.7291053999215364,1325.313590200618,None,None,None,,,,,,,10,21,female,10,2022_May_06_1028,Partial repeat,2021.2.3,59.924877880121784,
5,4,0,1,2,3,1,1,0,1,0,1,0,0,0,0,117,117,117,1,0,1,0,,,,,,,,,1326.0639338996261,None,1326.8837387003005,None,s,1,0.6150336004793644,1326.8837387003005,None,None,None,,,,,,,10,21,female,10,2022_May_06_1028,Partial repeat,2021.2.3,59.924877880121784,
5,4,0,1,2,3,1,1,0,1,0,1,0,0,0,0,117,117,117,,,,,,,,,,,,,,,,,,,,,,,,,,,,,,10,21,female,10,2022_May_06_1028,Partial repeat,2021.2.3,59.924877880121784,
2,6,0,1,3,2,1,1,1,0,0,1,0,0,0,0,118,118,118,0,0,0,0,,,,,,,1327.511428900063,None,1328.3909629005939,None,1329.2547939009964,None,s,1,0.787898600101471,1329.2547939009964,None,None,None,,,,,,,10,21,female,10,2022_May_06_1028,Partial repeat,2021.2.3,59.924877880121784,
2,6,0,1,3,2,1,1,1,0,0,1,0,0,0,0,118,118,118,1,0,1,0,,,,,,,,,1330.063161700964,None,1330.9077809005976,None,l,1,0.6789615005254745,1330.9077809005976,None,None,None,,,,,,,10,21,female,10,2022_May_06_1028,Partial repeat,2021.2.3,59.924877880121784,
2,6,0,1,3,2,1,1,1,0,0,1,0,0,0,0,118,118,118,,,,,,,,,,,,,,,,,,,,,,,,,,,,,,10,21,female,10,2022_May_06_1028,Partial repeat,2021.2.3,59.924877880121784,
4,5,0,1,2,2,1,2,1,1,1,0,1,0,0,0,119,119,119,0,0,0,0,,,,,,,1331.6168542001396,None,1332.3987835999578,None,1333.2635610997677,None,s,1,0.6270717009902,1333.2635610997677,None,None,None,,,,,,,10,21,female,10,2022_May_06_1028,Partial repeat,2021.2.3,59.924877880121784,
4,5,0,1,2,2,1,2,1,1,1,0,1,0,0,0,119,119,119,1,0,1,0,,,,,,,,,1333.904839700088,None,1334.7321458999068,None,s,1,0.6625952012836933,1334.7321458999068,None,None,None,,,,,,,10,21,female,10,2022_May_06_1028,Partial repeat,2021.2.3,59.924877880121784,
4,5,0,1,2,2,1,2,1,1,1,0,1,0,0,0,119,119,119,,,,,,,,,,,,,,,,,,,,,,,,,,,,,,10,21,female,10,2022_May_06_1028,Partial repeat,2021.2.3,59.924877880121784,
5,8,0,1,3,2,2,1,1,0,0,0,0,0,0,0,120,120,120,0,0,0,0,,,,,,,1335.4057454001158,None,1336.1226805001497,None,1336.8863332998008,None,s,1,0.5803787987679243,1336.8863332998008,None,None,None,,,,,,,10,21,female,10,2022_May_06_1028,Partial repeat,2021.2.3,59.924877880121784,
5,8,0,1,3,2,2,1,1,0,0,0,0,0,0,0,120,120,120,1,0,1,0,,,,,,,,,1337.4864881001413,None,1338.4558979012072,None,l,1,0.7147969994693995,1338.4558979012072,None,None,None,,,,,,,10,21,female,10,2022_May_06_1028,Partial repeat,2021.2.3,59.924877880121784,
5,8,0,1,3,2,2,1,1,0,0,0,0,0,0,0,120,120,120,,,,,,,,,,,,,,,,,,,,,,,,,,,,,,10,21,female,10,2022_May_06_1028,Partial repeat,2021.2.3,59.924877880121784,
1,2,0,1,3,2,2,2,1,0,0,1,0,0,0,0,121,121,121,0,0,0,0,,,,,,,1339.1870435010642,None,1339.796480299905,None,1340.6104835011065,None,s,1,0.8483082000166178,1340.6104835011065,None,None,None,,,,,,,10,21,female,10,2022_May_06_1028,Partial repeat,2021.2.3,59.924877880121784,
1,2,0,1,3,2,2,2,1,0,0,1,0,0,0,0,121,121,121,1,0,1,0,,,,,,,,,1341.486904900521,None,1342.2803589999676,None,l,1,0.650348499417305,1342.2803589999676,None,None,None,,,,,,,10,21,female,10,2022_May_06_1028,Partial repeat,2021.2.3,59.924877880121784,
1,2,0,1,3,2,2,2,1,0,0,1,0,0,0,0,121,121,121,,,,,,,,,,,,,,,,,,,,,,,,,,,,,,10,21,female,10,2022_May_06_1028,Partial repeat,2021.2.3,59.924877880121784,
8,8,0,1,2,2,1,1,1,0,1,1,0,0,0,0,122,122,122,0,0,0,0,,,,,,,1342.9563670009375,None,1343.6707070004195,None,1344.4850660003722,None,l,0,0.8296348005533218,1344.4850660003722,None,1345.331446301192,None,,,,,,,10,21,female,10,2022_May_06_1028,Partial repeat,2021.2.3,59.924877880121784,
8,8,0,1,2,2,1,1,1,0,1,1,0,0,0,0,122,122,122,1,0,1,0,,,,,,,,,1345.8415997996926,None,1346.7553593013436,None,l,1,0.5353159010410309,1346.7553593013436,None,None,None,,,,,,,10,21,female,10,2022_May_06_1028,Partial repeat,2021.2.3,59.924877880121784,
8,8,0,1,2,2,1,1,1,0,1,1,0,0,0,0,122,122,122,,,,,,,,,,,,,,,,,,,,,,,,,,,,,,10,21,female,10,2022_May_06_1028,Partial repeat,2021.2.3,59.924877880121784,
2,8,0,1,2,2,1,1,1,1,1,1,1,0,0,0,123,123,123,0,0,0,0,,,,,,,1347.3130453005433,None,1348.0625697001815,None,1348.8439554013312,None,l,0,0.7987890001386404,1348.8439554013312,None,1349.6714306995273,None,,,,,,,10,21,female,10,2022_May_06_1028,Partial repeat,2021.2.3,59.924877880121784,
2,8,0,1,2,2,1,1,1,1,1,1,1,0,0,0,123,123,123,1,0,1,0,,,,,,,,,1350.1833167001605,None,1350.9465964995325,None,s,1,0.8240878004580736,1350.9465964995325,None,None,None,,,,,,,10,21,female,10,2022_May_06_1028,Partial repeat,2021.2.3,59.924877880121784,
2,8,0,1,2,2,1,1,1,1,1,1,1,0,0,0,123,123,123,,,,,,,,,,,,,,,,,,,,,,,,,,,,,,10,21,female,10,2022_May_06_1028,Partial repeat,2021.2.3,59.924877880121784,
4,8,0,1,2,2,2,2,1,0,1,1,0,0,0,0,124,124,124,0,0,0,0,,,,,,,1351.7814335003495,None,1352.4544646013528,None,1353.1851493008435,None,s,1,0.6096755992621183,1353.1851493008435,None,None,None,,,,,,,10,21,female,10,2022_May_06_1028,Partial repeat,2021.2.3,59.924877880121784,
4,8,0,1,2,2,2,2,1,0,1,1,0,0,0,0,124,124,124,1,0,1,0,,,,,,,,,1353.8059751000255,None,1354.8044834006578,None,l,1,0.6782756000757217,1354.8044834006578,None,None,None,,,,,,,10,21,female,10,2022_May_06_1028,Partial repeat,2021.2.3,59.924877880121784,
4,8,0,1,2,2,2,2,1,0,1,1,0,0,0,0,124,124,124,,,,,,,,,,,,,,,,,,,,,,,,,,,,,,10,21,female,10,2022_May_06_1028,Partial repeat,2021.2.3,59.924877880121784,
8,1,0,1,2,3,1,1,1,0,0,1,0,0,0,0,125,125,125,0,0,0,0,,,,,,,1355.5129896011204,None,1356.779548900202,None,1357.59338440001,None,s,1,0.6413730010390282,1357.59338440001,None,None,None,,,,,,,10,21,female,10,2022_May_06_1028,Partial repeat,2021.2.3,59.924877880121784,
8,1,0,1,2,3,1,1,1,0,0,1,0,0,0,0,125,125,125,1,0,1,0,,,,,,,,,1358.2602222003043,None,1358.9793504010886,None,l,1,1.1034033000469208,1358.9793504010886,None,None,None,,,,,,,10,21,female,10,2022_May_06_1028,Partial repeat,2021.2.3,59.924877880121784,
8,1,0,1,2,3,1,1,1,0,0,1,0,0,0,0,125,125,125,,,,,,,,,,,,,,,,,,,,,,,,,,,,,,10,21,female,10,2022_May_06_1028,Partial repeat,2021.2.3,59.924877880121784,
1,3,0,1,2,2,1,1,0,0,1,1,1,0,0,0,126,126,126,0,0,0,0,,,,,,,1360.1121714003384,None,1362.0896889995784,None,1363.1040626000613,None,l,1,0.6346779000014067,1363.1040626000613,None,None,None,,,,,,,10,21,female,10,2022_May_06_1028,Partial repeat,2021.2.3,59.924877880121784,
1,3,0,1,2,2,1,1,0,0,1,1,1,0,0,0,126,126,126,1,0,1,0,,,,,,,,,1363.7664375007153,None,1364.6067412011325,None,l,1,0.7160135991871357,1364.6067412011325,None,None,None,,,,,,,10,21,female,10,2022_May_06_1028,Partial repeat,2021.2.3,59.924877880121784,
1,3,0,1,2,2,1,1,0,0,1,1,1,0,0,0,126,126,126,,,,,,,,,,,,,,,,,,,,,,,,,,,,,,10,21,female,10,2022_May_06_1028,Partial repeat,2021.2.3,59.924877880121784,
6,6,0,1,3,2,1,2,0,1,0,0,0,0,0,0,127,127,127,0,0,0,0,,,,,,,1365.3360920008272,None,1366.0642498005182,None,1366.9446814004332,None,l,1,1.7460193000733852,1366.9446814004332,None,None,None,,,,,,,10,21,female,10,2022_May_06_1028,Partial repeat,2021.2.3,59.924877880121784,
6,6,0,1,3,2,1,2,0,1,0,0,0,0,0,0,127,127,127,1,0,1,0,,,,,,,,,1368.7066582012922,None,1369.5329343006015,None,s,1,0.6377415005117655,1369.5329343006015,None,None,None,,,,,,,10,21,female,10,2022_May_06_1028,Partial repeat,2021.2.3,59.924877880121784,
6,6,0,1,3,2,1,2,0,1,0,0,0,0,0,0,127,127,127,,,,,,,,,,,,,,,,,,,,,,,,,,,,,,10,21,female,10,2022_May_06_1028,Partial repeat,2021.2.3,59.924877880121784,
1,1,0,1,3,3,1,1,1,1,1,1,1,1,0,0,128,128,128,0,0,0,0,,,,,,,1371.2092630006373,None,1371.7920297011733,None,1372.5725488997996,None,s,1,0.7021110001951456,1372.5725488997996,None,None,None,,,,,,,10,21,female,10,2022_May_06_1028,Partial repeat,2021.2.3,59.924877880121784,
1,1,0,1,3,3,1,1,1,1,1,1,1,1,0,0,128,128,128,1,0,1,0,,,,,,,,,1373.2840932998806,None,1374.2926803007722,None,s,1,0.5100664012134075,1374.2926803007722,None,None,None,,,,,,,10,21,female,10,2022_May_06_1028,Partial repeat,2021.2.3,59.924877880121784,
1,1,0,1,3,3,1,1,1,1,1,1,1,1,0,0,128,128,128,,,,,,,,,,,,,,,,,,,,,,,,,,,,,,10,21,female,10,2022_May_06_1028,Partial repeat,2021.2.3,59.924877880121784,
1,1,0,1,3,2,2,1,0,0,0,0,1,1,0,0,129,129,129,0,0,0,0,,,,,,,1374.8331755008548,None,1375.6161740012467,None,1376.5633694007993,None,l,1,0.5912727005779743,1376.5633694007993,None,None,None,,,,,,,10,21,female,10,2022_May_06_1028,Partial repeat,2021.2.3,59.924877880121784,
1,1,0,1,3,2,2,1,0,0,0,0,1,1,0,0,129,129,129,1,0,1,0,,,,,,,,,1377.1641263011843,None,1378.1832419000566,None,l,1,0.5474835988134146,1378.1832419000566,None,None,None,,,,,,,10,21,female,10,2022_May_06_1028,Partial repeat,2021.2.3,59.924877880121784,
1,1,0,1,3,2,2,1,0,0,0,0,1,1,0,0,129,129,129,,,,,,,,,,,,,,,,,,,,,,,,,,,,,,10,21,female,10,2022_May_06_1028,Partial repeat,2021.2.3,59.924877880121784,
1,1,0,1,2,3,2,1,0,1,0,0,0,1,0,0,130,130,130,0,0,0,0,,,,,,,1378.7455883007497,None,1379.3400951996446,None,1380.0701723005623,None,l,1,0.5726025998592377,1380.0701723005623,None,None,None,,,,,,,10,21,female,10,2022_May_06_1028,Partial repeat,2021.2.3,59.924877880121784,
1,1,0,1,2,3,2,1,0,1,0,0,0,1,0,0,130,130,130,1,0,1,0,,,,,,,,,1380.6693674996495,None,1381.406071100384,None,s,1,0.5566221997141838,1381.406071100384,None,None,None,,,,,,,10,21,female,10,2022_May_06_1028,Partial repeat,2021.2.3,59.924877880121784,
1,1,0,1,2,3,2,1,0,1,0,0,0,1,0,0,130,130,130,,,,,,,,,,,,,,,,,,,,,,,,,,,,,,10,21,female,10,2022_May_06_1028,Partial repeat,2021.2.3,59.924877880121784,
1,1,0,1,2,3,2,2,0,1,0,1,0,1,0,0,131,131,131,0,0,0,0,,,,,,,1381.9877762999386,None,1382.4962453003973,None,1383.2934541013092,None,l,1,0.6773894988000393,1383.2934541013092,None,None,None,,,,,,,10,21,female,10,2022_May_06_1028,Partial repeat,2021.2.3,59.924877880121784,
1,1,0,1,2,3,2,2,0,1,0,1,0,1,0,0,131,131,131,1,0,1,0,,,,,,,,,1383.9808007013053,None,1384.896492101252,None,s,1,0.8021964989602566,1384.896492101252,None,None,None,,,,,,,10,21,female,10,2022_May_06_1028,Partial repeat,2021.2.3,59.924877880121784,
1,1,0,1,2,3,2,2,0,1,0,1,0,1,0,0,131,131,131,,,,,,,,,,,,,,,,,,,,,,,,,,,,,,10,21,female,10,2022_May_06_1028,Partial repeat,2021.2.3,59.924877880121784,
1,1,0,1,3,2,1,2,0,1,0,0,0,1,0,0,132,132,132,0,0,0,0,,,,,,,1385.714328000322,None,1386.5374370999634,None,1387.350859200582,None,l,1,0.7078713998198509,1387.350859200582,None,None,None,,,,,,,10,21,female,10,2022_May_06_1028,Partial repeat,2021.2.3,59.924877880121784,
1,1,0,1,3,2,1,2,0,1,0,0,0,1,0,0,132,132,132,1,0,1,0,,,,,,,,,1388.0852330997586,None,1388.937678201124,None,s,1,0.6170818991959095,1388.937678201124,None,None,None,,,,,,,10,21,female,10,2022_May_06_1028,Partial repeat,2021.2.3,59.924877880121784,
1,1,0,1,3,2,1,2,0,1,0,0,0,1,0,0,132,132,132,,,,,,,,,,,,,,,,,,,,,,,,,,,,,,10,21,female,10,2022_May_06_1028,Partial repeat,2021.2.3,59.924877880121784,
1,1,0,1,2,3,2,2,1,1,0,1,1,1,0,0,133,133,133,0,0,0,0,,,,,,,1389.5849438998848,None,1390.0943513009697,None,1391.108563600108,None,s,1,0.5981303006410599,1391.108563600108,None,None,None,,,,,,,10,21,female,10,2022_May_06_1028,Partial repeat,2021.2.3,59.924877880121784,
1,1,0,1,2,3,2,2,1,1,0,1,1,1,0,0,133,133,133,1,0,1,0,,,,,,,,,1391.7300952002406,None,1392.711675900966,None,s,1,0.5390297994017601,1392.711675900966,None,None,None,,,,,,,10,21,female,10,2022_May_06_1028,Partial repeat,2021.2.3,59.924877880121784,
1,1,0,1,2,3,2,2,1,1,0,1,1,1,0,0,133,133,133,,,,,,,,,,,,,,,,,,,,,,,,,,,,,,10,21,female,10,2022_May_06_1028,Partial repeat,2021.2.3,59.924877880121784,
1,1,0,1,3,2,2,1,1,0,0,0,0,1,0,0,134,134,134,0,0,0,0,,,,,,,1393.2752593010664,None,1394.0186410006136,None,1394.9166582003236,None,s,1,0.5260575991123915,1394.9166582003236,None,None,None,,,,,,,10,21,female,10,2022_May_06_1028,Partial repeat,2021.2.3,59.924877880121784,
1,1,0,1,3,2,2,1,1,0,0,0,0,1,0,0,134,134,134,1,0,1,0,,,,,,,,,1395.4511470999569,None,1396.4522388000041,None,l,1,0.6224559992551804,1396.4522388000041,None,None,None,,,,,,,10,21,female,10,2022_May_06_1028,Partial repeat,2021.2.3,59.924877880121784,
1,1,0,1,3,2,2,1,1,0,0,0,0,1,0,0,134,134,134,,,,,,,,,,,,,,,,,,,,,,,,,,,,,,10,21,female,10,2022_May_06_1028,Partial repeat,2021.2.3,59.924877880121784,
1,1,0,1,2,3,2,2,0,0,0,1,1,1,0,0,135,135,135,0,0,0,0,,,,,,,1397.097234999761,None,1397.642385199666,None,1398.405955400318,None,l,1,0.684731999412179,1398.405955400318,None,None,None,,,,,,,10,21,female,10,2022_May_06_1028,Partial repeat,2021.2.3,59.924877880121784,
1,1,0,1,2,3,2,2,0,0,0,1,1,1,0,0,135,135,135,1,0,1,0,,,,,,,,,1399.1083864998072,None,1399.9764348007739,None,l,1,0.5062569994479418,1399.9764348007739,None,None,None,,,,,,,10,21,female,10,2022_May_06_1028,Partial repeat,2021.2.3,59.924877880121784,
1,1,0,1,2,3,2,2,0,0,0,1,1,1,0,0,135,135,135,,,,,,,,,,,,,,,,,,,,,,,,,,,,,,10,21,female,10,2022_May_06_1028,Partial repeat,2021.2.3,59.924877880121784,
1,1,0,1,3,2,1,2,1,1,0,0,1,1,0,0,136,136,136,0,0,0,0,,,,,,,1400.5015776008368,None,1401.2327043004334,None,1402.1130180004984,None,s,1,0.6256783995777369,1402.1130180004984,None,None,None,,,,,,,10,21,female,10,2022_May_06_1028,Partial repeat,2021.2.3,59.924877880121784,
1,1,0,1,3,2,1,2,1,1,0,0,1,1,0,0,136,136,136,1,0,1,0,,,,,,,,,1402.7511756997555,None,1403.7331261001527,None,s,1,0.461600000038743,1403.7331261001527,None,None,None,,,,,,,10,21,female,10,2022_May_06_1028,Partial repeat,2021.2.3,59.924877880121784,
1,1,0,1,3,2,1,2,1,1,0,0,1,1,0,0,136,136,136,,,,,,,,,,,,,,,,,,,,,,,,,,,,,,10,21,female,10,2022_May_06_1028,Partial repeat,2021.2.3,59.924877880121784,
1,1,0,1,2,2,2,2,0,1,1,1,0,1,0,0,137,137,137,0,0,0,0,,,,,,,1404.21250080131,None,1404.889625299722,None,1405.7547249011695,None,l,1,0.6159522011876106,1405.7547249011695,None,None,None,,,,,,,10,21,female,10,2022_May_06_1028,Partial repeat,2021.2.3,59.924877880121784,
1,1,0,1,2,2,2,2,0,1,1,1,0,1,0,0,137,137,137,1,0,1,0,,,,,,,,,1406.3798904996365,None,1407.106177199632,None,l,0,0.4805121999233961,1407.106177199632,None,1407.6026422996074,None,,,,,,,10,21,female,10,2022_May_06_1028,Partial repeat,2021.2.3,59.924877880121784,
1,1,0,1,2,2,2,2,0,1,1,1,0,1,0,0,137,137,137,,,,,,,,,,,,,,,,,,,,,,,,,,,,,,10,21,female,10,2022_May_06_1028,Partial repeat,2021.2.3,59.924877880121784,
1,1,0,1,2,2,2,2,1,1,1,1,1,1,0,0,138,138,138,0,0,0,0,,,,,,,1408.1128295008093,None,1408.9143128003925,None,1409.6780612003058,None,s,1,0.4926602002233267,1409.6780612003058,None,None,None,,,,,,,10,21,female,10,2022_May_06_1028,Partial repeat,2021.2.3,59.924877880121784,
1,1,0,1,2,2,2,2,1,1,1,1,1,1,0,0,138,138,138,1,0,1,0,,,,,,,,,1410.193234499544,None,1411.1657602004707,None,s,1,0.5009343009442091,1411.1657602004707,None,None,None,,,,,,,10,21,female,10,2022_May_06_1028,Partial repeat,2021.2.3,59.924877880121784,
1,1,0,1,2,2,2,2,1,1,1,1,1,1,0,0,138,138,138,,,,,,,,,,,,,,,,,,,,,,,,,,,,,,10,21,female,10,2022_May_06_1028,Partial repeat,2021.2.3,59.924877880121784,
1,1,0,1,3,2,1,1,0,0,0,1,1,1,0,0,139,139,139,0,0,0,0,,,,,,,1411.681526299566,None,1412.5713643003255,None,1413.3518717996776,None,l,1,0.5628201011568308,1413.3518717996776,None,None,None,,,,,,,10,21,female,10,2022_May_06_1028,Partial repeat,2021.2.3,59.924877880121784,
1,1,0,1,3,2,1,1,0,0,0,1,1,1,0,0,139,139,139,1,0,1,0,,,,,,,,,1413.936232600361,None,1414.8397089000791,None,l,1,0.4749768003821373,1414.8397089000791,None,None,None,,,,,,,10,21,female,10,2022_May_06_1028,Partial repeat,2021.2.3,59.924877880121784,
1,1,0,1,3,2,1,1,0,0,0,1,1,1,0,0,139,139,139,,,,,,,,,,,,,,,,,,,,,,,,,,,,,,10,21,female,10,2022_May_06_1028,Partial repeat,2021.2.3,59.924877880121784,
1,1,0,1,3,3,2,1,0,0,1,0,1,1,0,0,140,140,140,0,0,0,0,,,,,,,1415.3371649999171,None,1416.9298793002963,None,1417.8436895012856,None,l,1,0.47113210149109364,1417.8436895012856,None,None,None,,,,,,,10,21,female,10,2022_May_06_1028,Partial repeat,2021.2.3,59.924877880121784,
1,1,0,1,3,3,2,1,0,0,1,0,1,1,0,0,140,140,140,1,0,1,0,,,,,,,,,1418.3419004995376,None,1419.3479350004345,None,l,1,0.478753799572587,1419.3479350004345,None,None,None,,,,,,,10,21,female,10,2022_May_06_1028,Partial repeat,2021.2.3,59.924877880121784,
1,1,0,1,3,3,2,1,0,0,1,0,1,1,0,0,140,140,140,,,,,,,,,,,,,,,,,,,,,,,,,,,,,,10,21,female,10,2022_May_06_1028,Partial repeat,2021.2.3,59.924877880121784,
1,1,0,1,2,3,2,1,0,0,0,0,1,1,0,0,141,141,141,0,0,0,0,,,,,,,1419.8484006002545,None,1420.486816700548,None,1421.2338752001524,None,l,1,0.3688124995678663,1421.2338752001524,None,None,None,,,,,,,10,21,female,10,2022_May_06_1028,Partial repeat,2021.2.3,59.924877880121784,
1,1,0,1,2,3,2,1,0,0,0,0,1,1,0,0,141,141,141,1,0,1,0,,,,,,,,,1421.625976599753,None,1422.60408090055,None,l,1,0.44668260030448437,1422.60408090055,None,None,None,,,,,,,10,21,female,10,2022_May_06_1028,Partial repeat,2021.2.3,59.924877880121784,
1,1,0,1,2,3,2,1,0,0,0,0,1,1,0,0,141,141,141,,,,,,,,,,,,,,,,,,,,,,,,,,,,,,10,21,female,10,2022_May_06_1028,Partial repeat,2021.2.3,59.924877880121784,
1,1,0,1,3,3,2,1,1,1,1,0,1,1,0,0,142,142,142,0,0,0,0,,,,,,,1423.0804393012077,None,1424.8953572008759,None,1425.641986399889,None,s,1,0.5767011996358633,1425.641986399889,None,None,None,,,,,,,10,21,female,10,2022_May_06_1028,Partial repeat,2021.2.3,59.924877880121784,
1,1,0,1,3,3,2,1,1,1,1,0,1,1,0,0,142,142,142,1,0,1,0,,,,,,,,,1426.24335190095,None,1427.0615766011178,None,s,1,0.5092408992350101,1427.0615766011178,None,None,None,,,,,,,10,21,female,10,2022_May_06_1028,Partial repeat,2021.2.3,59.924877880121784,
1,1,0,1,3,3,2,1,1,1,1,0,1,1,0,0,142,142,142,,,,,,,,,,,,,,,,,,,,,,,,,,,,,,10,21,female,10,2022_May_06_1028,Partial repeat,2021.2.3,59.924877880121784,
1,1,0,1,3,3,1,2,0,0,1,0,1,1,0,0,143,143,143,0,0,0,0,,,,,,,1427.5809981003404,None,1428.1515581998974,None,1428.8820409011096,None,l,1,0.6967110000550747,1428.8820409011096,None,None,None,,,,,,,10,21,female,10,2022_May_06_1028,Partial repeat,2021.2.3,59.924877880121784,
1,1,0,1,3,3,1,2,0,0,1,0,1,1,0,0,143,143,143,1,0,1,0,,,,,,,,,1429.5881524998695,None,1430.468205600977,None,l,1,0.43848769925534725,1430.468205600977,None,None,None,,,,,,,10,21,female,10,2022_May_06_1028,Partial repeat,2021.2.3,59.924877880121784,
1,1,0,1,3,3,1,2,0,0,1,0,1,1,0,0,143,143,143,,,,,,,,,,,,,,,,,,,,,,,,,,,,,,10,21,female,10,2022_May_06_1028,Partial repeat,2021.2.3,59.924877880121784,
1,1,0,1,3,3,2,1,0,1,1,0,0,1,0,0,144,144,144,0,0,0,0,,,,,,,1430.925466099754,None,1432.6437651999295,None,1433.5074102003127,None,l,1,0.503413999453187,1433.5074102003127,None,None,None,,,,,,,10,21,female,10,2022_May_06_1028,Partial repeat,2021.2.3,59.924877880121784,
1,1,0,1,3,3,2,1,0,1,1,0,0,1,0,0,144,144,144,1,0,1,0,,,,,,,,,1434.0394381005317,None,1435.0447621997446,None,s,1,0.813926400616765,1435.0447621997446,None,None,None,,,,,,,10,21,female,10,2022_May_06_1028,Partial repeat,2021.2.3,59.924877880121784,
1,1,0,1,3,3,2,1,0,1,1,0,0,1,0,0,144,144,144,,,,,,,,,,,,,,,,,,,,,,,,,,,,,,10,21,female,10,2022_May_06_1028,Partial repeat,2021.2.3,59.924877880121784,
1,1,0,1,3,3,2,2,1,1,1,1,1,1,0,0,145,145,145,0,0,0,0,,,,,,,1435.8832211010158,None,1436.384435100481,None,1437.198341600597,None,s,1,0.5003356002271175,1437.198341600597,None,None,None,,,,,,,10,21,female,10,2022_May_06_1028,Partial repeat,2021.2.3,59.924877880121784,
1,1,0,1,3,3,2,2,1,1,1,1,1,1,0,0,145,145,145,1,0,1,0,,,,,,,,,1437.7115254011005,None,1438.6007538996637,None,s,1,0.5700142998248339,1438.6007538996637,None,None,None,,,,,,,10,21,female,10,2022_May_06_1028,Partial repeat,2021.2.3,59.924877880121784,
1,1,0,1,3,3,2,2,1,1,1,1,1,1,0,0,145,145,145,,,,,,,,,,,,,,,,,,,,,,,,,,,,,,10,21,female,10,2022_May_06_1028,Partial repeat,2021.2.3,59.924877880121784,
1,1,0,1,3,2,1,1,0,1,0,1,0,1,0,0,146,146,146,0,0,0,0,,,,,,,1439.183142900467,None,1441.0267955008894,None,1441.7404968999326,None,l,1,0.6862043011933565,1441.7404968999326,None,None,None,,,,,,,10,21,female,10,2022_May_06_1028,Partial repeat,2021.2.3,59.924877880121784,
1,1,0,1,3,2,1,1,0,1,0,1,0,1,0,0,146,146,146,1,0,1,0,,,,,,,,,1442.4436108004302,None,1443.3434797003865,None,s,1,0.6512170005589724,1443.3434797003865,None,None,None,,,,,,,10,21,female,10,2022_May_06_1028,Partial repeat,2021.2.3,59.924877880121784,
1,1,0,1,3,2,1,1,0,1,0,1,0,1,0,0,146,146,146,,,,,,,,,,,,,,,,,,,,,,,,,,,,,,10,21,female,10,2022_May_06_1028,Partial repeat,2021.2.3,59.924877880121784,
1,1,0,1,3,2,2,2,1,1,0,1,1,1,0,0,147,147,147,0,0,0,0,,,,,,,1444.015518700704,None,1444.516919100657,None,1445.514536401257,None,s,1,0.5841157995164394,1445.514536401257,None,None,None,,,,,,,10,21,female,10,2022_May_06_1028,Partial repeat,2021.2.3,59.924877880121784,
1,1,0,1,3,2,2,2,1,1,0,1,1,1,0,0,147,147,147,1,0,1,0,,,,,,,,,1446.1159528009593,None,1447.067507300526,None,s,1,0.6552761010825634,1447.067507300526,None,None,None,,,,,,,10,21,female,10,2022_May_06_1028,Partial repeat,2021.2.3,59.924877880121784,
1,1,0,1,3,2,2,2,1,1,0,1,1,1,0,0,147,147,147,,,,,,,,,,,,,,,,,,,,,,,,,,,,,,10,21,female,10,2022_May_06_1028,Partial repeat,2021.2.3,59.924877880121784,
1,1,0,1,3,3,2,1,1,0,1,0,0,1,0,0,148,148,148,0,0,0,0,,,,,,,1447.7369093000889,None,1449.0423636008054,None,1449.8571032006294,None,s,1,0.5775817986577749,1449.8571032006294,None,None,None,,,,,,,10,21,female,10,2022_May_06_1028,Partial repeat,2021.2.3,59.924877880121784,
1,1,0,1,3,3,2,1,1,0,1,0,0,1,0,0,148,148,148,1,0,1,0,,,,,,,,,1450.455783199519,None,1451.3254033997655,None,l,1,0.9972587004303932,1451.3254033997655,None,None,None,,,,,,,10,21,female,10,2022_May_06_1028,Partial repeat,2021.2.3,59.924877880121784,
1,1,0,1,3,3,2,1,1,0,1,0,0,1,0,0,148,148,148,,,,,,,,,,,,,,,,,,,,,,,,,,,,,,10,21,female,10,2022_May_06_1028,Partial repeat,2021.2.3,59.924877880121784,
1,1,0,1,2,3,1,2,1,0,0,0,0,1,0,0,149,149,149,0,0,0,0,,,,,,,1452.336709400639,None,1453.7514821011573,None,1454.5320507995784,None,s,1,0.5507624000310898,1454.5320507995784,None,None,None,,,,,,,10,21,female,10,2022_May_06_1028,Partial repeat,2021.2.3,59.924877880121784,
1,1,0,1,2,3,1,2,1,0,0,0,0,1,0,0,149,149,149,1,0,1,0,,,,,,,,,1455.0930003002286,None,1455.9511361997575,None,l,1,0.7715445011854172,1455.9511361997575,None,None,None,,,,,,,10,21,female,10,2022_May_06_1028,Partial repeat,2021.2.3,59.924877880121784,
1,1,0,1,2,3,1,2,1,0,0,0,0,1,0,0,149,149,149,,,,,,,,,,,,,,,,,,,,,,,,,,,,,,10,21,female,10,2022_May_06_1028,Partial repeat,2021.2.3,59.924877880121784,
