prime_tar_pos,probe_tar_pos,dimension,tar_color,prime_dist_color,probe_dist_color,prime_dist_shape,probe_dist_shape,prime_tar_dot_pos,probe_tar_dot_pos,col_rep,shape_rep,resp_rep,pos_fixed,sparse,MainLoop.thisRepN,MainLoop.thisTrialN,MainLoop.thisN,MainLoop.thisIndex,PrimeProbe.thisRepN,PrimeProbe.thisTrialN,PrimeProbe.thisN,PrimeProbe.thisIndex,Instruction.started,Instruction.stopped,instruction_key.keys,instruction_key.rt,instruction_key.started,instruction_key.stopped,PairStartText.started,PairStartText.stopped,FixCross.started,FixCross.stopped,SearchFixCross.started,SearchFixCross.stopped,key_resp.keys,key_resp.corr,key_resp.rt,key_resp.started,key_resp.stopped,feedback_text.started,feedback_text.stopped,text_finish.started,text_finish.stopped,finish_key.keys,finish_key.rt,finish_key.started,finish_key.stopped,participant,age,gender,group,date,expName,psychopyVersion,frameRate,
,,,,,,,,,,,,,,,,,,,,,,,820.5064650010318,None,space,23.069093199446797,820.5064650010318,None,,,,,,,,,,,,,,,,,,,,11,21,female,11,2022_May_06_1033,Partial repeat,2021.2.3,59.79609529387698,
2,8,0,1,3,2,2,1,1,1,0,0,1,0,0,0,0,0,0,0,0,0,0,,,,,,,843.6946104001254,None,845.241973599419,None,846.1895493008196,None,s,1,1.7777719013392925,846.1895493008196,None,None,None,,,,,,,11,21,female,11,2022_May_06_1033,Partial repeat,2021.2.3,59.79609529387698,
2,8,0,1,3,2,2,1,1,1,0,0,1,0,0,0,0,0,0,1,0,1,0,,,,,,,,,847.9799661003053,None,848.7442931011319,None,s,1,9.151000900194049,848.7442931011319,None,None,None,,,,,,,11,21,female,11,2022_May_06_1033,Partial repeat,2021.2.3,59.79609529387698,
2,8,0,1,3,2,2,1,1,1,0,0,1,0,0,0,0,0,0,,,,,,,,,,,,,,,,,,,,,,,,,,,,,,11,21,female,11,2022_May_06_1033,Partial repeat,2021.2.3,59.79609529387698,
2,2,0,1,3,2,2,2,1,0,0,1,0,0,0,0,1,1,1,0,0,0,0,,,,,,,857.9109816998243,None,861.2397882994264,None,862.1199456006289,None,s,1,1.3912603985518217,862.1199456006289,None,None,None,,,,,,,11,21,female,11,2022_May_06_1033,Partial repeat,2021.2.3,59.79609529387698,
2,2,0,1,3,2,2,2,1,0,0,1,0,0,0,0,1,1,1,1,0,1,0,,,,,,,,,863.5241142008454,None,864.3911741003394,None,s,0,1.8000622987747192,864.3911741003394,None,866.2099053002894,None,,,,,,,11,21,female,11,2022_May_06_1033,Partial repeat,2021.2.3,59.79609529387698,
2,2,0,1,3,2,2,2,1,0,0,1,0,0,0,0,1,1,1,,,,,,,,,,,,,,,,,,,,,,,,,,,,,,11,21,female,11,2022_May_06_1033,Partial repeat,2021.2.3,59.79609529387698,
1,8,0,1,3,3,1,2,1,1,1,0,1,0,0,0,2,2,2,0,0,0,0,,,,,,,866.7171823009849,None,870.4409855008125,None,871.2878370992839,None,l,0,23.991513499990106,871.2878370992839,None,895.3070039004087,None,,,,,,,11,21,female,11,2022_May_06_1033,Partial repeat,2021.2.3,59.79609529387698,
1,8,0,1,3,3,1,2,1,1,1,0,1,0,0,0,2,2,2,1,0,1,0,,,,,,,,,895.8069412000477,None,896.5869005005807,None,s,1,10.420306000858545,896.5869005005807,None,None,None,,,,,,,11,21,female,11,2022_May_06_1033,Partial repeat,2021.2.3,59.79609529387698,
1,8,0,1,3,3,1,2,1,1,1,0,1,0,0,0,2,2,2,,,,,,,,,,,,,,,,,,,,,,,,,,,,,,11,21,female,11,2022_May_06_1033,Partial repeat,2021.2.3,59.79609529387698,
8,5,0,1,2,2,1,1,0,0,1,1,1,0,0,0,3,3,3,0,0,0,0,,,,,,,907.0334447007626,None,930.4243417009711,None,931.322233799845,None,l,1,0.8530291002243757,931.322233799845,None,None,None,,,,,,,11,21,female,11,2022_May_06_1033,Partial repeat,2021.2.3,59.79609529387698,
8,5,0,1,2,2,1,1,0,0,1,1,1,0,0,0,3,3,3,1,0,1,0,,,,,,,,,932.1915592011064,None,933.1758754011244,None,l,1,1.5274849999696016,933.1758754011244,None,None,None,,,,,,,11,21,female,11,2022_May_06_1033,Partial repeat,2021.2.3,59.79609529387698,
8,5,0,1,2,2,1,1,0,0,1,1,1,0,0,0,3,3,3,,,,,,,,,,,,,,,,,,,,,,,,,,,,,,11,21,female,11,2022_May_06_1033,Partial repeat,2021.2.3,59.79609529387698,
1,1,0,1,2,3,1,2,1,1,0,0,1,0,0,0,4,4,4,0,0,0,0,,,,,,,934.7343293000013,None,937.4547215998173,None,938.4186927005649,None,l,0,0.7645136993378401,938.4186927005649,None,939.2081896997988,None,,,,,,,11,21,female,11,2022_May_06_1033,Partial repeat,2021.2.3,59.79609529387698,
1,1,0,1,2,3,1,2,1,1,0,0,1,0,0,0,4,4,4,1,0,1,0,,,,,,,,,939.7090964000672,None,940.7063894998282,None,s,1,1.7409025002270937,940.7063894998282,None,None,None,,,,,,,11,21,female,11,2022_May_06_1033,Partial repeat,2021.2.3,59.79609529387698,
1,1,0,1,2,3,1,2,1,1,0,0,1,0,0,0,4,4,4,,,,,,,,,,,,,,,,,,,,,,,,,,,,,,11,21,female,11,2022_May_06_1033,Partial repeat,2021.2.3,59.79609529387698,
6,6,0,1,2,3,2,2,0,0,0,1,1,0,0,0,5,5,5,0,0,0,0,,,,,,,942.46008490026,None,946.9899528007954,None,948.0038252994418,None,s,0,0.9714295007288456,948.0038252994418,None,948.9867187999189,None,,,,,,,11,21,female,11,2022_May_06_1033,Partial repeat,2021.2.3,59.79609529387698,
6,6,0,1,2,3,2,2,0,0,0,1,1,0,0,0,5,5,5,1,0,1,0,,,,,,,,,949.4947346001863,None,950.3583110999316,None,l,1,0.7370065990835428,950.3583110999316,None,None,None,,,,,,,11,21,female,11,2022_May_06_1033,Partial repeat,2021.2.3,59.79609529387698,
6,6,0,1,2,3,2,2,0,0,0,1,1,0,0,0,5,5,5,,,,,,,,,,,,,,,,,,,,,,,,,,,,,,11,21,female,11,2022_May_06_1033,Partial repeat,2021.2.3,59.79609529387698,
3,7,0,1,3,2,1,1,0,1,0,1,0,0,0,0,6,6,6,0,0,0,0,,,,,,,951.1078749001026,None,954.5045158006251,None,955.352537099272,None,l,1,0.8869325984269381,955.352537099272,None,None,None,,,,,,,11,21,female,11,2022_May_06_1033,Partial repeat,2021.2.3,59.79609529387698,
3,7,0,1,3,2,1,1,0,1,0,1,0,0,0,0,6,6,6,1,0,1,0,,,,,,,,,956.2499414999038,None,957.1394826006144,None,s,1,0.8677091002464294,957.1394826006144,None,None,None,,,,,,,11,21,female,11,2022_May_06_1033,Partial repeat,2021.2.3,59.79609529387698,
3,7,0,1,3,2,1,1,0,1,0,1,0,0,0,0,6,6,6,,,,,,,,,,,,,,,,,,,,,,,,,,,,,,11,21,female,11,2022_May_06_1033,Partial repeat,2021.2.3,59.79609529387698,
3,2,0,1,2,3,1,2,0,0,0,0,1,0,0,0,7,7,7,0,0,0,0,,,,,,,958.0178871992975,None,962.4867563005537,None,963.2336944993585,None,l,1,0.8455785997211933,963.2336944993585,None,None,None,,,,,,,11,21,female,11,2022_May_06_1033,Partial repeat,2021.2.3,59.79609529387698,
3,2,0,1,2,3,1,2,0,0,0,0,1,0,0,0,7,7,7,1,0,1,0,,,,,,,,,964.087412700057,None,964.9871690999717,None,l,1,0.6521735992282629,964.9871690999717,None,None,None,,,,,,,11,21,female,11,2022_May_06_1033,Partial repeat,2021.2.3,59.79609529387698,
3,2,0,1,2,3,1,2,0,0,0,0,1,0,0,0,7,7,7,,,,,,,,,,,,,,,,,,,,,,,,,,,,,,11,21,female,11,2022_May_06_1033,Partial repeat,2021.2.3,59.79609529387698,
5,1,0,1,2,2,2,2,0,1,1,1,0,0,0,0,8,8,8,0,0,0,0,,,,,,,965.6519563999027,None,969.7175019998103,None,970.6649463009089,None,l,1,0.5422273986041546,970.6649463009089,None,None,None,,,,,,,11,21,female,11,2022_May_06_1033,Partial repeat,2021.2.3,59.79609529387698,
5,1,0,1,2,2,2,2,0,1,1,1,0,0,0,0,8,8,8,1,0,1,0,,,,,,,,,971.2218635994941,None,971.9675622005016,None,s,1,0.8716608993709087,971.9675622005016,None,None,None,,,,,,,11,21,female,11,2022_May_06_1033,Partial repeat,2021.2.3,59.79609529387698,
5,1,0,1,2,2,2,2,0,1,1,1,0,0,0,0,8,8,8,,,,,,,,,,,,,,,,,,,,,,,,,,,,,,11,21,female,11,2022_May_06_1033,Partial repeat,2021.2.3,59.79609529387698,
4,1,0,1,2,3,1,2,0,1,0,0,0,0,0,0,9,9,9,0,0,0,0,,,,,,,972.8502552993596,None,974.610347699374,None,975.457527499646,None,l,1,0.821754701435566,975.457527499646,None,None,None,,,,,,,11,21,female,11,2022_May_06_1033,Partial repeat,2021.2.3,59.79609529387698,
4,1,0,1,2,3,1,2,0,1,0,0,0,0,0,0,9,9,9,1,0,1,0,,,,,,,,,976.2892342004925,None,977.2276099007577,None,s,1,0.7875568009912968,977.2276099007577,None,None,None,,,,,,,11,21,female,11,2022_May_06_1033,Partial repeat,2021.2.3,59.79609529387698,
4,1,0,1,2,3,1,2,0,1,0,0,0,0,0,0,9,9,9,,,,,,,,,,,,,,,,,,,,,,,,,,,,,,11,21,female,11,2022_May_06_1033,Partial repeat,2021.2.3,59.79609529387698,
1,5,0,1,3,2,2,2,0,0,0,1,1,0,0,0,10,10,10,0,0,0,0,,,,,,,978.0313812997192,None,980.2546309009194,None,981.1016230992973,None,l,1,0.5295372996479273,981.1016230992973,None,None,None,,,,,,,11,21,female,11,2022_May_06_1033,Partial repeat,2021.2.3,59.79609529387698,
1,5,0,1,3,2,2,2,0,0,0,1,1,0,0,0,10,10,10,1,0,1,0,,,,,,,,,981.6427356004715,None,982.5222891997546,None,l,1,0.6209261994808912,982.5222891997546,None,None,None,,,,,,,11,21,female,11,2022_May_06_1033,Partial repeat,2021.2.3,59.79609529387698,
1,5,0,1,3,2,2,2,0,0,0,1,1,0,0,0,10,10,10,,,,,,,,,,,,,,,,,,,,,,,,,,,,,,11,21,female,11,2022_May_06_1033,Partial repeat,2021.2.3,59.79609529387698,
4,8,0,1,2,2,1,2,1,0,1,0,0,0,0,0,11,11,11,0,0,0,0,,,,,,,983.1534506995231,None,985.9490165002644,None,986.9466021005064,None,s,1,0.6205474995076656,986.9466021005064,None,None,None,,,,,,,11,21,female,11,2022_May_06_1033,Partial repeat,2021.2.3,59.79609529387698,
4,8,0,1,2,2,1,2,1,0,1,0,0,0,0,0,11,11,11,1,0,1,0,,,,,,,,,987.5951237007976,None,988.3492016997188,None,l,1,0.8579661995172501,988.3492016997188,None,None,None,,,,,,,11,21,female,11,2022_May_06_1033,Partial repeat,2021.2.3,59.79609529387698,
4,8,0,1,2,2,1,2,1,0,1,0,0,0,0,0,11,11,11,,,,,,,,,,,,,,,,,,,,,,,,,,,,,,11,21,female,11,2022_May_06_1033,Partial repeat,2021.2.3,59.79609529387698,
4,2,0,1,3,3,1,1,0,0,1,1,1,0,0,0,12,12,12,0,0,0,0,,,,,,,989.2298972010612,None,993.4970171004534,None,994.2437263000757,None,l,1,1.1154709998518229,994.2437263000757,None,None,None,,,,,,,11,21,female,11,2022_May_06_1033,Partial repeat,2021.2.3,59.79609529387698,
4,2,0,1,3,3,1,1,0,0,1,1,1,0,0,0,12,12,12,1,0,1,0,,,,,,,,,995.38654319942,None,996.3149089999497,None,l,1,0.6522467005997896,996.3149089999497,None,None,None,,,,,,,11,21,female,11,2022_May_06_1033,Partial repeat,2021.2.3,59.79609529387698,
4,2,0,1,3,3,1,1,0,0,1,1,1,0,0,0,12,12,12,,,,,,,,,,,,,,,,,,,,,,,,,,,,,,11,21,female,11,2022_May_06_1033,Partial repeat,2021.2.3,59.79609529387698,
1,4,0,1,3,3,2,1,1,0,1,0,0,0,0,0,13,13,13,0,0,0,0,,,,,,,996.9818941000849,None,999.4085630998015,None,1000.4224079996347,None,s,1,0.760785199701786,1000.4224079996347,None,None,None,,,,,,,11,21,female,11,2022_May_06_1033,Partial repeat,2021.2.3,59.79609529387698,
1,4,0,1,3,3,2,1,1,0,1,0,0,0,0,0,13,13,13,1,0,1,0,,,,,,,,,1001.1920977011323,None,1002.1090970002115,None,l,1,0.6900792010128498,1002.1090970002115,None,None,None,,,,,,,11,21,female,11,2022_May_06_1033,Partial repeat,2021.2.3,59.79609529387698,
1,4,0,1,3,3,2,1,1,0,1,0,0,0,0,0,13,13,13,,,,,,,,,,,,,,,,,,,,,,,,,,,,,,11,21,female,11,2022_May_06_1033,Partial repeat,2021.2.3,59.79609529387698,
1,7,0,1,2,2,2,1,0,0,1,0,1,0,0,0,14,14,14,0,0,0,0,,,,,,,1002.824461299926,None,1005.2866748999804,None,1006.083646800369,None,l,1,0.5075505003333092,1006.083646800369,None,None,None,,,,,,,11,21,female,11,2022_May_06_1033,Partial repeat,2021.2.3,59.79609529387698,
1,7,0,1,2,2,2,1,0,0,1,0,1,0,0,0,14,14,14,1,0,1,0,,,,,,,,,1006.6191528011113,None,1007.3862079996616,None,l,1,0.6609712988138199,1007.3862079996616,None,None,None,,,,,,,11,21,female,11,2022_May_06_1033,Partial repeat,2021.2.3,59.79609529387698,
1,7,0,1,2,2,2,1,0,0,1,0,1,0,0,0,14,14,14,,,,,,,,,,,,,,,,,,,,,,,,,,,,,,11,21,female,11,2022_May_06_1033,Partial repeat,2021.2.3,59.79609529387698,
6,8,0,1,3,3,1,2,0,0,1,0,1,0,0,0,15,15,15,0,0,0,0,,,,,,,1008.0740674007684,None,1009.04394220002,None,1009.7742337994277,None,l,1,0.5050035007297993,1009.7742337994277,None,None,None,,,,,,,11,21,female,11,2022_May_06_1033,Partial repeat,2021.2.3,59.79609529387698,
6,8,0,1,3,3,1,2,0,0,1,0,1,0,0,0,15,15,15,1,0,1,0,,,,,,,,,1010.305881600827,None,1011.2269484009594,None,l,1,0.5482119992375374,1011.2269484009594,None,None,None,,,,,,,11,21,female,11,2022_May_06_1033,Partial repeat,2021.2.3,59.79609529387698,
6,8,0,1,3,3,1,2,0,0,1,0,1,0,0,0,15,15,15,,,,,,,,,,,,,,,,,,,,,,,,,,,,,,11,21,female,11,2022_May_06_1033,Partial repeat,2021.2.3,59.79609529387698,
7,5,0,1,2,3,1,2,1,0,0,0,0,0,0,0,16,16,16,0,0,0,0,,,,,,,1011.7909408006817,None,1014.4878512006253,None,1015.3349517993629,None,s,1,0.6642017997801304,1015.3349517993629,None,None,None,,,,,,,11,21,female,11,2022_May_06_1033,Partial repeat,2021.2.3,59.79609529387698,
7,5,0,1,2,3,1,2,1,0,0,0,0,0,0,0,16,16,16,1,0,1,0,,,,,,,,,1016.0132934004068,None,1016.754203999415,None,l,1,0.6129457000643015,1016.754203999415,None,None,None,,,,,,,11,21,female,11,2022_May_06_1033,Partial repeat,2021.2.3,59.79609529387698,
7,5,0,1,2,3,1,2,1,0,0,0,0,0,0,0,16,16,16,,,,,,,,,,,,,,,,,,,,,,,,,,,,,,11,21,female,11,2022_May_06_1033,Partial repeat,2021.2.3,59.79609529387698,
4,6,0,1,3,3,1,1,1,1,1,1,1,0,0,0,17,17,17,0,0,0,0,,,,,,,1017.3831782992929,None,1018.061474300921,None,1018.8250000998378,None,s,1,0.5741475988179445,1018.8250000998378,None,None,None,,,,,,,11,21,female,11,2022_May_06_1033,Partial repeat,2021.2.3,59.79609529387698,
4,6,0,1,3,3,1,1,1,1,1,1,1,0,0,0,17,17,17,1,0,1,0,,,,,,,,,1019.4241109006107,None,1020.4280827008188,None,s,1,0.49915519915521145,1020.4280827008188,None,None,None,,,,,,,11,21,female,11,2022_May_06_1033,Partial repeat,2021.2.3,59.79609529387698,
4,6,0,1,3,3,1,1,1,1,1,1,1,0,0,0,17,17,17,,,,,,,,,,,,,,,,,,,,,,,,,,,,,,11,21,female,11,2022_May_06_1033,Partial repeat,2021.2.3,59.79609529387698,
2,5,0,1,2,3,2,2,1,1,0,1,1,0,0,0,18,18,18,0,0,0,0,,,,,,,1020.9412473998964,None,1021.7186386007816,None,1022.6335221007466,None,s,1,0.6936358008533716,1022.6335221007466,None,None,None,,,,,,,11,21,female,11,2022_May_06_1033,Partial repeat,2021.2.3,59.79609529387698,
2,5,0,1,2,3,2,2,1,1,0,1,1,0,0,0,18,18,18,1,0,1,0,,,,,,,,,1023.3541666995734,None,1024.151894999668,None,s,1,0.5032877009361982,1024.151894999668,None,None,None,,,,,,,11,21,female,11,2022_May_06_1033,Partial repeat,2021.2.3,59.79609529387698,
2,5,0,1,2,3,2,2,1,1,0,1,1,0,0,0,18,18,18,,,,,,,,,,,,,,,,,,,,,,,,,,,,,,11,21,female,11,2022_May_06_1033,Partial repeat,2021.2.3,59.79609529387698,
1,3,0,1,2,2,1,2,0,0,1,0,1,0,0,0,19,19,19,0,0,0,0,,,,,,,1024.67268230021,None,1025.3757624998689,None,1026.3238117992878,None,l,1,0.5233561992645264,1026.3238117992878,None,None,None,,,,,,,11,21,female,11,2022_May_06_1033,Partial repeat,2021.2.3,59.79609529387698,
1,3,0,1,2,2,1,2,0,0,1,0,1,0,0,0,19,19,19,1,0,1,0,,,,,,,,,1026.859872000292,None,1027.7257725000381,None,l,1,0.6013540998101234,1027.7257725000381,None,None,None,,,,,,,11,21,female,11,2022_May_06_1033,Partial repeat,2021.2.3,59.79609529387698,
1,3,0,1,2,2,1,2,0,0,1,0,1,0,0,0,19,19,19,,,,,,,,,,,,,,,,,,,,,,,,,,,,,,11,21,female,11,2022_May_06_1033,Partial repeat,2021.2.3,59.79609529387698,
6,1,0,1,3,2,1,1,0,0,0,1,1,0,0,0,20,20,20,0,0,0,0,,,,,,,1028.3517419006675,None,1028.7823315002024,None,1029.7639891002327,None,l,1,0.5792041011154652,1029.7639891002327,None,None,None,,,,,,,11,21,female,11,2022_May_06_1033,Partial repeat,2021.2.3,59.79609529387698,
6,1,0,1,3,2,1,1,0,0,0,1,1,0,0,0,20,20,20,1,0,1,0,,,,,,,,,1030.3582579009235,None,1031.1655131001025,None,l,1,0.5216342005878687,1031.1655131001025,None,None,None,,,,,,,11,21,female,11,2022_May_06_1033,Partial repeat,2021.2.3,59.79609529387698,
6,1,0,1,3,2,1,1,0,0,0,1,1,0,0,0,20,20,20,,,,,,,,,,,,,,,,,,,,,,,,,,,,,,11,21,female,11,2022_May_06_1033,Partial repeat,2021.2.3,59.79609529387698,
2,4,0,1,3,2,1,2,0,0,0,0,1,0,0,0,21,21,21,0,0,0,0,,,,,,,1031.7050203997642,None,1032.8235487006605,None,1033.704009000212,None,l,1,0.7191530000418425,1033.704009000212,None,None,None,,,,,,,11,21,female,11,2022_May_06_1033,Partial repeat,2021.2.3,59.79609529387698,
2,4,0,1,3,2,1,2,0,0,0,0,1,0,0,0,21,21,21,1,0,1,0,,,,,,,,,1034.4501502010971,None,1035.2236774004996,None,l,1,0.5355162993073463,1035.2236774004996,None,None,None,,,,,,,11,21,female,11,2022_May_06_1033,Partial repeat,2021.2.3,59.79609529387698,
2,4,0,1,3,2,1,2,0,0,0,0,1,0,0,0,21,21,21,,,,,,,,,,,,,,,,,,,,,,,,,,,,,,11,21,female,11,2022_May_06_1033,Partial repeat,2021.2.3,59.79609529387698,
3,8,0,1,2,2,2,2,1,0,1,1,0,0,0,0,22,22,22,0,0,0,0,,,,,,,1035.7892758995295,None,1036.964966000989,None,1037.6963963005692,None,s,1,0.6547961011528969,1037.6963963005692,None,None,None,,,,,,,11,21,female,11,2022_May_06_1033,Partial repeat,2021.2.3,59.79609529387698,
3,8,0,1,2,2,2,2,1,0,1,1,0,0,0,0,22,22,22,1,0,1,0,,,,,,,,,1038.3791934996843,None,1039.3988371007144,None,l,1,0.6483126003295183,1039.3988371007144,None,None,None,,,,,,,11,21,female,11,2022_May_06_1033,Partial repeat,2021.2.3,59.79609529387698,
3,8,0,1,2,2,2,2,1,0,1,1,0,0,0,0,22,22,22,,,,,,,,,,,,,,,,,,,,,,,,,,,,,,11,21,female,11,2022_May_06_1033,Partial repeat,2021.2.3,59.79609529387698,
8,1,0,1,3,2,2,1,1,0,0,0,0,0,0,0,23,23,23,0,0,0,0,,,,,,,1040.0666457004845,None,1041.2065575011075,None,1042.020113799721,None,l,0,0.7790744006633759,1042.020113799721,None,1042.8267155010253,None,,,,,,,11,21,female,11,2022_May_06_1033,Partial repeat,2021.2.3,59.79609529387698,
8,1,0,1,3,2,2,1,1,0,0,0,0,0,0,0,23,23,23,1,0,1,0,,,,,,,,,1043.3273344002664,None,1044.057211400941,None,l,1,0.653923699632287,1044.057211400941,None,None,None,,,,,,,11,21,female,11,2022_May_06_1033,Partial repeat,2021.2.3,59.79609529387698,
8,1,0,1,3,2,2,1,1,0,0,0,0,0,0,0,23,23,23,,,,,,,,,,,,,,,,,,,,,,,,,,,,,,11,21,female,11,2022_May_06_1033,Partial repeat,2021.2.3,59.79609529387698,
4,3,0,1,2,2,1,1,1,0,1,1,0,0,0,0,24,24,24,0,0,0,0,,,,,,,1044.7261840999126,None,1045.331230700016,None,1046.1781054008752,None,s,1,0.6370387002825737,1046.1781054008752,None,None,None,,,,,,,11,21,female,11,2022_May_06_1033,Partial repeat,2021.2.3,59.79609529387698,
4,3,0,1,2,2,1,1,1,0,1,1,0,0,0,0,24,24,24,1,0,1,0,,,,,,,,,1046.839017501101,None,1047.7480188999325,None,l,1,0.9631206002086401,1047.7480188999325,None,None,None,,,,,,,11,21,female,11,2022_May_06_1033,Partial repeat,2021.2.3,59.79609529387698,
4,3,0,1,2,2,1,1,1,0,1,1,0,0,0,0,24,24,24,,,,,,,,,,,,,,,,,,,,,,,,,,,,,,11,21,female,11,2022_May_06_1033,Partial repeat,2021.2.3,59.79609529387698,
6,4,0,1,3,2,1,1,1,1,0,1,1,0,0,0,25,25,25,0,0,0,0,,,,,,,1048.7377726994455,None,1049.606216199696,None,1050.5034663993865,None,s,1,0.6796694993972778,1050.5034663993865,None,None,None,,,,,,,11,21,female,11,2022_May_06_1033,Partial repeat,2021.2.3,59.79609529387698,
6,4,0,1,3,2,1,1,1,1,0,1,1,0,0,0,25,25,25,1,0,1,0,,,,,,,,,1051.206572899595,None,1052.1897657997906,None,s,1,0.6415109988301992,1052.1897657997906,None,None,None,,,,,,,11,21,female,11,2022_May_06_1033,Partial repeat,2021.2.3,59.79609529387698,
6,4,0,1,3,2,1,1,1,1,0,1,1,0,0,0,25,25,25,,,,,,,,,,,,,,,,,,,,,,,,,,,,,,11,21,female,11,2022_May_06_1033,Partial repeat,2021.2.3,59.79609529387698,
7,1,0,1,2,3,2,2,0,1,0,1,0,0,0,0,26,26,26,0,0,0,0,,,,,,,1052.8437622003257,None,1054.6994151994586,None,1055.5978152006865,None,l,1,0.6094080992043018,1055.5978152006865,None,None,None,,,,,,,11,21,female,11,2022_May_06_1033,Partial repeat,2021.2.3,59.79609529387698,
7,1,0,1,2,3,2,2,0,1,0,1,0,0,0,0,26,26,26,1,0,1,0,,,,,,,,,1056.2356992010027,None,1057.0161426998675,None,s,1,0.7190035991370678,1057.0161426998675,None,None,None,,,,,,,11,21,female,11,2022_May_06_1033,Partial repeat,2021.2.3,59.79609529387698,
7,1,0,1,2,3,2,2,0,1,0,1,0,0,0,0,26,26,26,,,,,,,,,,,,,,,,,,,,,,,,,,,,,,11,21,female,11,2022_May_06_1033,Partial repeat,2021.2.3,59.79609529387698,
4,5,0,1,2,3,1,1,1,0,0,1,0,0,0,0,27,27,27,0,0,0,0,,,,,,,1057.752477299422,None,1059.3251236006618,None,1060.272498799488,None,s,1,0.7266185991466045,1060.272498799488,None,None,None,,,,,,,11,21,female,11,2022_May_06_1033,Partial repeat,2021.2.3,59.79609529387698,
4,5,0,1,2,3,1,1,1,0,0,1,0,0,0,0,27,27,27,1,0,1,0,,,,,,,,,1061.0199785996228,None,1061.8254601005465,None,l,1,0.6457356996834278,1061.8254601005465,None,None,None,,,,,,,11,21,female,11,2022_May_06_1033,Partial repeat,2021.2.3,59.79609529387698,
4,5,0,1,2,3,1,1,1,0,0,1,0,0,0,0,27,27,27,,,,,,,,,,,,,,,,,,,,,,,,,,,,,,11,21,female,11,2022_May_06_1033,Partial repeat,2021.2.3,59.79609529387698,
7,7,0,1,2,3,2,1,1,0,0,0,0,0,0,0,28,28,28,0,0,0,0,,,,,,,1062.492324899882,None,1063.1325457002968,None,1063.9464819002897,None,s,1,0.8366815000772476,1063.9464819002897,None,None,None,,,,,,,11,21,female,11,2022_May_06_1033,Partial repeat,2021.2.3,59.79609529387698,
7,7,0,1,2,3,2,1,1,0,0,0,0,0,0,0,28,28,28,1,0,1,0,,,,,,,,,1064.8107994999737,None,1065.6996403001249,None,l,1,0.5154524985700846,1065.6996403001249,None,None,None,,,,,,,11,21,female,11,2022_May_06_1033,Partial repeat,2021.2.3,59.79609529387698,
7,7,0,1,2,3,2,1,1,0,0,0,0,0,0,0,28,28,28,,,,,,,,,,,,,,,,,,,,,,,,,,,,,,11,21,female,11,2022_May_06_1033,Partial repeat,2021.2.3,59.79609529387698,
3,4,0,1,2,2,2,1,0,1,1,0,0,0,0,0,29,29,29,0,0,0,0,,,,,,,1066.2413323000073,None,1066.8731439001858,None,1067.6199815999717,None,l,1,0.7552113998681307,1067.6199815999717,None,None,None,,,,,,,11,21,female,11,2022_May_06_1033,Partial repeat,2021.2.3,59.79609529387698,
3,4,0,1,2,2,2,1,0,1,1,0,0,0,0,0,29,29,29,1,0,1,0,,,,,,,,,1068.3873172011226,None,1069.2900715004653,None,s,1,0.5731256995350122,1069.2900715004653,None,None,None,,,,,,,11,21,female,11,2022_May_06_1033,Partial repeat,2021.2.3,59.79609529387698,
3,4,0,1,2,2,2,1,0,1,1,0,0,0,0,0,29,29,29,,,,,,,,,,,,,,,,,,,,,,,,,,,,,,11,21,female,11,2022_May_06_1033,Partial repeat,2021.2.3,59.79609529387698,
8,2,0,1,3,3,1,1,1,0,1,1,0,0,0,0,30,30,30,0,0,0,0,,,,,,,1069.8769499007612,None,1070.546883000061,None,1071.5610931999981,None,s,1,0.6620370987802744,1071.5610931999981,None,None,None,,,,,,,11,21,female,11,2022_May_06_1033,Partial repeat,2021.2.3,59.79609529387698,
8,2,0,1,3,3,1,1,1,0,1,1,0,0,0,0,30,30,30,1,0,1,0,,,,,,,,,1072.2435145005584,None,1073.2152891010046,None,l,1,0.7198332007974386,1073.2152891010046,None,None,None,,,,,,,11,21,female,11,2022_May_06_1033,Partial repeat,2021.2.3,59.79609529387698,
8,2,0,1,3,3,1,1,1,0,1,1,0,0,0,0,30,30,30,,,,,,,,,,,,,,,,,,,,,,,,,,,,,,11,21,female,11,2022_May_06_1033,Partial repeat,2021.2.3,59.79609529387698,
7,3,0,1,2,2,2,2,1,1,1,1,1,0,0,0,31,31,31,0,0,0,0,,,,,,,1073.9480349998921,None,1075.6903438009322,None,1076.4207282997668,None,s,1,0.738391000777483,1076.4207282997668,None,None,None,,,,,,,11,21,female,11,2022_May_06_1033,Partial repeat,2021.2.3,59.79609529387698,
7,3,0,1,2,2,2,2,1,1,1,1,1,0,0,0,31,31,31,1,0,1,0,,,,,,,,,1077.1744438000023,None,1078.0915815010667,None,s,1,0.6915528997778893,1078.0915815010667,None,None,None,,,,,,,11,21,female,11,2022_May_06_1033,Partial repeat,2021.2.3,59.79609529387698,
7,3,0,1,2,2,2,2,1,1,1,1,1,0,0,0,31,31,31,,,,,,,,,,,,,,,,,,,,,,,,,,,,,,11,21,female,11,2022_May_06_1033,Partial repeat,2021.2.3,59.79609529387698,
1,6,0,1,3,3,2,2,0,0,1,1,1,0,0,0,32,32,32,0,0,0,0,,,,,,,1078.7987360004336,None,1080.5998353995383,None,1081.4133775010705,None,l,1,0.6817335989326239,1081.4133775010705,None,None,None,,,,,,,11,21,female,11,2022_May_06_1033,Partial repeat,2021.2.3,59.79609529387698,
1,6,0,1,3,3,2,2,0,0,1,1,1,0,0,0,32,32,32,1,0,1,0,,,,,,,,,1082.12281130068,None,1082.9176352005452,None,l,1,0.5454792995005846,1082.9176352005452,None,None,None,,,,,,,11,21,female,11,2022_May_06_1033,Partial repeat,2021.2.3,59.79609529387698,
1,6,0,1,3,3,2,2,0,0,1,1,1,0,0,0,32,32,32,,,,,,,,,,,,,,,,,,,,,,,,,,,,,,11,21,female,11,2022_May_06_1033,Partial repeat,2021.2.3,59.79609529387698,
1,2,0,1,2,2,1,2,1,1,1,0,1,0,0,0,33,33,33,0,0,0,0,,,,,,,1083.4913555998355,None,1084.2066559009254,None,1085.153937799856,None,s,1,0.7651835009455681,1085.153937799856,None,None,None,,,,,,,11,21,female,11,2022_May_06_1033,Partial repeat,2021.2.3,59.79609529387698,
1,2,0,1,2,2,1,2,1,1,1,0,1,0,0,0,33,33,33,1,0,1,0,,,,,,,,,1085.9445075001568,None,1086.925165399909,None,s,1,0.5860144011676311,1086.925165399909,None,None,None,,,,,,,11,21,female,11,2022_May_06_1033,Partial repeat,2021.2.3,59.79609529387698,
1,2,0,1,2,2,1,2,1,1,1,0,1,0,0,0,33,33,33,,,,,,,,,,,,,,,,,,,,,,,,,,,,,,11,21,female,11,2022_May_06_1033,Partial repeat,2021.2.3,59.79609529387698,
3,5,0,1,2,3,2,1,0,1,0,0,0,0,0,0,34,34,34,0,0,0,0,,,,,,,1087.5344069004059,None,1088.2313343007118,None,1089.2454000003636,None,l,1,0.5857283994555473,1089.2454000003636,None,None,None,,,,,,,11,21,female,11,2022_May_06_1033,Partial repeat,2021.2.3,59.79609529387698,
3,5,0,1,2,3,2,1,0,1,0,0,0,0,0,0,34,34,34,1,0,1,0,,,,,,,,,1089.8454839009792,None,1090.7324883006513,None,s,1,0.5786274001002312,1090.7324883006513,None,None,None,,,,,,,11,21,female,11,2022_May_06_1033,Partial repeat,2021.2.3,59.79609529387698,
3,5,0,1,2,3,2,1,0,1,0,0,0,0,0,0,34,34,34,,,,,,,,,,,,,,,,,,,,,,,,,,,,,,11,21,female,11,2022_May_06_1033,Partial repeat,2021.2.3,59.79609529387698,
5,4,0,1,3,3,2,2,0,1,1,1,0,0,0,0,35,35,35,0,0,0,0,,,,,,,1091.3387083001435,None,1092.038755999878,None,1092.7862586006522,None,l,1,0.532863000407815,1092.7862586006522,None,None,None,,,,,,,11,21,female,11,2022_May_06_1033,Partial repeat,2021.2.3,59.79609529387698,
5,4,0,1,3,3,2,2,0,1,1,1,0,0,0,0,35,35,35,1,0,1,0,,,,,,,,,1093.3443716000766,None,1094.1714654006064,None,s,1,0.787644200026989,1094.1714654006064,None,None,None,,,,,,,11,21,female,11,2022_May_06_1033,Partial repeat,2021.2.3,59.79609529387698,
5,4,0,1,3,3,2,2,0,1,1,1,0,0,0,0,35,35,35,,,,,,,,,,,,,,,,,,,,,,,,,,,,,,11,21,female,11,2022_May_06_1033,Partial repeat,2021.2.3,59.79609529387698,
3,1,0,1,3,2,1,2,0,1,0,0,0,0,0,0,36,36,36,0,0,0,0,,,,,,,1094.9818866010755,None,1095.4620824996382,None,1096.1757282000035,None,l,1,0.5833803992718458,1096.1757282000035,None,None,None,,,,,,,11,21,female,11,2022_May_06_1033,Partial repeat,2021.2.3,59.79609529387698,
3,1,0,1,3,2,1,2,0,1,0,0,0,0,0,0,36,36,36,1,0,1,0,,,,,,,,,1096.7754416000098,None,1097.6618533004075,None,s,1,2.1213344987481833,1097.6618533004075,None,None,None,,,,,,,11,21,female,11,2022_May_06_1033,Partial repeat,2021.2.3,59.79609529387698,
3,1,0,1,3,2,1,2,0,1,0,0,0,0,0,0,36,36,36,,,,,,,,,,,,,,,,,,,,,,,,,,,,,,11,21,female,11,2022_May_06_1033,Partial repeat,2021.2.3,59.79609529387698,
7,6,0,1,3,3,2,1,1,1,1,0,1,0,0,0,37,37,37,0,0,0,0,,,,,,,1099.8124260008335,None,1100.204653199762,None,1101.0517161004245,None,s,1,0.6355384010821581,1101.0517161004245,None,None,None,,,,,,,11,21,female,11,2022_May_06_1033,Partial repeat,2021.2.3,59.79609529387698,
7,6,0,1,3,3,2,1,1,1,1,0,1,0,0,0,37,37,37,1,0,1,0,,,,,,,,,1101.6979891993105,None,1102.7058195006102,None,s,1,0.5173032991588116,1102.7058195006102,None,None,None,,,,,,,11,21,female,11,2022_May_06_1033,Partial repeat,2021.2.3,59.79609529387698,
7,6,0,1,3,3,2,1,1,1,1,0,1,0,0,0,37,37,37,,,,,,,,,,,,,,,,,,,,,,,,,,,,,,11,21,female,11,2022_May_06_1033,Partial repeat,2021.2.3,59.79609529387698,
2,3,0,1,3,2,1,2,1,1,0,0,1,0,0,0,38,38,38,0,0,0,0,,,,,,,1103.2483651004732,None,1105.0473712999374,None,1105.8445191010833,None,s,1,0.6106220986694098,1105.8445191010833,None,None,None,,,,,,,11,21,female,11,2022_May_06_1033,Partial repeat,2021.2.3,59.79609529387698,
2,3,0,1,3,2,1,2,1,1,0,0,1,0,0,0,38,38,38,1,0,1,0,,,,,,,,,1106.4676098003983,None,1107.3476733006537,None,s,1,0.5714563988149166,1107.3476733006537,None,None,None,,,,,,,11,21,female,11,2022_May_06_1033,Partial repeat,2021.2.3,59.79609529387698,
2,3,0,1,3,2,1,2,1,1,0,0,1,0,0,0,38,38,38,,,,,,,,,,,,,,,,,,,,,,,,,,,,,,11,21,female,11,2022_May_06_1033,Partial repeat,2021.2.3,59.79609529387698,
7,4,0,1,3,2,2,1,0,0,0,0,1,0,0,0,39,39,39,0,0,0,0,,,,,,,1107.9364761002362,None,1108.4706612993032,None,1109.4680006001145,None,l,1,0.7951123006641865,1109.4680006001145,None,None,None,,,,,,,11,21,female,11,2022_May_06_1033,Partial repeat,2021.2.3,59.79609529387698,
7,4,0,1,3,2,2,1,0,0,0,0,1,0,0,0,39,39,39,1,0,1,0,,,,,,,,,1110.282509200275,None,1111.0045353006572,None,l,1,0.7465386986732483,1111.0045353006572,None,None,None,,,,,,,11,21,female,11,2022_May_06_1033,Partial repeat,2021.2.3,59.79609529387698,
7,4,0,1,3,2,2,1,0,0,0,0,1,0,0,0,39,39,39,,,,,,,,,,,,,,,,,,,,,,,,,,,,,,11,21,female,11,2022_May_06_1033,Partial repeat,2021.2.3,59.79609529387698,
8,7,0,1,3,2,2,2,0,1,0,1,0,0,0,0,40,40,40,0,0,0,0,,,,,,,1111.7818799000233,None,1112.2280126009136,None,1113.1423135995865,None,l,1,0.5288349017500877,1113.1423135995865,None,None,None,,,,,,,11,21,female,11,2022_May_06_1033,Partial repeat,2021.2.3,59.79609529387698,
8,7,0,1,3,2,2,2,0,1,0,1,0,0,0,0,40,40,40,1,0,1,0,,,,,,,,,1113.6800766009837,None,1114.4776451010257,None,s,1,0.6654546000063419,1114.4776451010257,None,None,None,,,,,,,11,21,female,11,2022_May_06_1033,Partial repeat,2021.2.3,59.79609529387698,
8,7,0,1,3,2,2,2,0,1,0,1,0,0,0,0,40,40,40,,,,,,,,,,,,,,,,,,,,,,,,,,,,,,11,21,female,11,2022_May_06_1033,Partial repeat,2021.2.3,59.79609529387698,
5,6,0,1,3,3,2,1,0,0,1,0,1,0,0,0,41,41,41,0,0,0,0,,,,,,,1115.1651355009526,None,1115.8183642998338,None,1116.565246000886,None,l,1,0.6658359002321959,1116.565246000886,None,None,None,,,,,,,11,21,female,11,2022_May_06_1033,Partial repeat,2021.2.3,59.79609529387698,
5,6,0,1,3,3,2,1,0,0,1,0,1,0,0,0,41,41,41,1,0,1,0,,,,,,,,,1117.2511395011097,None,1118.017931299284,None,l,1,0.6131075005978346,1118.017931299284,None,None,None,,,,,,,11,21,female,11,2022_May_06_1033,Partial repeat,2021.2.3,59.79609529387698,
5,6,0,1,3,3,2,1,0,0,1,0,1,0,0,0,41,41,41,,,,,,,,,,,,,,,,,,,,,,,,,,,,,,11,21,female,11,2022_May_06_1033,Partial repeat,2021.2.3,59.79609529387698,
5,2,0,1,2,2,2,1,1,0,1,0,0,0,0,0,42,42,42,0,0,0,0,,,,,,,1118.6506831999868,None,1119.926326500252,None,1120.6395967006683,None,s,1,0.5275850985199213,1120.6395967006683,None,None,None,,,,,,,11,21,female,11,2022_May_06_1033,Partial repeat,2021.2.3,59.79609529387698,
5,2,0,1,2,2,2,1,1,0,1,0,0,0,0,0,42,42,42,1,0,1,0,,,,,,,,,1121.1781639009714,None,1122.0589285995811,None,l,1,0.860300499945879,1122.0589285995811,None,None,None,,,,,,,11,21,female,11,2022_May_06_1033,Partial repeat,2021.2.3,59.79609529387698,
5,2,0,1,2,2,2,1,1,0,1,0,0,0,0,0,42,42,42,,,,,,,,,,,,,,,,,,,,,,,,,,,,,,11,21,female,11,2022_May_06_1033,Partial repeat,2021.2.3,59.79609529387698,
4,4,0,1,2,2,2,1,1,1,1,0,1,0,0,0,43,43,43,0,0,0,0,,,,,,,1122.9320221003145,None,1124.1846293993294,None,1124.948247300461,None,s,1,0.6349458005279303,1124.948247300461,None,None,None,,,,,,,11,21,female,11,2022_May_06_1033,Partial repeat,2021.2.3,59.79609529387698,
4,4,0,1,2,2,2,1,1,1,1,0,1,0,0,0,43,43,43,1,0,1,0,,,,,,,,,1125.6112175993621,None,1126.4352870006114,None,s,1,0.48379229940474033,1126.4352870006114,None,None,None,,,,,,,11,21,female,11,2022_May_06_1033,Partial repeat,2021.2.3,59.79609529387698,
4,4,0,1,2,2,2,1,1,1,1,0,1,0,0,0,43,43,43,,,,,,,,,,,,,,,,,,,,,,,,,,,,,,11,21,female,11,2022_May_06_1033,Partial repeat,2021.2.3,59.79609529387698,
6,3,0,1,2,2,2,2,0,0,1,1,1,0,0,0,44,44,44,0,0,0,0,,,,,,,1126.933503801003,None,1127.6580370999873,None,1128.4384249001741,None,l,1,0.5526443012058735,1128.4384249001741,None,None,None,,,,,,,11,21,female,11,2022_May_06_1033,Partial repeat,2021.2.3,59.79609529387698,
6,3,0,1,2,2,2,2,0,0,1,1,1,0,0,0,44,44,44,1,0,1,0,,,,,,,,,1129.0204595010728,None,1129.757602300495,None,l,1,0.5374951995909214,1129.757602300495,None,None,None,,,,,,,11,21,female,11,2022_May_06_1033,Partial repeat,2021.2.3,59.79609529387698,
6,3,0,1,2,2,2,2,0,0,1,1,1,0,0,0,44,44,44,,,,,,,,,,,,,,,,,,,,,,,,,,,,,,11,21,female,11,2022_May_06_1033,Partial repeat,2021.2.3,59.79609529387698,
2,7,0,1,3,3,1,2,0,1,1,0,0,0,0,0,45,45,45,0,0,0,0,,,,,,,1130.3235186003149,None,1131.7159521002322,None,1132.5304304994643,None,l,1,0.7647603005170822,1132.5304304994643,None,None,None,,,,,,,11,21,female,11,2022_May_06_1033,Partial repeat,2021.2.3,59.79609529387698,
2,7,0,1,3,3,1,2,0,1,1,0,0,0,0,0,45,45,45,1,0,1,0,,,,,,,,,1133.3232426010072,None,1134.3168723005801,None,s,1,0.9862232990562916,1134.3168723005801,None,None,None,,,,,,,11,21,female,11,2022_May_06_1033,Partial repeat,2021.2.3,59.79609529387698,
2,7,0,1,3,3,1,2,0,1,1,0,0,0,0,0,45,45,45,,,,,,,,,,,,,,,,,,,,,,,,,,,,,,11,21,female,11,2022_May_06_1033,Partial repeat,2021.2.3,59.79609529387698,
5,8,0,1,3,2,1,2,1,0,0,0,0,0,0,0,46,46,46,0,0,0,0,,,,,,,1135.326602600515,None,1135.807172499597,None,1136.5709991995245,None,s,1,0.5561536997556686,1136.5709991995245,None,None,None,,,,,,,11,21,female,11,2022_May_06_1033,Partial repeat,2021.2.3,59.79609529387698,
5,8,0,1,3,2,1,2,1,0,0,0,0,0,0,0,46,46,46,1,0,1,0,,,,,,,,,1137.1357141006738,None,1138.1406335998327,None,l,1,0.7304583005607128,1138.1406335998327,None,None,None,,,,,,,11,21,female,11,2022_May_06_1033,Partial repeat,2021.2.3,59.79609529387698,
5,8,0,1,3,2,1,2,1,0,0,0,0,0,0,0,46,46,46,,,,,,,,,,,,,,,,,,,,,,,,,,,,,,11,21,female,11,2022_May_06_1033,Partial repeat,2021.2.3,59.79609529387698,
6,7,0,1,2,2,1,1,1,1,1,1,1,0,0,0,47,47,47,0,0,0,0,,,,,,,1138.8918050993234,None,1140.1990363001823,None,1141.079612100497,None,s,1,0.6234361007809639,1141.079612100497,None,None,None,,,,,,,11,21,female,11,2022_May_06_1033,Partial repeat,2021.2.3,59.79609529387698,
6,7,0,1,2,2,1,1,1,1,1,1,1,0,0,0,47,47,47,1,0,1,0,,,,,,,,,1141.7222637999803,None,1142.582658400759,None,s,1,0.5685200989246368,1142.582658400759,None,None,None,,,,,,,11,21,female,11,2022_May_06_1033,Partial repeat,2021.2.3,59.79609529387698,
6,7,0,1,2,2,1,1,1,1,1,1,1,0,0,0,47,47,47,,,,,,,,,,,,,,,,,,,,,,,,,,,,,,11,21,female,11,2022_May_06_1033,Partial repeat,2021.2.3,59.79609529387698,
4,7,0,1,2,3,2,1,1,1,0,0,1,0,0,0,48,48,48,0,0,0,0,,,,,,,1143.1628802996129,None,1143.8562273010612,None,1144.669826099649,None,s,1,0.6492623016238213,1144.669826099649,None,None,None,,,,,,,11,21,female,11,2022_May_06_1033,Partial repeat,2021.2.3,59.79609529387698,
4,7,0,1,2,3,2,1,1,1,0,0,1,0,0,0,48,48,48,1,0,1,0,,,,,,,,,1145.3318147007376,None,1146.05571519956,None,s,1,0.5513726007193327,1146.05571519956,None,None,None,,,,,,,11,21,female,11,2022_May_06_1033,Partial repeat,2021.2.3,59.79609529387698,
4,7,0,1,2,3,2,1,1,1,0,0,1,0,0,0,48,48,48,,,,,,,,,,,,,,,,,,,,,,,,,,,,,,11,21,female,11,2022_May_06_1033,Partial repeat,2021.2.3,59.79609529387698,
6,2,0,1,3,3,2,1,0,1,1,0,0,0,0,0,49,49,49,0,0,0,0,,,,,,,1146.6190213002264,None,1147.1125559993088,None,1148.0766196995974,None,l,1,0.5305013991892338,1148.0766196995974,None,None,None,,,,,,,11,21,female,11,2022_May_06_1033,Partial repeat,2021.2.3,59.79609529387698,
6,2,0,1,3,3,2,1,0,1,1,0,0,0,0,0,49,49,49,1,0,1,0,,,,,,,,,1148.6149532999843,None,1149.445661900565,None,s,1,0.5694345999509096,1149.445661900565,None,None,None,,,,,,,11,21,female,11,2022_May_06_1033,Partial repeat,2021.2.3,59.79609529387698,
6,2,0,1,3,3,2,1,0,1,1,0,0,0,0,0,49,49,49,,,,,,,,,,,,,,,,,,,,,,,,,,,,,,11,21,female,11,2022_May_06_1033,Partial repeat,2021.2.3,59.79609529387698,
3,3,0,1,2,3,1,1,0,0,0,1,1,0,0,0,50,50,50,0,0,0,0,,,,,,,1150.0309903007,None,1150.4523323010653,None,1151.1991671994328,None,l,1,0.7599046006798744,1151.1991671994328,None,None,None,,,,,,,11,21,female,11,2022_May_06_1033,Partial repeat,2021.2.3,59.79609529387698,
3,3,0,1,2,3,1,1,0,0,0,1,1,0,0,0,50,50,50,1,0,1,0,,,,,,,,,1151.9863153994083,None,1152.935990801081,None,l,1,0.5590962003916502,1152.935990801081,None,None,None,,,,,,,11,21,female,11,2022_May_06_1033,Partial repeat,2021.2.3,59.79609529387698,
3,3,0,1,2,3,1,1,0,0,0,1,1,0,0,0,50,50,50,,,,,,,,,,,,,,,,,,,,,,,,,,,,,,11,21,female,11,2022_May_06_1033,Partial repeat,2021.2.3,59.79609529387698,
5,5,0,1,3,3,2,2,1,0,1,1,0,0,0,0,51,51,51,0,0,0,0,,,,,,,1153.5221202000976,None,1156.3137937001884,None,1157.178276700899,None,s,1,0.48480300046503544,1157.178276700899,None,None,None,,,,,,,11,21,female,11,2022_May_06_1033,Partial repeat,2021.2.3,59.79609529387698,
5,5,0,1,3,3,2,2,1,0,1,1,0,0,0,0,51,51,51,1,0,1,0,,,,,,,,,1157.6794646997005,None,1158.430796900764,None,l,1,0.5602793991565704,1158.430796900764,None,None,None,,,,,,,11,21,female,11,2022_May_06_1033,Partial repeat,2021.2.3,59.79609529387698,
5,5,0,1,3,3,2,2,1,0,1,1,0,0,0,0,51,51,51,,,,,,,,,,,,,,,,,,,,,,,,,,,,,,11,21,female,11,2022_May_06_1033,Partial repeat,2021.2.3,59.79609529387698,
8,4,0,1,2,2,1,1,0,1,1,1,0,0,0,0,52,52,52,0,0,0,0,,,,,,,1159.019131001085,None,1159.4531996008009,None,1160.4503445997834,None,l,1,0.5967436991631985,1160.4503445997834,None,None,None,,,,,,,11,21,female,11,2022_May_06_1033,Partial repeat,2021.2.3,59.79609529387698,
8,4,0,1,2,2,1,1,0,1,1,1,0,0,0,0,52,52,52,1,0,1,0,,,,,,,,,1161.0729249995202,None,1162.0538548007607,None,s,1,0.5692245997488499,1162.0538548007607,None,None,None,,,,,,,11,21,female,11,2022_May_06_1033,Partial repeat,2021.2.3,59.79609529387698,
8,4,0,1,2,2,1,1,0,1,1,1,0,0,0,0,52,52,52,,,,,,,,,,,,,,,,,,,,,,,,,,,,,,11,21,female,11,2022_May_06_1033,Partial repeat,2021.2.3,59.79609529387698,
2,1,0,1,3,2,2,1,0,1,0,0,0,0,0,0,53,53,53,0,0,0,0,,,,,,,1162.6391781009734,None,1163.026865201071,None,1164.0075547005981,None,l,1,0.6315313000231981,1164.0075547005981,None,None,None,,,,,,,11,21,female,11,2022_May_06_1033,Partial repeat,2021.2.3,59.79609529387698,
2,1,0,1,3,2,2,1,0,1,0,0,0,0,0,0,53,53,53,1,0,1,0,,,,,,,,,1164.6518351007253,None,1165.52817199938,None,s,1,0.7349340002983809,1165.52817199938,None,None,None,,,,,,,11,21,female,11,2022_May_06_1033,Partial repeat,2021.2.3,59.79609529387698,
2,1,0,1,3,2,2,1,0,1,0,0,0,0,0,0,53,53,53,,,,,,,,,,,,,,,,,,,,,,,,,,,,,,11,21,female,11,2022_May_06_1033,Partial repeat,2021.2.3,59.79609529387698,
7,8,0,1,3,3,1,2,1,0,1,0,0,0,0,0,54,54,54,0,0,0,0,,,,,,,1166.2785554006696,None,1166.7841330002993,None,1167.7147800009698,None,s,1,0.7003022991120815,1167.7147800009698,None,None,None,,,,,,,11,21,female,11,2022_May_06_1033,Partial repeat,2021.2.3,59.79609529387698,
7,8,0,1,3,3,1,2,1,0,1,0,0,0,0,0,54,54,54,1,0,1,0,,,,,,,,,1168.4398386999965,None,1169.2842803001404,None,l,1,0.4908085986971855,1169.2842803001404,None,None,None,,,,,,,11,21,female,11,2022_May_06_1033,Partial repeat,2021.2.3,59.79609529387698,
7,8,0,1,3,3,1,2,1,0,1,0,0,0,0,0,54,54,54,,,,,,,,,,,,,,,,,,,,,,,,,,,,,,11,21,female,11,2022_May_06_1033,Partial repeat,2021.2.3,59.79609529387698,
7,2,0,1,2,3,1,1,1,1,0,1,1,0,0,0,55,55,55,0,0,0,0,,,,,,,1169.8050829004496,None,1170.4245878010988,None,1171.3383937999606,None,s,1,0.5806748010218143,1171.3383937999606,None,None,None,,,,,,,11,21,female,11,2022_May_06_1033,Partial repeat,2021.2.3,59.79609529387698,
7,2,0,1,2,3,1,1,1,1,0,1,1,0,0,0,55,55,55,1,0,1,0,,,,,,,,,1171.939403699711,None,1172.8918638993055,None,s,1,0.6832816991955042,1172.8918638993055,None,None,None,,,,,,,11,21,female,11,2022_May_06_1033,Partial repeat,2021.2.3,59.79609529387698,
7,2,0,1,2,3,1,1,1,1,0,1,1,0,0,0,55,55,55,,,,,,,,,,,,,,,,,,,,,,,,,,,,,,11,21,female,11,2022_May_06_1033,Partial repeat,2021.2.3,59.79609529387698,
5,7,0,1,2,2,1,2,0,1,1,0,0,0,0,0,56,56,56,0,0,0,0,,,,,,,1173.6055954992771,None,1174.8164457008243,None,1175.830336900428,None,l,1,0.6647868007421494,1175.830336900428,None,None,None,,,,,,,11,21,female,11,2022_May_06_1033,Partial repeat,2021.2.3,59.79609529387698,
5,7,0,1,2,2,1,2,0,1,1,0,0,0,0,0,56,56,56,1,0,1,0,,,,,,,,,1176.5230654999614,None,1177.5167801007628,None,s,1,0.7942873984575272,1177.5167801007628,None,None,None,,,,,,,11,21,female,11,2022_May_06_1033,Partial repeat,2021.2.3,59.79609529387698,
5,7,0,1,2,2,1,2,0,1,1,0,0,0,0,0,56,56,56,,,,,,,,,,,,,,,,,,,,,,,,,,,,,,11,21,female,11,2022_May_06_1033,Partial repeat,2021.2.3,59.79609529387698,
3,6,0,1,3,2,1,1,1,0,0,1,0,0,0,0,57,57,57,0,0,0,0,,,,,,,1178.334736900404,None,1178.8743405006826,None,1179.8882395010442,None,s,1,0.6228248998522758,1179.8882395010442,None,None,None,,,,,,,11,21,female,11,2022_May_06_1033,Partial repeat,2021.2.3,59.79609529387698,
3,6,0,1,3,2,1,1,1,0,0,1,0,0,0,0,57,57,57,1,0,1,0,,,,,,,,,1180.5308785997331,None,1181.424575900659,None,l,1,0.5185151007026434,1181.424575900659,None,None,None,,,,,,,11,21,female,11,2022_May_06_1033,Partial repeat,2021.2.3,59.79609529387698,
3,6,0,1,3,2,1,1,1,0,0,1,0,0,0,0,57,57,57,,,,,,,,,,,,,,,,,,,,,,,,,,,,,,11,21,female,11,2022_May_06_1033,Partial repeat,2021.2.3,59.79609529387698,
8,3,0,1,2,3,2,2,1,0,0,1,0,0,0,0,58,58,58,0,0,0,0,,,,,,,1181.9656131006777,None,1182.631645200774,None,1183.4286952000111,None,s,1,0.5864065997302532,1183.4286952000111,None,None,None,,,,,,,11,21,female,11,2022_May_06_1033,Partial repeat,2021.2.3,59.79609529387698,
8,3,0,1,2,3,2,2,1,0,0,1,0,0,0,0,58,58,58,1,0,1,0,,,,,,,,,1184.0274097006768,None,1184.76456990093,None,l,1,0.5864965990185738,1184.76456990093,None,None,None,,,,,,,11,21,female,11,2022_May_06_1033,Partial repeat,2021.2.3,59.79609529387698,
8,3,0,1,2,3,2,2,1,0,0,1,0,0,0,0,58,58,58,,,,,,,,,,,,,,,,,,,,,,,,,,,,,,11,21,female,11,2022_May_06_1033,Partial repeat,2021.2.3,59.79609529387698,
6,5,0,1,3,3,2,2,1,1,1,1,1,0,0,0,59,59,59,0,0,0,0,,,,,,,1185.3687084000558,None,1185.9714630004019,None,1186.9352356996387,None,s,1,0.551943801343441,1186.9352356996387,None,None,None,,,,,,,11,21,female,11,2022_May_06_1033,Partial repeat,2021.2.3,59.79609529387698,
6,5,0,1,3,3,2,2,1,1,1,1,1,0,0,0,59,59,59,1,0,1,0,,,,,,,,,1187.4960350003093,None,1188.2380232997239,None,s,1,0.48908479884266853,1188.2380232997239,None,None,None,,,,,,,11,21,female,11,2022_May_06_1033,Partial repeat,2021.2.3,59.79609529387698,
6,5,0,1,3,3,2,2,1,1,1,1,1,0,0,0,59,59,59,,,,,,,,,,,,,,,,,,,,,,,,,,,,,,11,21,female,11,2022_May_06_1033,Partial repeat,2021.2.3,59.79609529387698,
8,6,0,1,2,3,2,1,0,0,0,0,1,0,0,0,60,60,60,0,0,0,0,,,,,,,1188.75720510073,None,1189.3446823004633,None,1190.1764122005552,None,l,1,0.7106141000986099,1190.1764122005552,None,None,None,,,,,,,11,21,female,11,2022_May_06_1033,Partial repeat,2021.2.3,59.79609529387698,
8,6,0,1,2,3,2,1,0,0,0,0,1,0,0,0,60,60,60,1,0,1,0,,,,,,,,,1190.8982712998986,None,1191.8116325009614,None,l,1,0.5714356992393732,1191.8116325009614,None,None,None,,,,,,,11,21,female,11,2022_May_06_1033,Partial repeat,2021.2.3,59.79609529387698,
8,6,0,1,2,3,2,1,0,0,0,0,1,0,0,0,60,60,60,,,,,,,,,,,,,,,,,,,,,,,,,,,,,,11,21,female,11,2022_May_06_1033,Partial repeat,2021.2.3,59.79609529387698,
2,6,0,1,3,2,2,2,1,1,0,1,1,0,0,0,61,61,61,0,0,0,0,,,,,,,1192.411704801023,None,1192.8514914996922,None,1193.8488729000092,None,s,1,0.6542396992444992,1193.8488729000092,None,None,None,,,,,,,11,21,female,11,2022_May_06_1033,Partial repeat,2021.2.3,59.79609529387698,
2,6,0,1,3,2,2,2,1,1,0,1,1,0,0,0,61,61,61,1,0,1,0,,,,,,,,,1194.5119205005467,None,1195.4352244008332,None,s,1,0.6198609005659819,1195.4352244008332,None,None,None,,,,,,,11,21,female,11,2022_May_06_1033,Partial repeat,2021.2.3,59.79609529387698,
2,6,0,1,3,2,2,2,1,1,0,1,1,0,0,0,61,61,61,,,,,,,,,,,,,,,,,,,,,,,,,,,,,,11,21,female,11,2022_May_06_1033,Partial repeat,2021.2.3,59.79609529387698,
8,8,0,1,3,3,1,1,0,1,1,1,0,0,0,0,62,62,62,0,0,0,0,,,,,,,1196.0840892009437,None,1196.5754643008113,None,1197.2889689002186,None,l,1,0.5260719992220402,1197.2889689002186,None,None,None,,,,,,,11,21,female,11,2022_May_06_1033,Partial repeat,2021.2.3,59.79609529387698,
8,8,0,1,3,3,1,1,0,1,1,1,0,0,0,0,62,62,62,1,0,1,0,,,,,,,,,1197.8434714004397,None,1198.6085585001856,None,s,1,0.5904766991734505,1198.6085585001856,None,None,None,,,,,,,11,21,female,11,2022_May_06_1033,Partial repeat,2021.2.3,59.79609529387698,
8,8,0,1,3,3,1,1,0,1,1,1,0,0,0,0,62,62,62,,,,,,,,,,,,,,,,,,,,,,,,,,,,,,11,21,female,11,2022_May_06_1033,Partial repeat,2021.2.3,59.79609529387698,
5,3,0,1,2,3,1,1,0,1,0,1,0,0,0,0,63,63,63,0,0,0,0,,,,,,,1199.2153348997235,None,1199.8151060007513,None,1200.8309856001288,None,l,1,0.6721034999936819,1200.8309856001288,None,None,None,,,,,,,11,21,female,11,2022_May_06_1033,Partial repeat,2021.2.3,59.79609529387698,
5,3,0,1,2,3,1,1,0,1,0,1,0,0,0,0,63,63,63,1,0,1,0,,,,,,,,,1201.5139675009996,None,1202.3330665007234,None,s,1,0.6419970002025366,1202.3330665007234,None,None,None,,,,,,,11,21,female,11,2022_May_06_1033,Partial repeat,2021.2.3,59.79609529387698,
5,3,0,1,2,3,1,1,0,1,0,1,0,0,0,0,63,63,63,,,,,,,,,,,,,,,,,,,,,,,,,,,,,,11,21,female,11,2022_May_06_1033,Partial repeat,2021.2.3,59.79609529387698,
2,2,0,1,3,3,2,1,1,0,1,0,0,1,0,0,64,64,64,0,0,0,0,,,,,,,1210.1582325994968,None,1210.836540600285,None,1211.7175484001637,None,s,1,0.5375135987997055,1211.7175484001637,None,None,None,,,,,,,11,21,female,11,2022_May_06_1033,Partial repeat,2021.2.3,59.79609529387698,
2,2,0,1,3,3,2,1,1,0,1,0,0,1,0,0,64,64,64,1,0,1,0,,,,,,,,,1212.2763832993805,None,1213.2203787006438,None,l,1,0.5386772993952036,1213.2203787006438,None,None,None,,,,,,,11,21,female,11,2022_May_06_1033,Partial repeat,2021.2.3,59.79609529387698,
2,2,0,1,3,3,2,1,1,0,1,0,0,1,0,0,64,64,64,,,,,,,,,,,,,,,,,,,,,,,,,,,,,,11,21,female,11,2022_May_06_1033,Partial repeat,2021.2.3,59.79609529387698,
2,2,0,1,3,3,2,2,0,0,1,1,1,1,0,0,65,65,65,0,0,0,0,,,,,,,1213.7848058007658,None,1214.2764876000583,None,1215.1078220997006,None,l,1,0.5152102001011372,1215.1078220997006,None,None,None,,,,,,,11,21,female,11,2022_May_06_1033,Partial repeat,2021.2.3,59.79609529387698,
2,2,0,1,3,3,2,2,0,0,1,1,1,1,0,0,65,65,65,1,0,1,0,,,,,,,,,1215.6447791010141,None,1216.542938599363,None,l,1,0.48815489932894707,1216.542938599363,None,None,None,,,,,,,11,21,female,11,2022_May_06_1033,Partial repeat,2021.2.3,59.79609529387698,
2,2,0,1,3,3,2,2,0,0,1,1,1,1,0,0,65,65,65,,,,,,,,,,,,,,,,,,,,,,,,,,,,,,11,21,female,11,2022_May_06_1033,Partial repeat,2021.2.3,59.79609529387698,
2,2,0,1,2,2,1,2,1,0,1,0,0,1,0,0,66,66,66,0,0,0,0,,,,,,,1217.0614123009145,None,1217.499491199851,None,1218.247410800308,None,s,1,0.6077792998403311,1218.247410800308,None,None,None,,,,,,,11,21,female,11,2022_May_06_1033,Partial repeat,2021.2.3,59.79609529387698,
2,2,0,1,2,2,1,2,1,0,1,0,0,1,0,0,66,66,66,1,0,1,0,,,,,,,,,1218.8834747001529,None,1219.649164101109,None,l,1,0.7738920990377665,1219.649164101109,None,None,None,,,,,,,11,21,female,11,2022_May_06_1033,Partial repeat,2021.2.3,59.79609529387698,
2,2,0,1,2,2,1,2,1,0,1,0,0,1,0,0,66,66,66,,,,,,,,,,,,,,,,,,,,,,,,,,,,,,11,21,female,11,2022_May_06_1033,Partial repeat,2021.2.3,59.79609529387698,
2,2,0,1,3,3,2,2,0,1,1,1,0,1,0,0,67,67,67,0,0,0,0,,,,,,,1220.442701600492,None,1220.8392916005105,None,1221.66977090016,None,l,1,0.473319198936224,1221.66977090016,None,None,None,,,,,,,11,21,female,11,2022_May_06_1033,Partial repeat,2021.2.3,59.79609529387698,
2,2,0,1,3,3,2,2,0,1,1,1,0,1,0,0,67,67,67,1,0,1,0,,,,,,,,,1222.150950299576,None,1222.9057209994644,None,s,1,0.5413234010338783,1222.9057209994644,None,None,None,,,,,,,11,21,female,11,2022_May_06_1033,Partial repeat,2021.2.3,59.79609529387698,
2,2,0,1,3,3,2,2,0,1,1,1,0,1,0,0,67,67,67,,,,,,,,,,,,,,,,,,,,,,,,,,,,,,11,21,female,11,2022_May_06_1033,Partial repeat,2021.2.3,59.79609529387698,
2,2,0,1,2,3,1,1,0,0,0,1,1,1,0,0,68,68,68,0,0,0,0,,,,,,,1223.4650548994541,None,1224.0788925997913,None,1224.993092700839,None,l,1,0.5340040996670723,1224.993092700839,None,None,None,,,,,,,11,21,female,11,2022_May_06_1033,Partial repeat,2021.2.3,59.79609529387698,
2,2,0,1,2,3,1,1,0,0,0,1,1,1,0,0,68,68,68,1,0,1,0,,,,,,,,,1225.5539606008679,None,1226.3620091993362,None,l,1,0.45303529873490334,1226.3620091993362,None,None,None,,,,,,,11,21,female,11,2022_May_06_1033,Partial repeat,2021.2.3,59.79609529387698,
2,2,0,1,2,3,1,1,0,0,0,1,1,1,0,0,68,68,68,,,,,,,,,,,,,,,,,,,,,,,,,,,,,,11,21,female,11,2022_May_06_1033,Partial repeat,2021.2.3,59.79609529387698,
2,2,0,1,3,2,2,2,0,0,0,1,1,1,0,0,69,69,69,0,0,0,0,,,,,,,1226.8386586010456,None,1227.301876699552,None,1228.0488651003689,None,l,1,0.430188300088048,1228.0488651003689,None,None,None,,,,,,,11,21,female,11,2022_May_06_1033,Partial repeat,2021.2.3,59.79609529387698,
2,2,0,1,3,2,2,2,0,0,0,1,1,1,0,0,69,69,69,1,0,1,0,,,,,,,,,1228.5015415996313,None,1229.4014583006501,None,l,1,0.9895938001573086,1229.4014583006501,None,None,None,,,,,,,11,21,female,11,2022_May_06_1033,Partial repeat,2021.2.3,59.79609529387698,
2,2,0,1,3,2,2,2,0,0,0,1,1,1,0,0,69,69,69,,,,,,,,,,,,,,,,,,,,,,,,,,,,,,11,21,female,11,2022_May_06_1033,Partial repeat,2021.2.3,59.79609529387698,
2,2,0,1,3,3,2,1,0,1,1,0,0,1,0,0,70,70,70,0,0,0,0,,,,,,,1230.4133251998574,None,1232.2114573996514,None,1233.1263264007866,None,l,1,0.4247503001242876,1233.1263264007866,None,None,None,,,,,,,11,21,female,11,2022_May_06_1033,Partial repeat,2021.2.3,59.79609529387698,
2,2,0,1,3,3,2,1,0,1,1,0,0,1,0,0,70,70,70,1,0,1,0,,,,,,,,,1233.5796568002552,None,1234.4112436007708,None,s,1,0.5798046011477709,1234.4112436007708,None,None,None,,,,,,,11,21,female,11,2022_May_06_1033,Partial repeat,2021.2.3,59.79609529387698,
2,2,0,1,3,3,2,1,0,1,1,0,0,1,0,0,70,70,70,,,,,,,,,,,,,,,,,,,,,,,,,,,,,,11,21,female,11,2022_May_06_1033,Partial repeat,2021.2.3,59.79609529387698,
2,2,0,1,2,3,2,2,1,0,0,1,0,1,0,0,71,71,71,0,0,0,0,,,,,,,1235.017127500847,None,1235.634708499536,None,1236.4150812998414,None,l,0,0.9362142998725176,1236.4150812998414,None,1237.3624722994864,None,,,,,,,11,21,female,11,2022_May_06_1033,Partial repeat,2021.2.3,59.79609529387698,
2,2,0,1,2,3,2,2,1,0,0,1,0,1,0,0,71,71,71,1,0,1,0,,,,,,,,,1237.8724394999444,None,1238.7196424994618,None,l,1,0.5434007998555899,1238.7196424994618,None,None,None,,,,,,,11,21,female,11,2022_May_06_1033,Partial repeat,2021.2.3,59.79609529387698,
2,2,0,1,2,3,2,2,1,0,0,1,0,1,0,0,71,71,71,,,,,,,,,,,,,,,,,,,,,,,,,,,,,,11,21,female,11,2022_May_06_1033,Partial repeat,2021.2.3,59.79609529387698,
2,2,0,1,2,3,1,2,1,1,0,0,1,1,0,0,72,72,72,0,0,0,0,,,,,,,1239.2802804000676,None,1239.5924648996443,None,1240.5066174995154,None,s,1,1.86854650080204,1240.5066174995154,None,None,None,,,,,,,11,21,female,11,2022_May_06_1033,Partial repeat,2021.2.3,59.79609529387698,
2,2,0,1,2,3,1,2,1,1,0,0,1,1,0,0,72,72,72,1,0,1,0,,,,,,,,,1242.384643200785,None,1243.144789300859,None,s,1,0.7582518011331558,1243.144789300859,None,None,None,,,,,,,11,21,female,11,2022_May_06_1033,Partial repeat,2021.2.3,59.79609529387698,
2,2,0,1,2,3,1,2,1,1,0,0,1,1,0,0,72,72,72,,,,,,,,,,,,,,,,,,,,,,,,,,,,,,11,21,female,11,2022_May_06_1033,Partial repeat,2021.2.3,59.79609529387698,
2,2,0,1,2,3,2,2,1,1,0,1,1,1,0,0,73,73,73,0,0,0,0,,,,,,,1243.9215204995126,None,1244.4018354006112,None,1245.3325156010687,None,s,1,0.5545281004160643,1245.3325156010687,None,None,None,,,,,,,11,21,female,11,2022_May_06_1033,Partial repeat,2021.2.3,59.79609529387698,
2,2,0,1,2,3,2,2,1,1,0,1,1,1,0,0,73,73,73,1,0,1,0,,,,,,,,,1245.912064500153,None,1246.903081100434,None,s,1,0.47205210104584694,1246.903081100434,None,None,None,,,,,,,11,21,female,11,2022_May_06_1033,Partial repeat,2021.2.3,59.79609529387698,
2,2,0,1,2,3,2,2,1,1,0,1,1,1,0,0,73,73,73,,,,,,,,,,,,,,,,,,,,,,,,,,,,,,11,21,female,11,2022_May_06_1033,Partial repeat,2021.2.3,59.79609529387698,
2,2,0,1,2,3,2,1,1,0,0,0,0,1,0,0,74,74,74,0,0,0,0,,,,,,,1247.3856662008911,None,1247.8585665002465,None,1248.6889779008925,None,s,1,0.48609540052711964,1248.6889779008925,None,None,None,,,,,,,11,21,female,11,2022_May_06_1033,Partial repeat,2021.2.3,59.79609529387698,
2,2,0,1,2,3,2,1,1,0,0,0,0,1,0,0,74,74,74,1,0,1,0,,,,,,,,,1249.1829479001462,None,1249.9746285993606,None,l,1,0.5604663006961346,1249.9746285993606,None,None,None,,,,,,,11,21,female,11,2022_May_06_1033,Partial repeat,2021.2.3,59.79609529387698,
2,2,0,1,2,3,2,1,1,0,0,0,0,1,0,0,74,74,74,,,,,,,,,,,,,,,,,,,,,,,,,,,,,,11,21,female,11,2022_May_06_1033,Partial repeat,2021.2.3,59.79609529387698,
2,2,0,1,3,3,1,2,0,0,1,0,1,1,0,0,75,75,75,0,0,0,0,,,,,,,1250.5618367996067,None,1251.0480355992913,None,1251.8290056008846,None,l,1,0.49004399962723255,1251.8290056008846,None,None,None,,,,,,,11,21,female,11,2022_May_06_1033,Partial repeat,2021.2.3,59.79609529387698,
2,2,0,1,3,3,1,2,0,0,1,0,1,1,0,0,75,75,75,1,0,1,0,,,,,,,,,1252.3440372999758,None,1253.0806232001632,None,l,1,0.4383927006274462,1253.0806232001632,None,None,None,,,,,,,11,21,female,11,2022_May_06_1033,Partial repeat,2021.2.3,59.79609529387698,
2,2,0,1,3,3,1,2,0,0,1,0,1,1,0,0,75,75,75,,,,,,,,,,,,,,,,,,,,,,,,,,,,,,11,21,female,11,2022_May_06_1033,Partial repeat,2021.2.3,59.79609529387698,
2,2,0,1,2,3,1,1,1,1,0,1,1,1,0,0,76,76,76,0,0,0,0,,,,,,,1253.5355939008296,None,1254.1374533008784,None,1254.9511296004057,None,s,1,1.0319082010537386,1254.9511296004057,None,None,None,,,,,,,11,21,female,11,2022_May_06_1033,Partial repeat,2021.2.3,59.79609529387698,
2,2,0,1,2,3,1,1,1,1,0,1,1,1,0,0,76,76,76,1,0,1,0,,,,,,,,,1255.9979672003537,None,1256.8379087001085,None,s,1,0.5211261007934809,1256.8379087001085,None,None,None,,,,,,,11,21,female,11,2022_May_06_1033,Partial repeat,2021.2.3,59.79609529387698,
2,2,0,1,2,3,1,1,1,1,0,1,1,1,0,0,76,76,76,,,,,,,,,,,,,,,,,,,,,,,,,,,,,,11,21,female,11,2022_May_06_1033,Partial repeat,2021.2.3,59.79609529387698,
2,2,0,1,3,2,2,2,1,1,0,1,1,1,0,0,77,77,77,0,0,0,0,,,,,,,1257.3750334009528,None,1258.5460112001747,None,1259.3764011003077,None,s,1,0.43061960116028786,1259.3764011003077,None,None,None,,,,,,,11,21,female,11,2022_May_06_1033,Partial repeat,2021.2.3,59.79609529387698,
2,2,0,1,3,2,2,2,1,1,0,1,1,1,0,0,77,77,77,1,0,1,0,,,,,,,,,1259.8309020008892,None,1260.696748200804,None,s,1,0.470287399366498,1260.696748200804,None,None,None,,,,,,,11,21,female,11,2022_May_06_1033,Partial repeat,2021.2.3,59.79609529387698,
2,2,0,1,3,2,2,2,1,1,0,1,1,1,0,0,77,77,77,,,,,,,,,,,,,,,,,,,,,,,,,,,,,,11,21,female,11,2022_May_06_1033,Partial repeat,2021.2.3,59.79609529387698,
2,2,0,1,3,3,2,1,1,1,1,0,1,1,0,0,78,78,78,0,0,0,0,,,,,,,1261.1905837003142,None,1261.7857374995947,None,1262.732758199796,None,s,1,0.42633859999477863,1262.732758199796,None,None,None,,,,,,,11,21,female,11,2022_May_06_1033,Partial repeat,2021.2.3,59.79609529387698,
2,2,0,1,3,3,2,1,1,1,1,0,1,1,0,0,78,78,78,1,0,1,0,,,,,,,,,1263.1869495995343,None,1264.052504900843,None,s,1,0.46654569916427135,1264.052504900843,None,None,None,,,,,,,11,21,female,11,2022_May_06_1033,Partial repeat,2021.2.3,59.79609529387698,
2,2,0,1,3,3,2,1,1,1,1,0,1,1,0,0,78,78,78,,,,,,,,,,,,,,,,,,,,,,,,,,,,,,11,21,female,11,2022_May_06_1033,Partial repeat,2021.2.3,59.79609529387698,
2,2,0,1,2,3,1,2,1,0,0,0,0,1,0,0,79,79,79,0,0,0,0,,,,,,,1264.5483730994165,None,1264.9751230999827,None,1265.8225059993565,None,s,1,0.5126585997641087,1265.8225059993565,None,None,None,,,,,,,11,21,female,11,2022_May_06_1033,Partial repeat,2021.2.3,59.79609529387698,
2,2,0,1,2,3,1,2,1,0,0,0,0,1,0,0,79,79,79,1,0,1,0,,,,,,,,,1266.361765600741,None,1267.2416163999587,None,l,1,0.44545869901776314,1267.2416163999587,None,None,None,,,,,,,11,21,female,11,2022_May_06_1033,Partial repeat,2021.2.3,59.79609529387698,
2,2,0,1,2,3,1,2,1,0,0,0,0,1,0,0,79,79,79,,,,,,,,,,,,,,,,,,,,,,,,,,,,,,11,21,female,11,2022_May_06_1033,Partial repeat,2021.2.3,59.79609529387698,
2,2,0,1,3,2,2,1,1,0,0,0,0,1,0,0,80,80,80,0,0,0,0,,,,,,,1267.6973791010678,None,1268.0645343009382,None,1269.0116936992854,None,s,1,0.5393301993608475,1269.0116936992854,None,None,None,,,,,,,11,21,female,11,2022_May_06_1033,Partial repeat,2021.2.3,59.79609529387698,
2,2,0,1,3,2,2,1,1,0,0,0,0,1,0,0,80,80,80,1,0,1,0,,,,,,,,,1269.5753456000239,None,1270.565053800121,None,l,1,0.5060114003717899,1270.565053800121,None,None,None,,,,,,,11,21,female,11,2022_May_06_1033,Partial repeat,2021.2.3,59.79609529387698,
2,2,0,1,3,2,2,1,1,0,0,0,0,1,0,0,80,80,80,,,,,,,,,,,,,,,,,,,,,,,,,,,,,,11,21,female,11,2022_May_06_1033,Partial repeat,2021.2.3,59.79609529387698,
2,2,0,1,2,2,1,1,0,0,1,1,1,1,0,0,81,81,81,0,0,0,0,,,,,,,1271.102138299495,None,1271.42107710056,None,1272.3695145994425,None,l,1,0.4855842012912035,1272.3695145994425,None,None,None,,,,,,,11,21,female,11,2022_May_06_1033,Partial repeat,2021.2.3,59.79609529387698,
2,2,0,1,2,2,1,1,0,0,1,1,1,1,0,0,81,81,81,1,0,1,0,,,,,,,,,1272.8833850994706,None,1273.6205544993281,None,l,1,0.44246169924736023,1273.6205544993281,None,None,None,,,,,,,11,21,female,11,2022_May_06_1033,Partial repeat,2021.2.3,59.79609529387698,
2,2,0,1,2,2,1,1,0,0,1,1,1,1,0,0,81,81,81,,,,,,,,,,,,,,,,,,,,,,,,,,,,,,11,21,female,11,2022_May_06_1033,Partial repeat,2021.2.3,59.79609529387698,
2,2,0,1,2,3,1,2,0,0,0,0,1,1,0,0,82,82,82,0,0,0,0,,,,,,,1274.0752876009792,None,1274.4268554002047,None,1275.3904643002898,None,l,1,0.44865160062909126,1275.3904643002898,None,None,None,,,,,,,11,21,female,11,2022_May_06_1033,Partial repeat,2021.2.3,59.79609529387698,
2,2,0,1,2,3,1,2,0,0,0,0,1,1,0,0,82,82,82,1,0,1,0,,,,,,,,,1275.8491936009377,None,1276.844710599631,None,l,1,0.4743037987500429,1276.844710599631,None,None,None,,,,,,,11,21,female,11,2022_May_06_1033,Partial repeat,2021.2.3,59.79609529387698,
2,2,0,1,2,3,1,2,0,0,0,0,1,1,0,0,82,82,82,,,,,,,,,,,,,,,,,,,,,,,,,,,,,,11,21,female,11,2022_May_06_1033,Partial repeat,2021.2.3,59.79609529387698,
2,2,0,1,3,2,2,2,1,0,0,1,0,1,0,0,83,83,83,0,0,0,0,,,,,,,1277.3450301997364,None,1277.8502335008234,None,1278.7807149998844,None,s,1,0.5703521985560656,1278.7807149998844,None,None,None,,,,,,,11,21,female,11,2022_May_06_1033,Partial repeat,2021.2.3,59.79609529387698,
2,2,0,1,3,2,2,2,1,0,0,1,0,1,0,0,83,83,83,1,0,1,0,,,,,,,,,1279.360486799851,None,1280.3004788998514,None,l,1,0.4825963992625475,1280.3004788998514,None,None,None,,,,,,,11,21,female,11,2022_May_06_1033,Partial repeat,2021.2.3,59.79609529387698,
2,2,0,1,3,2,2,2,1,0,0,1,0,1,0,0,83,83,83,,,,,,,,,,,,,,,,,,,,,,,,,,,,,,11,21,female,11,2022_May_06_1033,Partial repeat,2021.2.3,59.79609529387698,
2,2,0,1,2,2,2,1,1,0,1,0,0,1,0,0,84,84,84,0,0,0,0,,,,,,,1280.7942225001752,None,1281.2400742992759,None,1282.0037690997124,None,s,1,0.5313961002975702,1282.0037690997124,None,None,None,,,,,,,11,21,female,11,2022_May_06_1033,Partial repeat,2021.2.3,59.79609529387698,
2,2,0,1,2,2,2,1,1,0,1,0,0,1,0,0,84,84,84,1,0,1,0,,,,,,,,,1282.56169610098,None,1283.4730348009616,None,l,1,0.7179455999284983,1283.4730348009616,None,None,None,,,,,,,11,21,female,11,2022_May_06_1033,Partial repeat,2021.2.3,59.79609529387698,
2,2,0,1,2,2,2,1,1,0,1,0,0,1,0,0,84,84,84,,,,,,,,,,,,,,,,,,,,,,,,,,,,,,11,21,female,11,2022_May_06_1033,Partial repeat,2021.2.3,59.79609529387698,
2,2,0,1,2,3,1,1,0,1,0,1,0,1,0,0,85,85,85,0,0,0,0,,,,,,,1284.2065696008503,None,1284.6802150998265,None,1285.6938550006598,None,l,1,0.48113529942929745,1285.6938550006598,None,None,None,,,,,,,11,21,female,11,2022_May_06_1033,Partial repeat,2021.2.3,59.79609529387698,
2,2,0,1,2,3,1,1,0,1,0,1,0,1,0,0,85,85,85,1,0,1,0,,,,,,,,,1286.1880831997842,None,1286.9799719993025,None,s,1,0.6510387007147074,1286.9799719993025,None,None,None,,,,,,,11,21,female,11,2022_May_06_1033,Partial repeat,2021.2.3,59.79609529387698,
2,2,0,1,2,3,1,1,0,1,0,1,0,1,0,0,85,85,85,,,,,,,,,,,,,,,,,,,,,,,,,,,,,,11,21,female,11,2022_May_06_1033,Partial repeat,2021.2.3,59.79609529387698,
2,2,0,1,2,2,1,1,1,0,1,1,0,1,0,0,86,86,86,0,0,0,0,,,,,,,1287.652138100937,None,1288.0367204006761,None,1289.0174662005156,None,s,1,0.4535282999277115,1289.0174662005156,None,None,None,,,,,,,11,21,female,11,2022_May_06_1033,Partial repeat,2021.2.3,59.79609529387698,
2,2,0,1,2,2,1,1,1,0,1,1,0,1,0,0,86,86,86,1,0,1,0,,,,,,,,,1289.4907521009445,None,1290.2542691994458,None,l,1,0.5366942007094622,1290.2542691994458,None,None,None,,,,,,,11,21,female,11,2022_May_06_1033,Partial repeat,2021.2.3,59.79609529387698,
2,2,0,1,2,2,1,1,1,0,1,1,0,1,0,0,86,86,86,,,,,,,,,,,,,,,,,,,,,,,,,,,,,,11,21,female,11,2022_May_06_1033,Partial repeat,2021.2.3,59.79609529387698,
2,2,0,1,3,2,1,2,0,0,0,0,1,1,0,0,87,87,87,0,0,0,0,,,,,,,1290.8166256006807,None,1291.293083300814,None,1292.0230084005743,None,l,1,0.44806830026209354,1292.0230084005743,None,None,None,,,,,,,11,21,female,11,2022_May_06_1033,Partial repeat,2021.2.3,59.79609529387698,
2,2,0,1,3,2,1,2,0,0,0,0,1,1,0,0,87,87,87,1,0,1,0,,,,,,,,,1292.4934244994074,None,1293.4599182009697,None,l,1,0.49109859950840473,1293.4599182009697,None,None,None,,,,,,,11,21,female,11,2022_May_06_1033,Partial repeat,2021.2.3,59.79609529387698,
2,2,0,1,3,2,1,2,0,0,0,0,1,1,0,0,87,87,87,,,,,,,,,,,,,,,,,,,,,,,,,,,,,,11,21,female,11,2022_May_06_1033,Partial repeat,2021.2.3,59.79609529387698,
2,2,0,1,3,2,1,1,1,0,0,1,0,1,0,0,88,88,88,0,0,0,0,,,,,,,1293.97668380104,None,1294.465921400115,None,1295.3798484001309,None,s,1,0.475152600556612,1295.3798484001309,None,None,None,,,,,,,11,21,female,11,2022_May_06_1033,Partial repeat,2021.2.3,59.79609529387698,
2,2,0,1,3,2,1,1,1,0,0,1,0,1,0,0,88,88,88,1,0,1,0,,,,,,,,,1295.8752840999514,None,1296.666115699336,None,l,1,0.5168925002217293,1296.666115699336,None,None,None,,,,,,,11,21,female,11,2022_May_06_1033,Partial repeat,2021.2.3,59.79609529387698,
2,2,0,1,3,2,1,1,1,0,0,1,0,1,0,0,88,88,88,,,,,,,,,,,,,,,,,,,,,,,,,,,,,,11,21,female,11,2022_May_06_1033,Partial repeat,2021.2.3,59.79609529387698,
2,2,0,1,3,2,2,1,1,1,0,0,1,1,0,0,89,89,89,0,0,0,0,,,,,,,1297.197041099891,None,1297.6553739011288,None,1298.4869135003537,None,s,1,0.5041431002318859,1298.4869135003537,None,None,None,,,,,,,11,21,female,11,2022_May_06_1033,Partial repeat,2021.2.3,59.79609529387698,
2,2,0,1,3,2,2,1,1,1,0,0,1,1,0,0,89,89,89,1,0,1,0,,,,,,,,,1298.9990170001984,None,1299.9049922004342,None,s,1,0.4860233012586832,1299.9049922004342,None,None,None,,,,,,,11,21,female,11,2022_May_06_1033,Partial repeat,2021.2.3,59.79609529387698,
2,2,0,1,3,2,2,1,1,1,0,0,1,1,0,0,89,89,89,,,,,,,,,,,,,,,,,,,,,,,,,,,,,,11,21,female,11,2022_May_06_1033,Partial repeat,2021.2.3,59.79609529387698,
2,2,0,1,3,2,1,2,1,1,0,0,1,1,0,0,90,90,90,0,0,0,0,,,,,,,1300.4076637998223,None,1300.7948535010219,None,1301.7922812998295,None,s,1,0.5827217996120453,1301.7922812998295,None,None,None,,,,,,,11,21,female,11,2022_May_06_1033,Partial repeat,2021.2.3,59.79609529387698,
2,2,0,1,3,2,1,2,1,1,0,0,1,1,0,0,90,90,90,1,0,1,0,,,,,,,,,1302.3893197998405,None,1303.3951858002692,None,s,1,0.42781840078532696,1303.3951858002692,None,None,None,,,,,,,11,21,female,11,2022_May_06_1033,Partial repeat,2021.2.3,59.79609529387698,
2,2,0,1,3,2,1,2,1,1,0,0,1,1,0,0,90,90,90,,,,,,,,,,,,,,,,,,,,,,,,,,,,,,11,21,female,11,2022_May_06_1033,Partial repeat,2021.2.3,59.79609529387698,
2,2,0,1,3,3,1,2,1,1,1,0,1,1,0,0,91,91,91,0,0,0,0,,,,,,,1303.8511398993433,None,1304.2181911002845,None,1304.9983251001686,None,s,1,0.4486565999686718,1304.9983251001686,None,None,None,,,,,,,11,21,female,11,2022_May_06_1033,Partial repeat,2021.2.3,59.79609529387698,
2,2,0,1,3,3,1,2,1,1,1,0,1,1,0,0,91,91,91,1,0,1,0,,,,,,,,,1305.4720476008952,None,1306.3343956004828,None,s,1,0.4166756998747587,1306.3343956004828,None,None,None,,,,,,,11,21,female,11,2022_May_06_1033,Partial repeat,2021.2.3,59.79609529387698,
2,2,0,1,3,3,1,2,1,1,1,0,1,1,0,0,91,91,91,,,,,,,,,,,,,,,,,,,,,,,,,,,,,,11,21,female,11,2022_May_06_1033,Partial repeat,2021.2.3,59.79609529387698,
2,2,0,1,2,2,2,2,0,1,1,1,0,1,0,0,92,92,92,0,0,0,0,,,,,,,1306.771958399564,None,1307.1906247995794,None,1308.1878248006105,None,l,1,0.6351685989648104,1308.1878248006105,None,None,None,,,,,,,11,21,female,11,2022_May_06_1033,Partial repeat,2021.2.3,59.79609529387698,
2,2,0,1,2,2,2,2,0,1,1,1,0,1,0,0,92,92,92,1,0,1,0,,,,,,,,,1308.8512852992862,None,1309.809057900682,None,s,1,0.5019518006592989,1309.809057900682,None,None,None,,,,,,,11,21,female,11,2022_May_06_1033,Partial repeat,2021.2.3,59.79609529387698,
2,2,0,1,2,2,2,2,0,1,1,1,0,1,0,0,92,92,92,,,,,,,,,,,,,,,,,,,,,,,,,,,,,,11,21,female,11,2022_May_06_1033,Partial repeat,2021.2.3,59.79609529387698,
2,2,0,1,2,3,2,1,0,1,0,0,0,1,0,0,93,93,93,0,0,0,0,,,,,,,1310.3248471003026,None,1310.8477542996407,None,1311.844975899905,None,l,1,0.7220747005194426,1311.844975899905,None,None,None,,,,,,,11,21,female,11,2022_May_06_1033,Partial repeat,2021.2.3,59.79609529387698,
2,2,0,1,2,3,2,1,0,1,0,0,0,1,0,0,93,93,93,1,0,1,0,,,,,,,,,1312.5748709999025,None,1313.3982110004872,None,s,1,0.48079949989914894,1313.3982110004872,None,None,None,,,,,,,11,21,female,11,2022_May_06_1033,Partial repeat,2021.2.3,59.79609529387698,
2,2,0,1,2,3,2,1,0,1,0,0,0,1,0,0,93,93,93,,,,,,,,,,,,,,,,,,,,,,,,,,,,,,11,21,female,11,2022_May_06_1033,Partial repeat,2021.2.3,59.79609529387698,
2,2,0,1,2,2,1,2,0,1,1,0,0,1,0,0,94,94,94,0,0,0,0,,,,,,,1313.8961300998926,None,1314.5549718998373,None,1315.4518839009106,None,l,1,0.44308479875326157,1315.4518839009106,None,None,None,,,,,,,11,21,female,11,2022_May_06_1033,Partial repeat,2021.2.3,59.79609529387698,
2,2,0,1,2,2,1,2,0,1,1,0,0,1,0,0,94,94,94,1,0,1,0,,,,,,,,,1315.9232542999089,None,1316.8380015995353,None,s,1,1.2490262985229492,1316.8380015995353,None,None,None,,,,,,,11,21,female,11,2022_May_06_1033,Partial repeat,2021.2.3,59.79609529387698,
2,2,0,1,2,2,1,2,0,1,1,0,0,1,0,0,94,94,94,,,,,,,,,,,,,,,,,,,,,,,,,,,,,,11,21,female,11,2022_May_06_1033,Partial repeat,2021.2.3,59.79609529387698,
2,2,0,1,2,2,1,1,0,1,1,1,0,1,0,0,95,95,95,0,0,0,0,,,,,,,1318.101393500343,None,1318.6295043993741,None,1319.6436812002212,None,l,1,0.43532069958746433,1319.6436812002212,None,None,None,,,,,,,11,21,female,11,2022_May_06_1033,Partial repeat,2021.2.3,59.79609529387698,
2,2,0,1,2,2,1,1,0,1,1,1,0,1,0,0,95,95,95,1,0,1,0,,,,,,,,,1320.0990535002202,None,1320.862472699955,None,s,1,0.7445004992187023,1320.862472699955,None,None,None,,,,,,,11,21,female,11,2022_May_06_1033,Partial repeat,2021.2.3,59.79609529387698,
2,2,0,1,2,2,1,1,0,1,1,1,0,1,0,0,95,95,95,,,,,,,,,,,,,,,,,,,,,,,,,,,,,,11,21,female,11,2022_May_06_1033,Partial repeat,2021.2.3,59.79609529387698,
2,2,0,1,2,2,1,2,0,0,1,0,1,1,0,0,96,96,96,0,0,0,0,,,,,,,1321.6187795009464,None,1322.1363584008068,None,1322.9012650996447,None,l,1,0.5057805012911558,1322.9012650996447,None,None,None,,,,,,,11,21,female,11,2022_May_06_1033,Partial repeat,2021.2.3,59.79609529387698,
2,2,0,1,2,2,1,2,0,0,1,0,1,1,0,0,96,96,96,1,0,1,0,,,,,,,,,1323.4357222002,None,1324.2691224999726,None,l,1,0.42596010118722916,1324.2691224999726,None,None,None,,,,,,,11,21,female,11,2022_May_06_1033,Partial repeat,2021.2.3,59.79609529387698,
2,2,0,1,2,2,1,2,0,0,1,0,1,1,0,0,96,96,96,,,,,,,,,,,,,,,,,,,,,,,,,,,,,,11,21,female,11,2022_May_06_1033,Partial repeat,2021.2.3,59.79609529387698,
2,2,0,1,3,3,1,1,1,0,1,1,0,1,0,0,97,97,97,0,0,0,0,,,,,,,1324.7081189006567,None,1325.1756267994642,None,1326.139572199434,None,s,1,0.6594783999025822,1326.139572199434,None,None,None,,,,,,,11,21,female,11,2022_May_06_1033,Partial repeat,2021.2.3,59.79609529387698,
2,2,0,1,3,3,1,1,1,0,1,1,0,1,0,0,97,97,97,1,0,1,0,,,,,,,,,1326.8071707002819,None,1327.7595995999873,None,l,1,0.7594888992607594,1327.7595995999873,None,None,None,,,,,,,11,21,female,11,2022_May_06_1033,Partial repeat,2021.2.3,59.79609529387698,
2,2,0,1,3,3,1,1,1,0,1,1,0,1,0,0,97,97,97,,,,,,,,,,,,,,,,,,,,,,,,,,,,,,11,21,female,11,2022_May_06_1033,Partial repeat,2021.2.3,59.79609529387698,
2,2,0,1,3,3,1,1,0,0,1,1,1,1,0,0,98,98,98,0,0,0,0,,,,,,,1328.5396004002541,None,1329.3169839009643,None,1330.2475428003818,None,l,1,1.2954514008015394,1330.2475428003818,None,None,None,,,,,,,11,21,female,11,2022_May_06_1033,Partial repeat,2021.2.3,59.79609529387698,
2,2,0,1,3,3,1,1,0,0,1,1,1,1,0,0,98,98,98,1,0,1,0,,,,,,,,,1331.566847199574,None,1332.318571601063,None,l,1,0.44042279943823814,1332.318571601063,None,None,None,,,,,,,11,21,female,11,2022_May_06_1033,Partial repeat,2021.2.3,59.79609529387698,
2,2,0,1,3,3,1,1,0,0,1,1,1,1,0,0,98,98,98,,,,,,,,,,,,,,,,,,,,,,,,,,,,,,11,21,female,11,2022_May_06_1033,Partial repeat,2021.2.3,59.79609529387698,
2,2,0,1,3,3,2,2,1,1,1,1,1,1,0,0,99,99,99,0,0,0,0,,,,,,,1332.780220700428,None,1333.19122810103,None,1334.0394243001938,None,s,1,0.8315702006220818,1334.0394243001938,None,None,None,,,,,,,11,21,female,11,2022_May_06_1033,Partial repeat,2021.2.3,59.79609529387698,
2,2,0,1,3,3,2,2,1,1,1,1,1,1,0,0,99,99,99,1,0,1,0,,,,,,,,,1334.8839547000825,None,1335.6094246003777,None,s,1,0.5336095001548529,1335.6094246003777,None,None,None,,,,,,,11,21,female,11,2022_May_06_1033,Partial repeat,2021.2.3,59.79609529387698,
2,2,0,1,3,3,2,2,1,1,1,1,1,1,0,0,99,99,99,,,,,,,,,,,,,,,,,,,,,,,,,,,,,,11,21,female,11,2022_May_06_1033,Partial repeat,2021.2.3,59.79609529387698,
2,2,0,1,2,2,2,2,1,0,1,1,0,1,0,0,100,100,100,0,0,0,0,,,,,,,1336.1739636007696,None,1336.597847500816,None,1337.428561899811,None,s,1,0.5864885989576578,1337.428561899811,None,None,None,,,,,,,11,21,female,11,2022_May_06_1033,Partial repeat,2021.2.3,59.79609529387698,
2,2,0,1,2,2,2,2,1,0,1,1,0,1,0,0,100,100,100,1,0,1,0,,,,,,,,,1338.031470099464,None,1338.814391700551,None,l,1,0.5445761997252703,1338.814391700551,None,None,None,,,,,,,11,21,female,11,2022_May_06_1033,Partial repeat,2021.2.3,59.79609529387698,
2,2,0,1,2,2,2,2,1,0,1,1,0,1,0,0,100,100,100,,,,,,,,,,,,,,,,,,,,,,,,,,,,,,11,21,female,11,2022_May_06_1033,Partial repeat,2021.2.3,59.79609529387698,
2,2,0,1,3,2,2,1,0,1,0,0,0,1,0,0,101,101,101,0,0,0,0,,,,,,,1339.3773414995521,None,1339.8207943998277,None,1340.6186161004007,None,l,1,0.4523706007748842,1340.6186161004007,None,None,None,,,,,,,11,21,female,11,2022_May_06_1033,Partial repeat,2021.2.3,59.79609529387698,
2,2,0,1,3,2,2,1,0,1,0,0,0,1,0,0,101,101,101,1,0,1,0,,,,,,,,,1341.0915540009737,None,1341.9040353000164,None,s,1,0.5428956001996994,1341.9040353000164,None,None,None,,,,,,,11,21,female,11,2022_May_06_1033,Partial repeat,2021.2.3,59.79609529387698,
2,2,0,1,3,2,2,1,0,1,0,0,0,1,0,0,101,101,101,,,,,,,,,,,,,,,,,,,,,,,,,,,,,,11,21,female,11,2022_May_06_1033,Partial repeat,2021.2.3,59.79609529387698,
2,2,0,1,3,2,1,1,0,0,0,1,1,1,0,0,102,102,102,0,0,0,0,,,,,,,1342.464522400871,None,1342.926798099652,None,1343.7239184007049,None,l,1,0.4431145004928112,1343.7239184007049,None,None,None,,,,,,,11,21,female,11,2022_May_06_1033,Partial repeat,2021.2.3,59.79609529387698,
2,2,0,1,3,2,1,1,0,0,0,1,1,1,0,0,102,102,102,1,0,1,0,,,,,,,,,1344.1758948005736,None,1345.109620699659,None,l,1,0.4254192002117634,1345.109620699659,None,None,None,,,,,,,11,21,female,11,2022_May_06_1033,Partial repeat,2021.2.3,59.79609529387698,
2,2,0,1,3,2,1,1,0,0,0,1,1,1,0,0,102,102,102,,,,,,,,,,,,,,,,,,,,,,,,,,,,,,11,21,female,11,2022_May_06_1033,Partial repeat,2021.2.3,59.79609529387698,
2,2,0,1,2,2,2,2,0,0,1,1,1,1,0,0,103,103,103,0,0,0,0,,,,,,,1345.5481675993651,None,1345.9994545001537,None,1346.780814100057,None,l,1,0.45017769932746887,1346.780814100057,None,None,None,,,,,,,11,21,female,11,2022_May_06_1033,Partial repeat,2021.2.3,59.79609529387698,
2,2,0,1,2,2,2,2,0,0,1,1,1,1,0,0,103,103,103,1,0,1,0,,,,,,,,,1347.25537860021,None,1348.0153676010668,None,l,1,0.43960339948534966,1348.0153676010668,None,None,None,,,,,,,11,21,female,11,2022_May_06_1033,Partial repeat,2021.2.3,59.79609529387698,
2,2,0,1,2,2,2,2,0,0,1,1,1,1,0,0,103,103,103,,,,,,,,,,,,,,,,,,,,,,,,,,,,,,11,21,female,11,2022_May_06_1033,Partial repeat,2021.2.3,59.79609529387698,
2,2,0,1,2,2,2,1,1,1,1,0,1,1,0,0,104,104,104,0,0,0,0,,,,,,,1348.469466900453,None,1348.9886642005295,None,1349.9692722000182,None,s,1,0.5177339017391205,1349.9692722000182,None,None,None,,,,,,,11,21,female,11,2022_May_06_1033,Partial repeat,2021.2.3,59.79609529387698,
2,2,0,1,2,2,2,1,1,1,1,0,1,1,0,0,104,104,104,1,0,1,0,,,,,,,,,1350.505164399743,None,1351.3386142998934,None,s,1,0.484358798712492,1351.3386142998934,None,None,None,,,,,,,11,21,female,11,2022_May_06_1033,Partial repeat,2021.2.3,59.79609529387698,
2,2,0,1,2,2,2,1,1,1,1,0,1,1,0,0,104,104,104,,,,,,,,,,,,,,,,,,,,,,,,,,,,,,11,21,female,11,2022_May_06_1033,Partial repeat,2021.2.3,59.79609529387698,
2,2,0,1,2,3,1,1,1,0,0,1,0,1,0,0,105,105,105,0,0,0,0,,,,,,,1351.8377535007894,None,1352.211542500183,None,1353.1419894993305,None,s,1,0.4090154003351927,1353.1419894993305,None,None,None,,,,,,,11,21,female,11,2022_May_06_1033,Partial repeat,2021.2.3,59.79609529387698,
2,2,0,1,2,3,1,1,1,0,0,1,0,1,0,0,105,105,105,1,0,1,0,,,,,,,,,1353.5737877003849,None,1354.394750200212,None,l,1,0.4201747998595238,1354.394750200212,None,None,None,,,,,,,11,21,female,11,2022_May_06_1033,Partial repeat,2021.2.3,59.79609529387698,
2,2,0,1,2,3,1,1,1,0,0,1,0,1,0,0,105,105,105,,,,,,,,,,,,,,,,,,,,,,,,,,,,,,11,21,female,11,2022_May_06_1033,Partial repeat,2021.2.3,59.79609529387698,
2,2,0,1,3,2,2,2,0,1,0,1,0,1,0,0,106,106,106,0,0,0,0,,,,,,,1354.832769099623,None,1355.401071600616,None,1356.2147483993322,None,l,1,0.5202035997062922,1356.2147483993322,None,None,None,,,,,,,11,21,female,11,2022_May_06_1033,Partial repeat,2021.2.3,59.79609529387698,
2,2,0,1,3,2,2,2,0,1,0,1,0,1,0,0,106,106,106,1,0,1,0,,,,,,,,,1356.7485617995262,None,1357.6176575999707,None,s,1,0.5333003997802734,1357.6176575999707,None,None,None,,,,,,,11,21,female,11,2022_May_06_1033,Partial repeat,2021.2.3,59.79609529387698,
2,2,0,1,3,2,2,2,0,1,0,1,0,1,0,0,106,106,106,,,,,,,,,,,,,,,,,,,,,,,,,,,,,,11,21,female,11,2022_May_06_1033,Partial repeat,2021.2.3,59.79609529387698,
2,2,0,1,2,3,2,2,0,1,0,1,0,1,0,0,107,107,107,0,0,0,0,,,,,,,1358.181005300954,None,1358.5739351008087,None,1359.3706398997456,None,l,1,0.46834009885787964,1359.3706398997456,None,None,None,,,,,,,11,21,female,11,2022_May_06_1033,Partial repeat,2021.2.3,59.79609529387698,
2,2,0,1,2,3,2,2,0,1,0,1,0,1,0,0,107,107,107,1,0,1,0,,,,,,,,,1359.8641823008657,None,1360.590836700052,None,s,1,0.4961497988551855,1360.590836700052,None,None,None,,,,,,,11,21,female,11,2022_May_06_1033,Partial repeat,2021.2.3,59.79609529387698,
2,2,0,1,2,3,2,2,0,1,0,1,0,1,0,0,107,107,107,,,,,,,,,,,,,,,,,,,,,,,,,,,,,,11,21,female,11,2022_May_06_1033,Partial repeat,2021.2.3,59.79609529387698,
2,2,0,1,2,2,2,2,1,1,1,1,1,1,0,0,108,108,108,0,0,0,0,,,,,,,1361.1119534000754,None,1361.47954059951,None,1362.4771657008678,None,s,1,0.44986010156571865,1362.4771657008678,None,None,None,,,,,,,11,21,female,11,2022_May_06_1033,Partial repeat,2021.2.3,59.79609529387698,
2,2,0,1,2,2,2,2,1,1,1,1,1,1,0,0,108,108,108,1,0,1,0,,,,,,,,,1362.9497136995196,None,1363.7471364010125,None,s,1,0.43583990074694157,1363.7471364010125,None,None,None,,,,,,,11,21,female,11,2022_May_06_1033,Partial repeat,2021.2.3,59.79609529387698,
2,2,0,1,2,2,2,2,1,1,1,1,1,1,0,0,108,108,108,,,,,,,,,,,,,,,,,,,,,,,,,,,,,,11,21,female,11,2022_May_06_1033,Partial repeat,2021.2.3,59.79609529387698,
2,2,0,1,2,3,2,1,0,0,0,0,1,1,0,0,109,109,109,0,0,0,0,,,,,,,1364.2061951998621,None,1364.6857919003814,None,1365.5996527001262,None,l,1,0.4073223005980253,1365.5996527001262,None,None,None,,,,,,,11,21,female,11,2022_May_06_1033,Partial repeat,2021.2.3,59.79609529387698,
2,2,0,1,2,3,2,1,0,0,0,0,1,1,0,0,109,109,109,1,0,1,0,,,,,,,,,1366.0333032999188,None,1366.9858433995396,None,l,1,0.3651397004723549,1366.9858433995396,None,None,None,,,,,,,11,21,female,11,2022_May_06_1033,Partial repeat,2021.2.3,59.79609529387698,
2,2,0,1,2,3,2,1,0,0,0,0,1,1,0,0,109,109,109,,,,,,,,,,,,,,,,,,,,,,,,,,,,,,11,21,female,11,2022_May_06_1033,Partial repeat,2021.2.3,59.79609529387698,
2,2,0,1,2,2,2,1,0,1,1,0,0,1,0,0,110,110,110,0,0,0,0,,,,,,,1367.3811178002506,None,1367.9253727998585,None,1368.7891172003,None,l,1,0.4338579997420311,1368.7891172003,None,None,None,,,,,,,11,21,female,11,2022_May_06_1033,Partial repeat,2021.2.3,59.79609529387698,
2,2,0,1,2,2,2,1,0,1,1,0,0,1,0,0,110,110,110,1,0,1,0,,,,,,,,,1369.2412906009704,None,1370.2421710006893,None,s,1,0.5087818987667561,1370.2421710006893,None,None,None,,,,,,,11,21,female,11,2022_May_06_1033,Partial repeat,2021.2.3,59.79609529387698,
2,2,0,1,2,2,2,1,0,1,1,0,0,1,0,0,110,110,110,,,,,,,,,,,,,,,,,,,,,,,,,,,,,,11,21,female,11,2022_May_06_1033,Partial repeat,2021.2.3,59.79609529387698,
2,2,0,1,3,2,1,2,0,1,0,0,0,1,0,0,111,111,111,0,0,0,0,,,,,,,1370.7661422006786,None,1371.1817917004228,None,1371.928797999397,None,l,1,0.4862110000103712,1371.928797999397,None,None,None,,,,,,,11,21,female,11,2022_May_06_1033,Partial repeat,2021.2.3,59.79609529387698,
2,2,0,1,3,2,1,2,0,1,0,0,0,1,0,0,111,111,111,1,0,1,0,,,,,,,,,1372.4405783005059,None,1373.2480156999081,None,s,1,0.5269622001796961,1373.2480156999081,None,None,None,,,,,,,11,21,female,11,2022_May_06_1033,Partial repeat,2021.2.3,59.79609529387698,
2,2,0,1,3,2,1,2,0,1,0,0,0,1,0,0,111,111,111,,,,,,,,,,,,,,,,,,,,,,,,,,,,,,11,21,female,11,2022_May_06_1033,Partial repeat,2021.2.3,59.79609529387698,
2,2,0,1,3,3,1,2,1,0,1,0,0,1,0,0,112,112,112,0,0,0,0,,,,,,,1373.7930795997381,None,1374.137540800497,None,1375.1352785006166,None,s,1,0.4317189995199442,1375.1352785006166,None,None,None,,,,,,,11,21,female,11,2022_May_06_1033,Partial repeat,2021.2.3,59.79609529387698,
2,2,0,1,3,3,1,2,1,0,1,0,0,1,0,0,112,112,112,1,0,1,0,,,,,,,,,1375.5844481997192,None,1376.487331500277,None,l,1,0.5036323014646769,1376.487331500277,None,None,None,,,,,,,11,21,female,11,2022_May_06_1033,Partial repeat,2021.2.3,59.79609529387698,
2,2,0,1,3,3,1,2,1,0,1,0,0,1,0,0,112,112,112,,,,,,,,,,,,,,,,,,,,,,,,,,,,,,11,21,female,11,2022_May_06_1033,Partial repeat,2021.2.3,59.79609529387698,
2,2,0,1,3,3,2,2,1,0,1,1,0,1,0,0,113,113,113,0,0,0,0,,,,,,,1377.007865799591,None,1377.443986101076,None,1378.291213100776,None,s,1,0.6437634993344545,1378.291213100776,None,None,None,,,,,,,11,21,female,11,2022_May_06_1033,Partial repeat,2021.2.3,59.79609529387698,
2,2,0,1,3,3,2,2,1,0,1,1,0,1,0,0,113,113,113,1,0,1,0,,,,,,,,,1378.951555499807,None,1379.8272696994245,None,l,1,0.43569339998066425,1379.8272696994245,None,None,None,,,,,,,11,21,female,11,2022_May_06_1033,Partial repeat,2021.2.3,59.79609529387698,
2,2,0,1,3,3,2,2,1,0,1,1,0,1,0,0,113,113,113,,,,,,,,,,,,,,,,,,,,,,,,,,,,,,11,21,female,11,2022_May_06_1033,Partial repeat,2021.2.3,59.79609529387698,
2,2,0,1,3,3,1,1,0,1,1,1,0,1,0,0,114,114,114,0,0,0,0,,,,,,,1380.2843283005059,None,1380.800501300022,None,1381.7809696998447,None,l,1,0.4500078000128269,1381.7809696998447,None,None,None,,,,,,,11,21,female,11,2022_May_06_1033,Partial repeat,2021.2.3,59.79609529387698,
2,2,0,1,3,3,1,1,0,1,1,1,0,1,0,0,114,114,114,1,0,1,0,,,,,,,,,1382.2527754995972,None,1383.0668266005814,None,s,1,0.50810950063169,1383.0668266005814,None,None,None,,,,,,,11,21,female,11,2022_May_06_1033,Partial repeat,2021.2.3,59.79609529387698,
2,2,0,1,3,3,1,1,0,1,1,1,0,1,0,0,114,114,114,,,,,,,,,,,,,,,,,,,,,,,,,,,,,,11,21,female,11,2022_May_06_1033,Partial repeat,2021.2.3,59.79609529387698,
2,2,0,1,2,2,1,1,1,1,1,1,1,1,0,0,115,115,115,0,0,0,0,,,,,,,1383.589488999918,None,1384.2404672000557,None,1385.0882469993085,None,s,1,0.43871220014989376,1385.0882469993085,None,None,None,,,,,,,11,21,female,11,2022_May_06_1033,Partial repeat,2021.2.3,59.79609529387698,
2,2,0,1,2,2,1,1,1,1,1,1,1,1,0,0,115,115,115,1,0,1,0,,,,,,,,,1385.5409546010196,None,1386.4234296008945,None,s,1,0.4315130989998579,1386.4234296008945,None,None,None,,,,,,,11,21,female,11,2022_May_06_1033,Partial repeat,2021.2.3,59.79609529387698,
2,2,0,1,2,2,1,1,1,1,1,1,1,1,0,0,115,115,115,,,,,,,,,,,,,,,,,,,,,,,,,,,,,,11,21,female,11,2022_May_06_1033,Partial repeat,2021.2.3,59.79609529387698,
2,2,0,1,2,3,2,1,1,1,0,0,1,1,0,0,116,116,116,0,0,0,0,,,,,,,1386.8753664009273,None,1389.3003706000745,None,1390.0471497997642,None,s,1,0.4158177003264427,1390.0471497997642,None,None,None,,,,,,,11,21,female,11,2022_May_06_1033,Partial repeat,2021.2.3,59.79609529387698,
2,2,0,1,2,3,2,1,1,1,0,0,1,1,0,0,116,116,116,1,0,1,0,,,,,,,,,1390.4782037008554,None,1391.2833690010011,None,s,1,0.49958339892327785,1391.2833690010011,None,None,None,,,,,,,11,21,female,11,2022_May_06_1033,Partial repeat,2021.2.3,59.79609529387698,
2,2,0,1,2,3,2,1,1,1,0,0,1,1,0,0,116,116,116,,,,,,,,,,,,,,,,,,,,,,,,,,,,,,11,21,female,11,2022_May_06_1033,Partial repeat,2021.2.3,59.79609529387698,
2,2,0,1,3,3,2,1,0,0,1,0,1,1,0,0,117,117,117,0,0,0,0,,,,,,,1391.802029600367,None,1392.206020699814,None,1393.1543118003756,None,l,1,0.6366795003414154,1393.1543118003756,None,None,None,,,,,,,11,21,female,11,2022_May_06_1033,Partial repeat,2021.2.3,59.79609529387698,
2,2,0,1,3,3,2,1,0,0,1,0,1,1,0,0,117,117,117,1,0,1,0,,,,,,,,,1393.8022133000195,None,1394.5568629000336,None,l,1,0.42613640055060387,1394.5568629000336,None,None,None,,,,,,,11,21,female,11,2022_May_06_1033,Partial repeat,2021.2.3,59.79609529387698,
2,2,0,1,3,3,2,1,0,0,1,0,1,1,0,0,117,117,117,,,,,,,,,,,,,,,,,,,,,,,,,,,,,,11,21,female,11,2022_May_06_1033,Partial repeat,2021.2.3,59.79609529387698,
2,2,0,1,2,3,1,2,0,1,0,0,0,1,0,0,118,118,118,0,0,0,0,,,,,,,1395.0123397000134,None,1395.4623672999442,None,1396.242723500356,None,l,1,0.4683448001742363,1396.242723500356,None,None,None,,,,,,,11,21,female,11,2022_May_06_1033,Partial repeat,2021.2.3,59.79609529387698,
2,2,0,1,2,3,1,2,0,1,0,0,0,1,0,0,118,118,118,1,0,1,0,,,,,,,,,1396.72204839997,None,1397.4614572003484,None,s,1,0.40155510045588017,1397.4614572003484,None,None,None,,,,,,,11,21,female,11,2022_May_06_1033,Partial repeat,2021.2.3,59.79609529387698,
2,2,0,1,2,3,1,2,0,1,0,0,0,1,0,0,118,118,118,,,,,,,,,,,,,,,,,,,,,,,,,,,,,,11,21,female,11,2022_May_06_1033,Partial repeat,2021.2.3,59.79609529387698,
2,2,0,1,2,2,2,1,0,0,1,0,1,1,0,0,119,119,119,0,0,0,0,,,,,,,1397.894052799791,None,1398.2511222995818,None,1399.1146881002933,None,l,1,0.38826430030167103,1399.1146881002933,None,None,None,,,,,,,11,21,female,11,2022_May_06_1033,Partial repeat,2021.2.3,59.79609529387698,
2,2,0,1,2,2,2,1,0,0,1,0,1,1,0,0,119,119,119,1,0,1,0,,,,,,,,,1399.5217899996787,None,1400.2681875005364,None,l,1,0.44282530061900616,1400.2681875005364,None,None,None,,,,,,,11,21,female,11,2022_May_06_1033,Partial repeat,2021.2.3,59.79609529387698,
2,2,0,1,2,2,2,1,0,0,1,0,1,1,0,0,119,119,119,,,,,,,,,,,,,,,,,,,,,,,,,,,,,,11,21,female,11,2022_May_06_1033,Partial repeat,2021.2.3,59.79609529387698,
2,2,0,1,3,3,1,1,1,1,1,1,1,1,0,0,120,120,120,0,0,0,0,,,,,,,1400.721995100379,None,1401.0565267000347,None,1401.9538729004562,None,s,1,0.6850797012448311,1401.9538729004562,None,None,None,,,,,,,11,21,female,11,2022_May_06_1033,Partial repeat,2021.2.3,59.79609529387698,
2,2,0,1,3,3,1,1,1,1,1,1,1,1,0,0,120,120,120,1,0,1,0,,,,,,,,,1402.6599928997457,None,1403.4066380001605,None,s,1,0.5603129994124174,1403.4066380001605,None,None,None,,,,,,,11,21,female,11,2022_May_06_1033,Partial repeat,2021.2.3,59.79609529387698,
2,2,0,1,3,3,1,1,1,1,1,1,1,1,0,0,120,120,120,,,,,,,,,,,,,,,,,,,,,,,,,,,,,,11,21,female,11,2022_May_06_1033,Partial repeat,2021.2.3,59.79609529387698,
2,2,0,1,3,2,1,1,0,1,0,1,0,1,0,0,121,121,121,0,0,0,0,,,,,,,1403.9880948998034,None,1404.463200200349,None,1405.3603716008365,None,l,1,0.5665860995650291,1405.3603716008365,None,None,None,,,,,,,11,21,female,11,2022_May_06_1033,Partial repeat,2021.2.3,59.79609529387698,
2,2,0,1,3,2,1,1,0,1,0,1,0,1,0,0,121,121,121,1,0,1,0,,,,,,,,,1405.9382454995066,None,1406.9312226008624,None,s,1,0.5796690005809069,1406.9312226008624,None,None,None,,,,,,,11,21,female,11,2022_May_06_1033,Partial repeat,2021.2.3,59.79609529387698,
2,2,0,1,3,2,1,1,0,1,0,1,0,1,0,0,121,121,121,,,,,,,,,,,,,,,,,,,,,,,,,,,,,,11,21,female,11,2022_May_06_1033,Partial repeat,2021.2.3,59.79609529387698,
2,2,0,1,3,2,1,1,1,1,0,1,1,1,0,0,122,122,122,0,0,0,0,,,,,,,1407.5390579998493,None,1408.4709911998361,None,1409.4690215997398,None,s,1,0.6019336003810167,1409.4690215997398,None,None,None,,,,,,,11,21,female,11,2022_May_06_1033,Partial repeat,2021.2.3,59.79609529387698,
2,2,0,1,3,2,1,1,1,1,0,1,1,1,0,0,122,122,122,1,0,1,0,,,,,,,,,1410.0896805003285,None,1410.9380606003106,None,s,1,0.45292050018906593,1410.9380606003106,None,None,None,,,,,,,11,21,female,11,2022_May_06_1033,Partial repeat,2021.2.3,59.79609529387698,
2,2,0,1,3,2,1,1,1,1,0,1,1,1,0,0,122,122,122,,,,,,,,,,,,,,,,,,,,,,,,,,,,,,11,21,female,11,2022_May_06_1033,Partial repeat,2021.2.3,59.79609529387698,
2,2,0,1,3,2,1,2,1,0,0,0,0,1,0,0,123,123,123,0,0,0,0,,,,,,,1411.4155225995928,None,1411.79414810054,None,1412.741525599733,None,s,1,0.40939920023083687,1412.741525599733,None,None,None,,,,,,,11,21,female,11,2022_May_06_1033,Partial repeat,2021.2.3,59.79609529387698,
2,2,0,1,3,2,1,2,1,0,0,0,0,1,0,0,123,123,123,1,0,1,0,,,,,,,,,1413.1678673997521,None,1413.9270891994238,None,l,1,0.5038707014173269,1413.9270891994238,None,None,None,,,,,,,11,21,female,11,2022_May_06_1033,Partial repeat,2021.2.3,59.79609529387698,
2,2,0,1,3,2,1,2,1,0,0,0,0,1,0,0,123,123,123,,,,,,,,,,,,,,,,,,,,,,,,,,,,,,11,21,female,11,2022_May_06_1033,Partial repeat,2021.2.3,59.79609529387698,
2,2,0,1,3,2,2,1,0,0,0,0,1,1,0,0,124,124,124,0,0,0,0,,,,,,,1414.4500629995018,None,1415.0838312003762,None,1415.8309157006443,None,l,1,0.6000976003706455,1415.8309157006443,None,None,None,,,,,,,11,21,female,11,2022_May_06_1033,Partial repeat,2021.2.3,59.79609529387698,
2,2,0,1,3,2,2,1,0,0,0,0,1,1,0,0,124,124,124,1,0,1,0,,,,,,,,,1416.4555792007595,None,1417.250249300152,None,l,1,0.45274640060961246,1417.250249300152,None,None,None,,,,,,,11,21,female,11,2022_May_06_1033,Partial repeat,2021.2.3,59.79609529387698,
2,2,0,1,3,2,2,1,0,0,0,0,1,1,0,0,124,124,124,,,,,,,,,,,,,,,,,,,,,,,,,,,,,,11,21,female,11,2022_May_06_1033,Partial repeat,2021.2.3,59.79609529387698,
2,2,0,1,3,3,1,2,0,1,1,0,0,1,0,0,125,125,125,0,0,0,0,,,,,,,1417.7262194007635,None,1418.17319660075,None,1419.0874025002122,None,l,1,0.4235328994691372,1419.0874025002122,None,None,None,,,,,,,11,21,female,11,2022_May_06_1033,Partial repeat,2021.2.3,59.79609529387698,
2,2,0,1,3,3,1,2,0,1,1,0,0,1,0,0,125,125,125,1,0,1,0,,,,,,,,,1419.5370049998164,None,1420.472992600873,None,s,1,0.5100352000445127,1420.472992600873,None,None,None,,,,,,,11,21,female,11,2022_May_06_1033,Partial repeat,2021.2.3,59.79609529387698,
2,2,0,1,3,3,1,2,0,1,1,0,0,1,0,0,125,125,125,,,,,,,,,,,,,,,,,,,,,,,,,,,,,,11,21,female,11,2022_May_06_1033,Partial repeat,2021.2.3,59.79609529387698,
2,2,0,1,2,3,2,2,0,0,0,1,1,1,0,0,126,126,126,0,0,0,0,,,,,,,1420.997441900894,None,1421.8136305008084,None,1422.7284929994494,None,l,1,0.47841070033609867,1422.7284929994494,None,None,None,,,,,,,11,21,female,11,2022_May_06_1033,Partial repeat,2021.2.3,59.79609529387698,
2,2,0,1,2,3,2,2,0,0,0,1,1,1,0,0,126,126,126,1,0,1,0,,,,,,,,,1423.2183477003127,None,1424.2136774994433,None,l,1,0.4012737013399601,1424.2136774994433,None,None,None,,,,,,,11,21,female,11,2022_May_06_1033,Partial repeat,2021.2.3,59.79609529387698,
2,2,0,1,2,3,2,2,0,0,0,1,1,1,0,0,126,126,126,,,,,,,,,,,,,,,,,,,,,,,,,,,,,,11,21,female,11,2022_May_06_1033,Partial repeat,2021.2.3,59.79609529387698,
2,2,0,1,2,2,1,2,1,1,1,0,1,1,0,0,127,127,127,0,0,0,0,,,,,,,1424.6299882009625,None,1425.0198503993452,None,1425.9836723003536,None,s,1,0.4792791996151209,1425.9836723003536,None,None,None,,,,,,,11,21,female,11,2022_May_06_1033,Partial repeat,2021.2.3,59.79609529387698,
2,2,0,1,2,2,1,2,1,1,1,0,1,1,0,0,127,127,127,1,0,1,0,,,,,,,,,1426.4778950996697,None,1427.370460299775,None,s,1,0.46048969961702824,1427.370460299775,None,None,None,,,,,,,11,21,female,11,2022_May_06_1033,Partial repeat,2021.2.3,59.79609529387698,
2,2,0,1,2,2,1,2,1,1,1,0,1,1,0,0,127,127,127,,,,,,,,,,,,,,,,,,,,,,,,,,,,,,11,21,female,11,2022_May_06_1033,Partial repeat,2021.2.3,59.79609529387698,
3,4,0,1,2,2,2,1,1,1,1,0,1,0,0,0,128,128,128,0,0,0,0,,,,,,,1428.2059957999736,None,1429.1111795995384,None,1430.0915751997381,None,s,1,0.6673381011933088,1430.0915751997381,None,None,None,,,,,,,11,21,female,11,2022_May_06_1033,Partial repeat,2021.2.3,59.79609529387698,
3,4,0,1,2,2,2,1,1,1,1,0,1,0,0,0,128,128,128,1,0,1,0,,,,,,,,,1430.7705731000751,None,1431.5121916010976,None,s,1,0.5507567003369331,1431.5121916010976,None,None,None,,,,,,,11,21,female,11,2022_May_06_1033,Partial repeat,2021.2.3,59.79609529387698,
3,4,0,1,2,2,2,1,1,1,1,0,1,0,0,0,128,128,128,,,,,,,,,,,,,,,,,,,,,,,,,,,,,,11,21,female,11,2022_May_06_1033,Partial repeat,2021.2.3,59.79609529387698,
8,7,0,1,2,3,2,2,0,1,0,1,0,0,0,0,129,129,129,0,0,0,0,,,,,,,1432.0783127993345,None,1433.653318900615,None,1434.5503778010607,None,l,1,0.7446237001568079,1434.5503778010607,None,None,None,,,,,,,11,21,female,11,2022_May_06_1033,Partial repeat,2021.2.3,59.79609529387698,
8,7,0,1,2,3,2,2,0,1,0,1,0,0,0,0,129,129,129,1,0,1,0,,,,,,,,,1435.321465300396,None,1436.3370974995196,None,s,1,0.7978505995124578,1436.3370974995196,None,None,None,,,,,,,11,21,female,11,2022_May_06_1033,Partial repeat,2021.2.3,59.79609529387698,
8,7,0,1,2,3,2,2,0,1,0,1,0,0,0,0,129,129,129,,,,,,,,,,,,,,,,,,,,,,,,,,,,,,11,21,female,11,2022_May_06_1033,Partial repeat,2021.2.3,59.79609529387698,
7,3,0,1,3,2,2,1,1,1,0,0,1,0,0,0,130,130,130,0,0,0,0,,,,,,,1437.1567032001913,None,1437.644381299615,None,1438.6415887996554,None,s,1,0.5413786992430687,1438.6415887996554,None,None,None,,,,,,,11,21,female,11,2022_May_06_1033,Partial repeat,2021.2.3,59.79609529387698,
7,3,0,1,3,2,2,1,1,1,0,0,1,0,0,0,130,130,130,1,0,1,0,,,,,,,,,1439.1989757996053,None,1440.1615281999111,None,s,1,1.0294432993978262,1440.1615281999111,None,None,None,,,,,,,11,21,female,11,2022_May_06_1033,Partial repeat,2021.2.3,59.79609529387698,
7,3,0,1,3,2,2,1,1,1,0,0,1,0,0,0,130,130,130,,,,,,,,,,,,,,,,,,,,,,,,,,,,,,11,21,female,11,2022_May_06_1033,Partial repeat,2021.2.3,59.79609529387698,
8,2,0,1,2,2,2,2,1,0,1,1,0,0,0,0,131,131,131,0,0,0,0,,,,,,,1441.2094653993845,None,1441.6355598010123,None,1442.4489599000663,None,l,0,0.5900457985699177,1442.4489599000663,None,1443.047271700576,None,,,,,,,11,21,female,11,2022_May_06_1033,Partial repeat,2021.2.3,59.79609529387698,
8,2,0,1,2,2,2,2,1,0,1,1,0,0,0,0,131,131,131,1,0,1,0,,,,,,,,,1443.555850001052,None,1444.5699669010937,None,l,1,0.677106399089098,1444.5699669010937,None,None,None,,,,,,,11,21,female,11,2022_May_06_1033,Partial repeat,2021.2.3,59.79609529387698,
8,2,0,1,2,2,2,2,1,0,1,1,0,0,0,0,131,131,131,,,,,,,,,,,,,,,,,,,,,,,,,,,,,,11,21,female,11,2022_May_06_1033,Partial repeat,2021.2.3,59.79609529387698,
6,1,0,1,3,3,2,1,0,0,1,0,1,0,0,0,132,132,132,0,0,0,0,,,,,,,1445.2612120006233,None,1445.7100680004805,None,1446.4401191007346,None,l,1,0.7748766001313925,1446.4401191007346,None,None,None,,,,,,,11,21,female,11,2022_May_06_1033,Partial repeat,2021.2.3,59.79609529387698,
6,1,0,1,3,3,2,1,0,0,1,0,1,0,0,0,132,132,132,1,0,1,0,,,,,,,,,1447.2282264009118,None,1448.1439789999276,None,l,1,0.7028720006346703,1448.1439789999276,None,None,None,,,,,,,11,21,female,11,2022_May_06_1033,Partial repeat,2021.2.3,59.79609529387698,
6,1,0,1,3,3,2,1,0,0,1,0,1,0,0,0,132,132,132,,,,,,,,,,,,,,,,,,,,,,,,,,,,,,11,21,female,11,2022_May_06_1033,Partial repeat,2021.2.3,59.79609529387698,
6,5,0,1,2,2,1,1,1,1,1,1,1,0,0,0,133,133,133,0,0,0,0,,,,,,,1448.8605419006199,None,1449.2836891002953,None,1450.0806930009276,None,s,1,0.6702926009893417,1450.0806930009276,None,None,None,,,,,,,11,21,female,11,2022_May_06_1033,Partial repeat,2021.2.3,59.79609529387698,
6,5,0,1,2,2,1,1,1,1,1,1,1,0,0,0,133,133,133,1,0,1,0,,,,,,,,,1450.7661144006997,None,1451.7504487000406,None,s,1,0.552582498639822,1451.7504487000406,None,None,None,,,,,,,11,21,female,11,2022_May_06_1033,Partial repeat,2021.2.3,59.79609529387698,
6,5,0,1,2,2,1,1,1,1,1,1,1,0,0,0,133,133,133,,,,,,,,,,,,,,,,,,,,,,,,,,,,,,11,21,female,11,2022_May_06_1033,Partial repeat,2021.2.3,59.79609529387698,
2,7,0,1,2,2,1,2,1,1,1,0,1,0,0,0,134,134,134,0,0,0,0,,,,,,,1452.3153473008424,None,1452.7070594001561,None,1453.6206806004047,None,s,1,0.8822195995599031,1453.6206806004047,None,None,None,,,,,,,11,21,female,11,2022_May_06_1033,Partial repeat,2021.2.3,59.79609529387698,
2,7,0,1,2,2,1,2,1,1,1,0,1,0,0,0,134,134,134,1,0,1,0,,,,,,,,,1454.5159734003246,None,1455.2572728004307,None,s,1,0.8057029005140066,1455.2572728004307,None,None,None,,,,,,,11,21,female,11,2022_May_06_1033,Partial repeat,2021.2.3,59.79609529387698,
2,7,0,1,2,2,1,2,1,1,1,0,1,0,0,0,134,134,134,,,,,,,,,,,,,,,,,,,,,,,,,,,,,,11,21,female,11,2022_May_06_1033,Partial repeat,2021.2.3,59.79609529387698,
8,5,0,1,2,2,2,2,0,1,1,1,0,0,0,0,135,135,135,0,0,0,0,,,,,,,1456.0920257996768,None,1456.8150308001786,None,1457.7292187996209,None,l,1,0.8777146991342306,1457.7292187996209,None,None,None,,,,,,,11,21,female,11,2022_May_06_1033,Partial repeat,2021.2.3,59.79609529387698,
8,5,0,1,2,2,2,2,0,1,1,1,0,0,0,0,135,135,135,1,0,1,0,,,,,,,,,1458.6297701001167,None,1459.3662541992962,None,s,1,0.7926762998104095,1459.3662541992962,None,None,None,,,,,,,11,21,female,11,2022_May_06_1033,Partial repeat,2021.2.3,59.79609529387698,
8,5,0,1,2,2,2,2,0,1,1,1,0,0,0,0,135,135,135,,,,,,,,,,,,,,,,,,,,,,,,,,,,,,11,21,female,11,2022_May_06_1033,Partial repeat,2021.2.3,59.79609529387698,
5,7,0,1,2,2,1,1,0,0,1,1,1,0,0,0,136,136,136,0,0,0,0,,,,,,,1460.1826777998358,None,1460.8729270994663,None,1461.7367631010711,None,l,1,0.7261971011757851,1461.7367631010711,None,None,None,,,,,,,11,21,female,11,2022_May_06_1033,Partial repeat,2021.2.3,59.79609529387698,
5,7,0,1,2,2,1,1,0,0,1,1,1,0,0,0,136,136,136,1,0,1,0,,,,,,,,,1462.485310299322,None,1463.4567185994238,None,l,1,0.6302064005285501,1463.4567185994238,None,None,None,,,,,,,11,21,female,11,2022_May_06_1033,Partial repeat,2021.2.3,59.79609529387698,
5,7,0,1,2,2,1,1,0,0,1,1,1,0,0,0,136,136,136,,,,,,,,,,,,,,,,,,,,,,,,,,,,,,11,21,female,11,2022_May_06_1033,Partial repeat,2021.2.3,59.79609529387698,
2,6,0,1,3,2,1,1,0,0,0,1,1,0,0,0,137,137,137,0,0,0,0,,,,,,,1464.1014331001788,None,1464.5300501007587,None,1465.2773612998426,None,l,1,0.5856142994016409,1465.2773612998426,None,None,None,,,,,,,11,21,female,11,2022_May_06_1033,Partial repeat,2021.2.3,59.79609529387698,
2,6,0,1,3,2,1,1,0,0,0,1,1,0,0,0,137,137,137,1,0,1,0,,,,,,,,,1465.8912658002228,None,1466.8464995007962,None,l,1,0.6084301993250847,1466.8464995007962,None,None,None,,,,,,,11,21,female,11,2022_May_06_1033,Partial repeat,2021.2.3,59.79609529387698,
2,6,0,1,3,2,1,1,0,0,0,1,1,0,0,0,137,137,137,,,,,,,,,,,,,,,,,,,,,,,,,,,,,,11,21,female,11,2022_May_06_1033,Partial repeat,2021.2.3,59.79609529387698,
4,1,0,1,3,3,2,2,1,1,1,1,1,0,0,0,138,138,138,0,0,0,0,,,,,,,1467.4709424003959,None,1468.003457101062,None,1468.7672394998372,None,s,1,0.6476781014353037,1468.7672394998372,None,None,None,,,,,,,11,21,female,11,2022_May_06_1033,Partial repeat,2021.2.3,59.79609529387698,
4,1,0,1,3,3,2,2,1,1,1,1,1,0,0,0,138,138,138,1,0,1,0,,,,,,,,,1469.4404949992895,None,1470.3703656997532,None,s,1,0.6525976005941629,1470.3703656997532,None,None,None,,,,,,,11,21,female,11,2022_May_06_1033,Partial repeat,2021.2.3,59.79609529387698,
4,1,0,1,3,3,2,2,1,1,1,1,1,0,0,0,138,138,138,,,,,,,,,,,,,,,,,,,,,,,,,,,,,,11,21,female,11,2022_May_06_1033,Partial repeat,2021.2.3,59.79609529387698,
5,1,0,1,2,2,2,1,0,0,1,0,1,0,0,0,139,139,139,0,0,0,0,,,,,,,1471.0425891000777,None,1471.9277635999024,None,1472.674748999998,None,l,1,0.5881842002272606,1472.674748999998,None,None,None,,,,,,,11,21,female,11,2022_May_06_1033,Partial repeat,2021.2.3,59.79609529387698,
5,1,0,1,2,2,2,1,0,0,1,0,1,0,0,0,139,139,139,1,0,1,0,,,,,,,,,1473.2768213003874,None,1474.095036599785,None,l,1,0.5599163006991148,1474.095036599785,None,None,None,,,,,,,11,21,female,11,2022_May_06_1033,Partial repeat,2021.2.3,59.79609529387698,
5,1,0,1,2,2,2,1,0,0,1,0,1,0,0,0,139,139,139,,,,,,,,,,,,,,,,,,,,,,,,,,,,,,11,21,female,11,2022_May_06_1033,Partial repeat,2021.2.3,59.79609529387698,
6,8,0,1,3,3,2,1,0,1,1,0,0,0,0,0,140,140,140,0,0,0,0,,,,,,,1474.6817902997136,None,1475.1672131996602,None,1476.1148911006749,None,l,1,0.6920290011912584,1476.1148911006749,None,None,None,,,,,,,11,21,female,11,2022_May_06_1033,Partial repeat,2021.2.3,59.79609529387698,
6,8,0,1,3,3,2,1,0,1,1,0,0,0,0,0,140,140,140,1,0,1,0,,,,,,,,,1476.8236072994769,None,1477.8013805001974,None,s,1,0.5895348992198706,1477.8013805001974,None,None,None,,,,,,,11,21,female,11,2022_May_06_1033,Partial repeat,2021.2.3,59.79609529387698,
6,8,0,1,3,3,2,1,0,1,1,0,0,0,0,0,140,140,140,,,,,,,,,,,,,,,,,,,,,,,,,,,,,,11,21,female,11,2022_May_06_1033,Partial repeat,2021.2.3,59.79609529387698,
8,8,0,1,3,3,1,2,0,0,1,0,1,0,0,0,141,141,141,0,0,0,0,,,,,,,1478.4076492004097,None,1479.325466999784,None,1480.272922700271,None,l,1,0.6780895013362169,1480.272922700271,None,None,None,,,,,,,11,21,female,11,2022_May_06_1033,Partial repeat,2021.2.3,59.79609529387698,
8,8,0,1,3,3,1,2,0,0,1,0,1,0,0,0,141,141,141,1,0,1,0,,,,,,,,,1480.9605037011206,None,1481.7589742001146,None,l,1,0.4799432009458542,1481.7589742001146,None,None,None,,,,,,,11,21,female,11,2022_May_06_1033,Partial repeat,2021.2.3,59.79609529387698,
8,8,0,1,3,3,1,2,0,0,1,0,1,0,0,0,141,141,141,,,,,,,,,,,,,,,,,,,,,,,,,,,,,,11,21,female,11,2022_May_06_1033,Partial repeat,2021.2.3,59.79609529387698,
7,1,0,1,2,2,2,2,0,0,1,1,1,0,0,0,142,142,142,0,0,0,0,,,,,,,1482.259474599734,None,1483.3666731007397,None,1484.130293900147,None,l,1,0.55663220025599,1484.130293900147,None,None,None,,,,,,,11,21,female,11,2022_May_06_1033,Partial repeat,2021.2.3,59.79609529387698,
7,1,0,1,2,2,2,2,0,0,1,1,1,0,0,0,142,142,142,1,0,1,0,,,,,,,,,1484.7118691001087,None,1485.4718605000526,None,l,1,0.5030214991420507,1485.4718605000526,None,None,None,,,,,,,11,21,female,11,2022_May_06_1033,Partial repeat,2021.2.3,59.79609529387698,
7,1,0,1,2,2,2,2,0,0,1,1,1,0,0,0,142,142,142,,,,,,,,,,,,,,,,,,,,,,,,,,,,,,11,21,female,11,2022_May_06_1033,Partial repeat,2021.2.3,59.79609529387698,
6,2,0,1,2,2,1,1,1,0,1,1,0,0,0,0,143,143,143,0,0,0,0,,,,,,,1485.9927306007594,None,1486.3725368008018,None,1487.152704199776,None,s,1,0.5743857007473707,1487.152704199776,None,None,None,,,,,,,11,21,female,11,2022_May_06_1033,Partial repeat,2021.2.3,59.79609529387698,
6,2,0,1,2,2,1,1,1,0,1,1,0,0,0,0,143,143,143,1,0,1,0,,,,,,,,,1487.736192399636,None,1488.539070500061,None,l,1,0.547902800142765,1488.539070500061,None,None,None,,,,,,,11,21,female,11,2022_May_06_1033,Partial repeat,2021.2.3,59.79609529387698,
6,2,0,1,2,2,1,1,1,0,1,1,0,0,0,0,143,143,143,,,,,,,,,,,,,,,,,,,,,,,,,,,,,,11,21,female,11,2022_May_06_1033,Partial repeat,2021.2.3,59.79609529387698,
6,3,0,1,3,2,2,2,0,0,0,1,1,0,0,0,144,144,144,0,0,0,0,,,,,,,1489.1184442993253,None,1489.5453081000596,None,1490.3759572003037,None,l,1,0.5749581009149551,1490.3759572003037,None,None,None,,,,,,,11,21,female,11,2022_May_06_1033,Partial repeat,2021.2.3,59.79609529387698,
6,3,0,1,3,2,2,2,0,0,0,1,1,0,0,0,144,144,144,1,0,1,0,,,,,,,,,1490.9761539008468,None,1491.7118688002229,None,l,1,0.5270175002515316,1491.7118688002229,None,None,None,,,,,,,11,21,female,11,2022_May_06_1033,Partial repeat,2021.2.3,59.79609529387698,
6,3,0,1,3,2,2,2,0,0,0,1,1,0,0,0,144,144,144,,,,,,,,,,,,,,,,,,,,,,,,,,,,,,11,21,female,11,2022_May_06_1033,Partial repeat,2021.2.3,59.79609529387698,
4,7,0,1,3,2,1,1,1,0,0,1,0,0,0,0,145,145,145,0,0,0,0,,,,,,,1492.2560360003263,None,1493.3193843998015,None,1494.1840899009258,None,s,1,0.6067961994558573,1494.1840899009258,None,None,None,,,,,,,11,21,female,11,2022_May_06_1033,Partial repeat,2021.2.3,59.79609529387698,
4,7,0,1,3,2,1,1,1,0,0,1,0,0,0,0,145,145,145,1,0,1,0,,,,,,,,,1494.8061021007597,None,1495.602805800736,None,l,1,0.7801085002720356,1495.602805800736,None,None,None,,,,,,,11,21,female,11,2022_May_06_1033,Partial repeat,2021.2.3,59.79609529387698,
4,7,0,1,3,2,1,1,1,0,0,1,0,0,0,0,145,145,145,,,,,,,,,,,,,,,,,,,,,,,,,,,,,,11,21,female,11,2022_May_06_1033,Partial repeat,2021.2.3,59.79609529387698,
2,8,0,1,2,3,2,1,1,0,0,0,0,0,0,0,146,146,146,0,0,0,0,,,,,,,1496.406624700874,None,1496.8261539004743,None,1497.6067201010883,None,s,1,0.66418900154531,1497.6067201010883,None,None,None,,,,,,,11,21,female,11,2022_May_06_1033,Partial repeat,2021.2.3,59.79609529387698,
2,8,0,1,2,3,2,1,1,0,0,0,0,0,0,0,146,146,146,1,0,1,0,,,,,,,,,1498.2934403996915,None,1499.2429914008826,None,l,1,0.5959111005067825,1499.2429914008826,None,None,None,,,,,,,11,21,female,11,2022_May_06_1033,Partial repeat,2021.2.3,59.79609529387698,
2,8,0,1,2,3,2,1,1,0,0,0,0,0,0,0,146,146,146,,,,,,,,,,,,,,,,,,,,,,,,,,,,,,11,21,female,11,2022_May_06_1033,Partial repeat,2021.2.3,59.79609529387698,
1,6,0,1,2,3,2,2,1,0,0,1,0,0,0,0,147,147,147,0,0,0,0,,,,,,,1499.8657764997333,None,1500.8172817006707,None,1501.7646316010505,None,s,1,0.5302677005529404,1501.7646316010505,None,None,None,,,,,,,11,21,female,11,2022_May_06_1033,Partial repeat,2021.2.3,59.79609529387698,
1,6,0,1,2,3,2,2,1,0,0,1,0,0,0,0,147,147,147,1,0,1,0,,,,,,,,,1502.3212794996798,None,1503.2674791999161,None,l,1,0.6834306009113789,1503.2674791999161,None,None,None,,,,,,,11,21,female,11,2022_May_06_1033,Partial repeat,2021.2.3,59.79609529387698,
1,6,0,1,2,3,2,2,1,0,0,1,0,0,0,0,147,147,147,,,,,,,,,,,,,,,,,,,,,,,,,,,,,,11,21,female,11,2022_May_06_1033,Partial repeat,2021.2.3,59.79609529387698,
5,2,0,1,3,3,2,2,0,0,1,1,1,0,0,0,148,148,148,0,0,0,0,,,,,,,1503.978634700179,None,1504.52452930063,None,1505.455201100558,None,l,1,0.5277519002556801,1505.455201100558,None,None,None,,,,,,,11,21,female,11,2022_May_06_1033,Partial repeat,2021.2.3,59.79609529387698,
5,2,0,1,3,3,2,2,0,0,1,1,1,0,0,0,148,148,148,1,0,1,0,,,,,,,,,1506.0100956000388,None,1507.0670817010105,None,l,1,0.5477737989276648,1507.0670817010105,None,None,None,,,,,,,11,21,female,11,2022_May_06_1033,Partial repeat,2021.2.3,59.79609529387698,
5,2,0,1,3,3,2,2,0,0,1,1,1,0,0,0,148,148,148,,,,,,,,,,,,,,,,,,,,,,,,,,,,,,11,21,female,11,2022_May_06_1033,Partial repeat,2021.2.3,59.79609529387698,
2,2,0,1,2,2,2,1,0,1,1,0,0,0,0,0,149,149,149,0,0,0,0,,,,,,,1507.633387900889,None,1508.03134990111,None,1509.012122200802,None,l,1,0.43477699905633926,1509.012122200802,None,None,None,,,,,,,11,21,female,11,2022_May_06_1033,Partial repeat,2021.2.3,59.79609529387698,
2,2,0,1,2,2,2,1,0,1,1,0,0,0,0,0,149,149,149,1,0,1,0,,,,,,,,,1509.4619692005217,None,1510.2142903003842,None,s,1,0.5845944993197918,1510.2142903003842,None,None,None,,,,,,,11,21,female,11,2022_May_06_1033,Partial repeat,2021.2.3,59.79609529387698,
2,2,0,1,2,2,2,1,0,1,1,0,0,0,0,0,149,149,149,,,,,,,,,,,,,,,,,,,,,,,,,,,,,,11,21,female,11,2022_May_06_1033,Partial repeat,2021.2.3,59.79609529387698,
4,8,0,1,3,3,1,1,1,0,1,1,0,0,0,0,150,150,150,0,0,0,0,,,,,,,1510.8192286007106,None,1511.1707662995905,None,1512.0846963003278,None,s,1,0.7462559994310141,1512.0846963003278,None,None,None,,,,,,,11,21,female,11,2022_May_06_1033,Partial repeat,2021.2.3,59.79609529387698,
