prime_tar_pos,probe_tar_pos,dimension,tar_color,prime_dist_color,probe_dist_color,prime_dist_shape,probe_dist_shape,prime_tar_dot_pos,probe_tar_dot_pos,col_rep,shape_rep,resp_rep,pos_fixed,sparse,MainLoop.thisRepN,MainLoop.thisTrialN,MainLoop.thisN,MainLoop.thisIndex,PrimeProbe.thisRepN,PrimeProbe.thisTrialN,PrimeProbe.thisN,PrimeProbe.thisIndex,Instruction.started,Instruction.stopped,instruction_key.keys,instruction_key.rt,instruction_key.started,instruction_key.stopped,PairStartText.started,PairStartText.stopped,FixCross.started,FixCross.stopped,SearchFixCross.started,SearchFixCross.stopped,key_resp.keys,key_resp.corr,key_resp.rt,key_resp.started,key_resp.stopped,feedback_text.started,feedback_text.stopped,text_finish.started,text_finish.stopped,finish_key.keys,finish_key.rt,finish_key.started,finish_key.stopped,participant,age,gender,group,date,expName,psychopyVersion,frameRate,
,,,,,,,,,,,,,,,,,,,,,,,347.36017219908535,None,space,53.045184100046754,347.36017219908535,None,,,,,,,,,,,,,,,,,,,,12,24,female,12,2022_May_06_1145,Partial repeat,2021.2.3,59.89996732491174,
6,6,0,1,2,2,1,1,0,0,1,1,1,1,0,0,0,0,0,0,0,0,0,,,,,,,400.52566669881344,None,402.90260059945285,None,403.65015769936144,None,s,0,2.2268888000398874,403.65015769936144,None,405.9023336004466,None,,,,,,,12,24,female,12,2022_May_06_1145,Partial repeat,2021.2.3,59.89996732491174,
6,6,0,1,2,2,1,1,0,0,1,1,1,1,0,0,0,0,0,1,0,1,0,,,,,,,,,406.40946019999683,None,407.1561326999217,None,l,1,6.824911201372743,407.1561326999217,None,None,None,,,,,,,12,24,female,12,2022_May_06_1145,Partial repeat,2021.2.3,59.89996732491174,
6,6,0,1,2,2,1,1,0,0,1,1,1,1,0,0,0,0,0,,,,,,,,,,,,,,,,,,,,,,,,,,,,,,12,24,female,12,2022_May_06_1145,Partial repeat,2021.2.3,59.89996732491174,
6,6,0,1,3,2,2,1,1,0,0,0,0,1,0,0,1,1,1,0,0,0,0,,,,,,,414.00211790017784,None,415.7108839992434,None,416.5244116000831,None,s,1,0.9446297008544207,416.5244116000831,None,None,None,,,,,,,12,24,female,12,2022_May_06_1145,Partial repeat,2021.2.3,59.89996732491174,
6,6,0,1,3,2,2,1,1,0,0,0,0,1,0,0,1,1,1,1,0,1,0,,,,,,,,,417.4841478988528,None,418.24516969919205,None,l,1,0.8558514006435871,418.24516969919205,None,None,None,,,,,,,12,24,female,12,2022_May_06_1145,Partial repeat,2021.2.3,59.89996732491174,
6,6,0,1,3,2,2,1,1,0,0,0,0,1,0,0,1,1,1,,,,,,,,,,,,,,,,,,,,,,,,,,,,,,12,24,female,12,2022_May_06_1145,Partial repeat,2021.2.3,59.89996732491174,
6,6,0,1,2,3,2,1,1,0,0,0,0,1,0,0,2,2,2,0,0,0,0,,,,,,,419.12886049970984,None,420.45346169918776,None,421.26752579957247,None,s,1,0.87352329865098,421.26752579957247,None,None,None,,,,,,,12,24,female,12,2022_May_06_1145,Partial repeat,2021.2.3,59.89996732491174,
6,6,0,1,2,3,2,1,1,0,0,0,0,1,0,0,2,2,2,1,0,1,0,,,,,,,,,422.1587789002806,None,423.0204181987792,None,s,0,2.3846252001821995,423.0204181987792,None,425.42908729985356,None,,,,,,,12,24,female,12,2022_May_06_1145,Partial repeat,2021.2.3,59.89996732491174,
6,6,0,1,2,3,2,1,1,0,0,0,0,1,0,0,2,2,2,,,,,,,,,,,,,,,,,,,,,,,,,,,,,,12,24,female,12,2022_May_06_1145,Partial repeat,2021.2.3,59.89996732491174,
6,6,0,1,3,2,2,1,0,0,0,0,1,1,0,0,3,3,3,0,0,0,0,,,,,,,425.9307760987431,None,428.7362210005522,None,429.60005719959736,None,l,1,6.661110000684857,429.60005719959736,None,None,None,,,,,,,12,24,female,12,2022_May_06_1145,Partial repeat,2021.2.3,59.89996732491174,
6,6,0,1,3,2,2,1,0,0,0,0,1,1,0,0,3,3,3,1,0,1,0,,,,,,,,,436.27214349992573,None,437.2656343989074,None,l,1,1.4753873012959957,437.2656343989074,None,None,None,,,,,,,12,24,female,12,2022_May_06_1145,Partial repeat,2021.2.3,59.89996732491174,
6,6,0,1,3,2,2,1,0,0,0,0,1,1,0,0,3,3,3,,,,,,,,,,,,,,,,,,,,,,,,,,,,,,12,24,female,12,2022_May_06_1145,Partial repeat,2021.2.3,59.89996732491174,
6,6,0,1,3,2,2,2,1,0,0,1,0,1,0,0,4,4,4,0,0,0,0,,,,,,,438.75538400001824,None,440.22513839975,None,440.97223060019314,None,s,1,0.8647880014032125,440.97223060019314,None,None,None,,,,,,,12,24,female,12,2022_May_06_1145,Partial repeat,2021.2.3,59.89996732491174,
6,6,0,1,3,2,2,2,1,0,0,1,0,1,0,0,4,4,4,1,0,1,0,,,,,,,,,441.8597189988941,None,442.70887349918485,None,l,1,0.7203176002949476,442.70887349918485,None,None,None,,,,,,,12,24,female,12,2022_May_06_1145,Partial repeat,2021.2.3,59.89996732491174,
6,6,0,1,3,2,2,2,1,0,0,1,0,1,0,0,4,4,4,,,,,,,,,,,,,,,,,,,,,,,,,,,,,,12,24,female,12,2022_May_06_1145,Partial repeat,2021.2.3,59.89996732491174,
6,6,0,1,2,3,1,1,1,0,0,1,0,1,0,0,5,5,5,0,0,0,0,,,,,,,443.4411562997848,None,445.1347400993109,None,445.86491489969194,None,s,1,1.4600731004029512,445.86491489969194,None,None,None,,,,,,,12,24,female,12,2022_May_06_1145,Partial repeat,2021.2.3,59.89996732491174,
6,6,0,1,2,3,1,1,1,0,0,1,0,1,0,0,5,5,5,1,0,1,0,,,,,,,,,447.3453713003546,None,448.06997830048203,None,l,1,0.6390527002513409,448.06997830048203,None,None,None,,,,,,,12,24,female,12,2022_May_06_1145,Partial repeat,2021.2.3,59.89996732491174,
6,6,0,1,2,3,1,1,1,0,0,1,0,1,0,0,5,5,5,,,,,,,,,,,,,,,,,,,,,,,,,,,,,,12,24,female,12,2022_May_06_1145,Partial repeat,2021.2.3,59.89996732491174,
6,6,0,1,2,2,1,2,1,0,1,0,0,1,0,0,6,6,6,0,0,0,0,,,,,,,448.73702289909124,None,450.47851159982383,None,451.22647759877145,None,s,1,0.7465566992759705,451.22647759877145,None,None,None,,,,,,,12,24,female,12,2022_May_06_1145,Partial repeat,2021.2.3,59.89996732491174,
6,6,0,1,2,2,1,2,1,0,1,0,0,1,0,0,6,6,6,1,0,1,0,,,,,,,,,451.9953157994896,None,452.96222350001335,None,l,1,0.6588083002716303,452.96222350001335,None,None,None,,,,,,,12,24,female,12,2022_May_06_1145,Partial repeat,2021.2.3,59.89996732491174,
6,6,0,1,2,2,1,2,1,0,1,0,0,1,0,0,6,6,6,,,,,,,,,,,,,,,,,,,,,,,,,,,,,,12,24,female,12,2022_May_06_1145,Partial repeat,2021.2.3,59.89996732491174,
6,6,0,1,3,2,2,2,1,1,0,1,1,1,0,0,7,7,7,0,0,0,0,,,,,,,453.6486114002764,None,461.900751600042,None,462.61406089924276,None,s,1,0.7749949004501104,462.61406089924276,None,None,None,,,,,,,12,24,female,12,2022_May_06_1145,Partial repeat,2021.2.3,59.89996732491174,
6,6,0,1,3,2,2,2,1,1,0,1,1,1,0,0,7,7,7,1,0,1,0,,,,,,,,,463.4047640003264,None,464.4177841991186,None,s,1,0.7232983987778425,464.4177841991186,None,None,None,,,,,,,12,24,female,12,2022_May_06_1145,Partial repeat,2021.2.3,59.89996732491174,
6,6,0,1,3,2,2,2,1,1,0,1,1,1,0,0,7,7,7,,,,,,,,,,,,,,,,,,,,,,,,,,,,,,12,24,female,12,2022_May_06_1145,Partial repeat,2021.2.3,59.89996732491174,
6,6,0,1,3,2,1,2,0,1,0,0,0,1,0,0,8,8,8,0,0,0,0,,,,,,,465.16858999989927,None,468.3800483997911,None,469.3607196994126,None,l,1,0.7163853012025356,469.3607196994126,None,None,None,,,,,,,12,24,female,12,2022_May_06_1145,Partial repeat,2021.2.3,59.89996732491174,
6,6,0,1,3,2,1,2,0,1,0,0,0,1,0,0,8,8,8,1,0,1,0,,,,,,,,,470.0896658990532,None,471.08322319947183,None,s,1,0.8337960001081228,471.08322319947183,None,None,None,,,,,,,12,24,female,12,2022_May_06_1145,Partial repeat,2021.2.3,59.89996732491174,
6,6,0,1,3,2,1,2,0,1,0,0,0,1,0,0,8,8,8,,,,,,,,,,,,,,,,,,,,,,,,,,,,,,12,24,female,12,2022_May_06_1145,Partial repeat,2021.2.3,59.89996732491174,
6,6,0,1,2,2,2,1,0,0,1,0,1,1,0,0,9,9,9,0,0,0,0,,,,,,,471.9379324000329,None,472.8553518988192,None,473.75252969935536,None,l,1,0.6124556995928288,473.75252969935536,None,None,None,,,,,,,12,24,female,12,2022_May_06_1145,Partial repeat,2021.2.3,59.89996732491174,
6,6,0,1,2,2,2,1,0,0,1,0,1,1,0,0,9,9,9,1,0,1,0,,,,,,,,,474.39350239932537,None,475.18902250006795,None,l,1,1.0400194004178047,475.18902250006795,None,None,None,,,,,,,12,24,female,12,2022_May_06_1145,Partial repeat,2021.2.3,59.89996732491174,
6,6,0,1,2,2,2,1,0,0,1,0,1,1,0,0,9,9,9,,,,,,,,,,,,,,,,,,,,,,,,,,,,,,12,24,female,12,2022_May_06_1145,Partial repeat,2021.2.3,59.89996732491174,
6,6,0,1,3,3,2,1,1,0,1,0,0,1,0,0,10,10,10,0,0,0,0,,,,,,,476.2600026987493,None,477.4476250000298,None,478.41146739944816,None,s,1,0.6816086005419493,478.41146739944816,None,None,None,,,,,,,12,24,female,12,2022_May_06_1145,Partial repeat,2021.2.3,59.89996732491174,
6,6,0,1,3,3,2,1,1,0,1,0,0,1,0,0,10,10,10,1,0,1,0,,,,,,,,,479.1126991994679,None,480.11483969911933,None,l,1,0.9861433990299702,480.11483969911933,None,None,None,,,,,,,12,24,female,12,2022_May_06_1145,Partial repeat,2021.2.3,59.89996732491174,
6,6,0,1,3,3,2,1,1,0,1,0,0,1,0,0,10,10,10,,,,,,,,,,,,,,,,,,,,,,,,,,,,,,12,24,female,12,2022_May_06_1145,Partial repeat,2021.2.3,59.89996732491174,
6,6,0,1,3,3,1,2,1,1,1,0,1,1,0,0,11,11,11,0,0,0,0,,,,,,,481.11828660033643,None,482.03993229940534,None,483.0539416000247,None,s,1,0.6870654001832008,483.0539416000247,None,None,None,,,,,,,12,24,female,12,2022_May_06_1145,Partial repeat,2021.2.3,59.89996732491174,
6,6,0,1,3,3,1,2,1,1,1,0,1,1,0,0,11,11,11,1,0,1,0,,,,,,,,,483.7594090998173,None,484.6235428992659,None,s,1,0.5334975011646748,484.6235428992659,None,None,None,,,,,,,12,24,female,12,2022_May_06_1145,Partial repeat,2021.2.3,59.89996732491174,
6,6,0,1,3,3,1,2,1,1,1,0,1,1,0,0,11,11,11,,,,,,,,,,,,,,,,,,,,,,,,,,,,,,12,24,female,12,2022_May_06_1145,Partial repeat,2021.2.3,59.89996732491174,
6,6,0,1,3,2,2,2,0,0,0,1,1,1,0,0,12,12,12,0,0,0,0,,,,,,,485.18342069908977,None,485.83062949962914,None,486.7611659988761,None,l,1,0.7317996993660927,486.7611659988761,None,None,None,,,,,,,12,24,female,12,2022_May_06_1145,Partial repeat,2021.2.3,59.89996732491174,
6,6,0,1,3,2,2,2,0,0,0,1,1,1,0,0,12,12,12,1,0,1,0,,,,,,,,,487.50239050015807,None,488.29730699956417,None,l,1,0.5637092012912035,488.29730699956417,None,None,None,,,,,,,12,24,female,12,2022_May_06_1145,Partial repeat,2021.2.3,59.89996732491174,
6,6,0,1,3,2,2,2,0,0,0,1,1,1,0,0,12,12,12,,,,,,,,,,,,,,,,,,,,,,,,,,,,,,12,24,female,12,2022_May_06_1145,Partial repeat,2021.2.3,59.89996732491174,
6,6,0,1,3,3,2,2,0,0,1,1,1,1,0,0,13,13,13,0,0,0,0,,,,,,,488.88311619870365,None,490.0053813997656,None,490.93609610013664,None,l,1,0.9889075998216867,490.93609610013664,None,None,None,,,,,,,12,24,female,12,2022_May_06_1145,Partial repeat,2021.2.3,59.89996732491174,
6,6,0,1,3,3,2,2,0,0,1,1,1,1,0,0,13,13,13,1,0,1,0,,,,,,,,,491.951245399192,None,492.8062130995095,None,l,1,0.7828530985862017,492.8062130995095,None,None,None,,,,,,,12,24,female,12,2022_May_06_1145,Partial repeat,2021.2.3,59.89996732491174,
6,6,0,1,3,3,2,2,0,0,1,1,1,1,0,0,13,13,13,,,,,,,,,,,,,,,,,,,,,,,,,,,,,,12,24,female,12,2022_May_06_1145,Partial repeat,2021.2.3,59.89996732491174,
6,6,0,1,2,3,2,2,0,1,0,1,0,1,0,0,14,14,14,0,0,0,0,,,,,,,493.619501799345,None,494.8982255998999,None,495.8132140003145,None,l,1,0.9357874002307653,495.8132140003145,None,None,None,,,,,,,12,24,female,12,2022_May_06_1145,Partial repeat,2021.2.3,59.89996732491174,
6,6,0,1,2,3,2,2,0,1,0,1,0,1,0,0,14,14,14,1,0,1,0,,,,,,,,,496.77440880052745,None,497.532144298777,None,s,1,0.6969636008143425,497.532144298777,None,None,None,,,,,,,12,24,female,12,2022_May_06_1145,Partial repeat,2021.2.3,59.89996732491174,
6,6,0,1,2,3,2,2,0,1,0,1,0,1,0,0,14,14,14,,,,,,,,,,,,,,,,,,,,,,,,,,,,,,12,24,female,12,2022_May_06_1145,Partial repeat,2021.2.3,59.89996732491174,
6,6,0,1,3,2,2,1,0,1,0,0,0,1,0,0,15,15,15,0,0,0,0,,,,,,,498.242449099198,None,499.4905465990305,None,500.40457830019295,None,l,1,1.4404231011867523,500.40457830019295,None,None,None,,,,,,,12,24,female,12,2022_May_06_1145,Partial repeat,2021.2.3,59.89996732491174,
6,6,0,1,3,2,2,1,0,1,0,0,0,1,0,0,15,15,15,1,0,1,0,,,,,,,,,501.8621129989624,None,502.8256481997669,None,s,1,0.8033846002072096,502.8256481997669,None,None,None,,,,,,,12,24,female,12,2022_May_06_1145,Partial repeat,2021.2.3,59.89996732491174,
6,6,0,1,3,2,2,1,0,1,0,0,0,1,0,0,15,15,15,,,,,,,,,,,,,,,,,,,,,,,,,,,,,,12,24,female,12,2022_May_06_1145,Partial repeat,2021.2.3,59.89996732491174,
6,6,0,1,2,3,1,1,0,0,0,1,1,1,0,0,16,16,16,0,0,0,0,,,,,,,503.6568241994828,None,505.03469059988856,None,505.84810989908874,None,l,1,0.7888634987175465,505.84810989908874,None,None,None,,,,,,,12,24,female,12,2022_May_06_1145,Partial repeat,2021.2.3,59.89996732491174,
6,6,0,1,2,3,1,1,0,0,0,1,1,1,0,0,16,16,16,1,0,1,0,,,,,,,,,506.6548017989844,None,507.4688188005239,None,l,1,0.7441812008619308,507.4688188005239,None,None,None,,,,,,,12,24,female,12,2022_May_06_1145,Partial repeat,2021.2.3,59.89996732491174,
6,6,0,1,2,3,1,1,0,0,0,1,1,1,0,0,16,16,16,,,,,,,,,,,,,,,,,,,,,,,,,,,,,,12,24,female,12,2022_May_06_1145,Partial repeat,2021.2.3,59.89996732491174,
6,6,0,1,3,3,2,2,1,0,1,1,0,1,0,0,17,17,17,0,0,0,0,,,,,,,508.2356954999268,None,510.0776859987527,None,510.9581834990531,None,s,1,0.7828454002737999,510.9581834990531,None,None,None,,,,,,,12,24,female,12,2022_May_06_1145,Partial repeat,2021.2.3,59.89996732491174,
6,6,0,1,3,3,2,2,1,0,1,1,0,1,0,0,17,17,17,1,0,1,0,,,,,,,,,511.7505056988448,None,512.7454890999943,None,l,1,1.051545899361372,512.7454890999943,None,None,None,,,,,,,12,24,female,12,2022_May_06_1145,Partial repeat,2021.2.3,59.89996732491174,
6,6,0,1,3,3,2,2,1,0,1,1,0,1,0,0,17,17,17,,,,,,,,,,,,,,,,,,,,,,,,,,,,,,12,24,female,12,2022_May_06_1145,Partial repeat,2021.2.3,59.89996732491174,
6,6,0,1,3,3,1,2,0,1,1,0,0,1,0,0,18,18,18,0,0,0,0,,,,,,,513.808011200279,None,514.9371654987335,None,515.7676071003079,None,l,1,0.9093883000314236,515.7676071003079,None,None,None,,,,,,,12,24,female,12,2022_May_06_1145,Partial repeat,2021.2.3,59.89996732491174,
6,6,0,1,3,3,1,2,0,1,1,0,0,1,0,0,18,18,18,1,0,1,0,,,,,,,,,516.703938499093,None,517.672305399552,None,s,1,1.236693400889635,517.672305399552,None,None,None,,,,,,,12,24,female,12,2022_May_06_1145,Partial repeat,2021.2.3,59.89996732491174,
6,6,0,1,3,3,1,2,0,1,1,0,0,1,0,0,18,18,18,,,,,,,,,,,,,,,,,,,,,,,,,,,,,,12,24,female,12,2022_May_06_1145,Partial repeat,2021.2.3,59.89996732491174,
6,6,0,1,2,2,1,1,1,1,1,1,1,1,0,0,19,19,19,0,0,0,0,,,,,,,518.9290771987289,None,520.2308703996241,None,521.1446102987975,None,s,1,1.1964593008160591,521.1446102987975,None,None,None,,,,,,,12,24,female,12,2022_May_06_1145,Partial repeat,2021.2.3,59.89996732491174,
6,6,0,1,2,2,1,1,1,1,1,1,1,1,0,0,19,19,19,1,0,1,0,,,,,,,,,522.3517795987427,None,523.2987222000957,None,s,1,0.842366898432374,523.2987222000957,None,None,None,,,,,,,12,24,female,12,2022_May_06_1145,Partial repeat,2021.2.3,59.89996732491174,
6,6,0,1,2,2,1,1,1,1,1,1,1,1,0,0,19,19,19,,,,,,,,,,,,,,,,,,,,,,,,,,,,,,12,24,female,12,2022_May_06_1145,Partial repeat,2021.2.3,59.89996732491174,
6,6,0,1,2,2,2,1,0,1,1,0,0,1,0,0,20,20,20,0,0,0,0,,,,,,,524.1516126003116,None,525.1237010993063,None,525.8539907988161,None,l,1,0.6789887994527817,525.8539907988161,None,None,None,,,,,,,12,24,female,12,2022_May_06_1145,Partial repeat,2021.2.3,59.89996732491174,
6,6,0,1,2,2,2,1,0,1,1,0,0,1,0,0,20,20,20,1,0,1,0,,,,,,,,,526.5590837989002,None,527.3569677993655,None,s,1,1.2480513993650675,527.3569677993655,None,None,None,,,,,,,12,24,female,12,2022_May_06_1145,Partial repeat,2021.2.3,59.89996732491174,
6,6,0,1,2,2,2,1,0,1,1,0,0,1,0,0,20,20,20,,,,,,,,,,,,,,,,,,,,,,,,,,,,,,12,24,female,12,2022_May_06_1145,Partial repeat,2021.2.3,59.89996732491174,
6,6,0,1,2,2,2,2,1,0,1,1,0,1,0,0,21,21,21,0,0,0,0,,,,,,,528.6160132996738,None,530.0165689997375,None,530.9302949998528,None,s,1,0.9307377003133297,530.9302949998528,None,None,None,,,,,,,12,24,female,12,2022_May_06_1145,Partial repeat,2021.2.3,59.89996732491174,
6,6,0,1,2,2,2,2,1,0,1,1,0,1,0,0,21,21,21,1,0,1,0,,,,,,,,,531.8883196003735,None,532.6835769992322,None,l,1,0.7054359000176191,532.6835769992322,None,None,None,,,,,,,12,24,female,12,2022_May_06_1145,Partial repeat,2021.2.3,59.89996732491174,
6,6,0,1,2,2,2,2,1,0,1,1,0,1,0,0,21,21,21,,,,,,,,,,,,,,,,,,,,,,,,,,,,,,12,24,female,12,2022_May_06_1145,Partial repeat,2021.2.3,59.89996732491174,
6,6,0,1,2,2,1,2,0,1,1,0,0,1,0,0,22,22,22,0,0,0,0,,,,,,,533.4076003991067,None,535.5272840987891,None,536.3741244003177,None,l,1,0.702869700267911,536.3741244003177,None,None,None,,,,,,,12,24,female,12,2022_May_06_1145,Partial repeat,2021.2.3,59.89996732491174,
6,6,0,1,2,2,1,2,0,1,1,0,0,1,0,0,22,22,22,1,0,1,0,,,,,,,,,537.0938258003443,None,537.8772518988699,None,s,1,0.7838073000311852,537.8772518988699,None,None,None,,,,,,,12,24,female,12,2022_May_06_1145,Partial repeat,2021.2.3,59.89996732491174,
6,6,0,1,2,2,1,2,0,1,1,0,0,1,0,0,22,22,22,,,,,,,,,,,,,,,,,,,,,,,,,,,,,,12,24,female,12,2022_May_06_1145,Partial repeat,2021.2.3,59.89996732491174,
6,6,0,1,3,3,1,1,1,0,1,1,0,1,0,0,23,23,23,0,0,0,0,,,,,,,538.6900864001364,None,541.1715424992144,None,542.1019327994436,None,s,1,1.0231007002294064,542.1019327994436,None,None,None,,,,,,,12,24,female,12,2022_May_06_1145,Partial repeat,2021.2.3,59.89996732491174,
6,6,0,1,3,3,1,1,1,0,1,1,0,1,0,0,23,23,23,1,0,1,0,,,,,,,,,543.1335627995431,None,543.9221537988633,None,l,1,0.89881999976933,543.9221537988633,None,None,None,,,,,,,12,24,female,12,2022_May_06_1145,Partial repeat,2021.2.3,59.89996732491174,
6,6,0,1,3,3,1,1,1,0,1,1,0,1,0,0,23,23,23,,,,,,,,,,,,,,,,,,,,,,,,,,,,,,12,24,female,12,2022_May_06_1145,Partial repeat,2021.2.3,59.89996732491174,
6,6,0,1,2,2,2,2,1,1,1,1,1,1,0,0,24,24,24,0,0,0,0,,,,,,,544.8418847993016,None,546.0643731001765,None,546.8444940987974,None,s,1,0.6485236994922161,546.8444940987974,None,None,None,,,,,,,12,24,female,12,2022_May_06_1145,Partial repeat,2021.2.3,59.89996732491174,
6,6,0,1,2,2,2,2,1,1,1,1,1,1,0,0,24,24,24,1,0,1,0,,,,,,,,,547.5018319990486,None,548.3310017995536,None,s,1,0.4900219012051821,548.3310017995536,None,None,None,,,,,,,12,24,female,12,2022_May_06_1145,Partial repeat,2021.2.3,59.89996732491174,
6,6,0,1,2,2,2,2,1,1,1,1,1,1,0,0,24,24,24,,,,,,,,,,,,,,,,,,,,,,,,,,,,,,12,24,female,12,2022_May_06_1145,Partial repeat,2021.2.3,59.89996732491174,
6,6,0,1,3,3,2,1,0,1,1,0,0,1,0,0,25,25,25,0,0,0,0,,,,,,,548.8509582001716,None,549.3876092992723,None,550.4014407992363,None,l,1,0.7395350988954306,550.4014407992363,None,None,None,,,,,,,12,24,female,12,2022_May_06_1145,Partial repeat,2021.2.3,59.89996732491174,
6,6,0,1,3,3,2,1,0,1,1,0,0,1,0,0,25,25,25,1,0,1,0,,,,,,,,,551.1658717989922,None,552.0884070005268,None,s,1,0.5326323993504047,552.0884070005268,None,None,None,,,,,,,12,24,female,12,2022_May_06_1145,Partial repeat,2021.2.3,59.89996732491174,
6,6,0,1,3,3,2,1,0,1,1,0,0,1,0,0,25,25,25,,,,,,,,,,,,,,,,,,,,,,,,,,,,,,12,24,female,12,2022_May_06_1145,Partial repeat,2021.2.3,59.89996732491174,
6,6,0,1,2,3,2,1,0,0,0,0,1,1,0,0,26,26,26,0,0,0,0,,,,,,,552.6503919996321,None,553.295154299587,None,554.2424860987812,None,l,1,0.7064609006047249,554.2424860987812,None,None,None,,,,,,,12,24,female,12,2022_May_06_1145,Partial repeat,2021.2.3,59.89996732491174,
6,6,0,1,2,3,2,1,0,0,0,0,1,1,0,0,26,26,26,1,0,1,0,,,,,,,,,554.9640768989921,None,555.8620062991977,None,l,1,0.6149659994989634,555.8620062991977,None,None,None,,,,,,,12,24,female,12,2022_May_06_1145,Partial repeat,2021.2.3,59.89996732491174,
6,6,0,1,2,3,2,1,0,0,0,0,1,1,0,0,26,26,26,,,,,,,,,,,,,,,,,,,,,,,,,,,,,,12,24,female,12,2022_May_06_1145,Partial repeat,2021.2.3,59.89996732491174,
6,6,0,1,3,2,2,1,1,1,0,0,1,1,0,0,27,27,27,0,0,0,0,,,,,,,556.5069687999785,None,559.4738413989544,None,560.4880589004606,None,s,1,1.6369525995105505,560.4880589004606,None,None,None,,,,,,,12,24,female,12,2022_May_06_1145,Partial repeat,2021.2.3,59.89996732491174,
6,6,0,1,3,2,2,1,1,1,0,0,1,1,0,0,27,27,27,1,0,1,0,,,,,,,,,562.1367815993726,None,563.0926761999726,None,s,1,1.8804060015827417,563.0926761999726,None,None,None,,,,,,,12,24,female,12,2022_May_06_1145,Partial repeat,2021.2.3,59.89996732491174,
6,6,0,1,3,2,2,1,1,1,0,0,1,1,0,0,27,27,27,,,,,,,,,,,,,,,,,,,,,,,,,,,,,,12,24,female,12,2022_May_06_1145,Partial repeat,2021.2.3,59.89996732491174,
6,6,0,1,3,3,1,2,1,0,1,0,0,1,0,0,28,28,28,0,0,0,0,,,,,,,565.0019813999534,None,567.7232397999614,None,568.6870351005346,None,s,1,1.0939331017434597,568.6870351005346,None,None,None,,,,,,,12,24,female,12,2022_May_06_1145,Partial repeat,2021.2.3,59.89996732491174,
6,6,0,1,3,3,1,2,1,0,1,0,0,1,0,0,28,28,28,1,0,1,0,,,,,,,,,569.8021916989237,None,570.6585328001529,None,l,1,0.7144773006439209,570.6585328001529,None,None,None,,,,,,,12,24,female,12,2022_May_06_1145,Partial repeat,2021.2.3,59.89996732491174,
6,6,0,1,3,3,1,2,1,0,1,0,0,1,0,0,28,28,28,,,,,,,,,,,,,,,,,,,,,,,,,,,,,,12,24,female,12,2022_May_06_1145,Partial repeat,2021.2.3,59.89996732491174,
6,6,0,1,3,2,1,2,1,1,0,0,1,1,0,0,29,29,29,0,0,0,0,,,,,,,571.3881969992071,None,572.3321612998843,None,573.2802147995681,None,s,1,0.7407594993710518,573.2802147995681,None,None,None,,,,,,,12,24,female,12,2022_May_06_1145,Partial repeat,2021.2.3,59.89996732491174,
6,6,0,1,3,2,1,2,1,1,0,0,1,1,0,0,29,29,29,1,0,1,0,,,,,,,,,574.0453989002854,None,574.8999527003616,None,s,1,0.6410226989537477,574.8999527003616,None,None,None,,,,,,,12,24,female,12,2022_May_06_1145,Partial repeat,2021.2.3,59.89996732491174,
6,6,0,1,3,2,1,2,1,1,0,0,1,1,0,0,29,29,29,,,,,,,,,,,,,,,,,,,,,,,,,,,,,,12,24,female,12,2022_May_06_1145,Partial repeat,2021.2.3,59.89996732491174,
6,6,0,1,2,3,1,2,0,1,0,0,0,1,0,0,30,30,30,0,0,0,0,,,,,,,575.5621796995401,None,576.6740389000624,None,577.487681299448,None,l,1,0.6612785998731852,577.487681299448,None,None,None,,,,,,,12,24,female,12,2022_May_06_1145,Partial repeat,2021.2.3,59.89996732491174,
6,6,0,1,2,3,1,2,0,1,0,0,0,1,0,0,30,30,30,1,0,1,0,,,,,,,,,578.1663031000644,None,578.9737900998443,None,s,1,0.6791667006909847,578.9737900998443,None,None,None,,,,,,,12,24,female,12,2022_May_06_1145,Partial repeat,2021.2.3,59.89996732491174,
6,6,0,1,2,3,1,2,0,1,0,0,0,1,0,0,30,30,30,,,,,,,,,,,,,,,,,,,,,,,,,,,,,,12,24,female,12,2022_May_06_1145,Partial repeat,2021.2.3,59.89996732491174,
6,6,0,1,2,3,1,1,0,1,0,1,0,1,0,0,31,31,31,0,0,0,0,,,,,,,579.6777651999146,None,580.6650868002325,None,581.5789285991341,None,l,1,0.6340413000434637,581.5789285991341,None,None,None,,,,,,,12,24,female,12,2022_May_06_1145,Partial repeat,2021.2.3,59.89996732491174,
6,6,0,1,2,3,1,1,0,1,0,1,0,1,0,0,31,31,31,1,0,1,0,,,,,,,,,582.222521899268,None,583.1987232994288,None,s,1,0.6223055999726057,583.1987232994288,None,None,None,,,,,,,12,24,female,12,2022_May_06_1145,Partial repeat,2021.2.3,59.89996732491174,
6,6,0,1,2,3,1,1,0,1,0,1,0,1,0,0,31,31,31,,,,,,,,,,,,,,,,,,,,,,,,,,,,,,12,24,female,12,2022_May_06_1145,Partial repeat,2021.2.3,59.89996732491174,
6,6,0,1,3,3,2,2,0,1,1,1,0,1,0,0,32,32,32,0,0,0,0,,,,,,,583.8423388004303,None,586.0923426989466,None,587.0228532999754,None,l,1,0.7021006010472775,587.0228532999754,None,None,None,,,,,,,12,24,female,12,2022_May_06_1145,Partial repeat,2021.2.3,59.89996732491174,
6,6,0,1,3,3,2,2,0,1,1,1,0,1,0,0,32,32,32,1,0,1,0,,,,,,,,,587.7495932988822,None,588.6591397002339,None,s,1,1.0498743001371622,588.6591397002339,None,None,None,,,,,,,12,24,female,12,2022_May_06_1145,Partial repeat,2021.2.3,59.89996732491174,
6,6,0,1,3,3,2,2,0,1,1,1,0,1,0,0,32,32,32,,,,,,,,,,,,,,,,,,,,,,,,,,,,,,12,24,female,12,2022_May_06_1145,Partial repeat,2021.2.3,59.89996732491174,
6,6,0,1,3,2,2,2,0,1,0,1,0,1,0,0,33,33,33,0,0,0,0,,,,,,,589.7227689996362,None,590.6846019998193,None,591.6651118993759,None,l,1,0.65984289906919,591.6651118993759,None,None,None,,,,,,,12,24,female,12,2022_May_06_1145,Partial repeat,2021.2.3,59.89996732491174,
6,6,0,1,3,2,2,2,0,1,0,1,0,1,0,0,33,33,33,1,0,1,0,,,,,,,,,592.3465980999172,None,593.1681666001678,None,s,1,0.5328333992511034,593.1681666001678,None,None,None,,,,,,,12,24,female,12,2022_May_06_1145,Partial repeat,2021.2.3,59.89996732491174,
6,6,0,1,3,2,2,2,0,1,0,1,0,1,0,0,33,33,33,,,,,,,,,,,,,,,,,,,,,,,,,,,,,,12,24,female,12,2022_May_06_1145,Partial repeat,2021.2.3,59.89996732491174,
6,6,0,1,2,2,1,2,0,0,1,0,1,1,0,0,34,34,34,0,0,0,0,,,,,,,593.7300458997488,None,594.892736800015,None,595.6394941993058,None,l,1,0.653464300557971,595.6394941993058,None,None,None,,,,,,,12,24,female,12,2022_May_06_1145,Partial repeat,2021.2.3,59.89996732491174,
6,6,0,1,2,2,1,2,0,0,1,0,1,1,0,0,34,34,34,1,0,1,0,,,,,,,,,596.313423300162,None,597.2760735992342,None,l,1,0.5529280994087458,597.2760735992342,None,None,None,,,,,,,12,24,female,12,2022_May_06_1145,Partial repeat,2021.2.3,59.89996732491174,
6,6,0,1,2,2,1,2,0,0,1,0,1,1,0,0,34,34,34,,,,,,,,,,,,,,,,,,,,,,,,,,,,,,12,24,female,12,2022_May_06_1145,Partial repeat,2021.2.3,59.89996732491174,
6,6,0,1,2,2,1,2,1,1,1,0,1,1,0,0,35,35,35,0,0,0,0,,,,,,,597.8586577996612,None,599.2178514990956,None,600.0490834992379,None,s,1,0.5318633988499641,600.0490834992379,None,None,None,,,,,,,12,24,female,12,2022_May_06_1145,Partial repeat,2021.2.3,59.89996732491174,
6,6,0,1,2,2,1,2,1,1,1,0,1,1,0,0,35,35,35,1,0,1,0,,,,,,,,,600.6054234988987,None,601.3341486994177,None,s,1,0.6147744990885258,601.3341486994177,None,None,None,,,,,,,12,24,female,12,2022_May_06_1145,Partial repeat,2021.2.3,59.89996732491174,
6,6,0,1,2,2,1,2,1,1,1,0,1,1,0,0,35,35,35,,,,,,,,,,,,,,,,,,,,,,,,,,,,,,12,24,female,12,2022_May_06_1145,Partial repeat,2021.2.3,59.89996732491174,
6,6,0,1,3,3,2,1,0,0,1,0,1,1,0,0,36,36,36,0,0,0,0,,,,,,,601.9788701999933,None,603.0586331989616,None,603.8055926989764,None,l,1,0.783355699852109,603.8055926989764,None,None,None,,,,,,,12,24,female,12,2022_May_06_1145,Partial repeat,2021.2.3,59.89996732491174,
6,6,0,1,3,3,2,1,0,0,1,0,1,1,0,0,36,36,36,1,0,1,0,,,,,,,,,604.6115576997399,None,605.3417194988579,None,l,1,0.7512254994362593,605.3417194988579,None,None,None,,,,,,,12,24,female,12,2022_May_06_1145,Partial repeat,2021.2.3,59.89996732491174,
6,6,0,1,3,3,2,1,0,0,1,0,1,1,0,0,36,36,36,,,,,,,,,,,,,,,,,,,,,,,,,,,,,,12,24,female,12,2022_May_06_1145,Partial repeat,2021.2.3,59.89996732491174,
6,6,0,1,2,3,2,2,0,0,0,1,1,1,0,0,37,37,37,0,0,0,0,,,,,,,606.1138257998973,None,607.1833452004939,None,608.0972987003624,None,l,1,1.1556429993361235,608.0972987003624,None,None,None,,,,,,,12,24,female,12,2022_May_06_1145,Partial repeat,2021.2.3,59.89996732491174,
6,6,0,1,2,3,2,2,0,0,0,1,1,1,0,0,37,37,37,1,0,1,0,,,,,,,,,609.277853898704,None,610.2684244997799,None,l,1,0.6325548999011517,610.2684244997799,None,None,None,,,,,,,12,24,female,12,2022_May_06_1145,Partial repeat,2021.2.3,59.89996732491174,
6,6,0,1,2,3,2,2,0,0,0,1,1,1,0,0,37,37,37,,,,,,,,,,,,,,,,,,,,,,,,,,,,,,12,24,female,12,2022_May_06_1145,Partial repeat,2021.2.3,59.89996732491174,
6,6,0,1,2,3,1,2,1,0,0,0,0,1,0,0,38,38,38,0,0,0,0,,,,,,,610.9168586991727,None,612.7942398991436,None,613.5745978988707,None,s,1,0.7584359999746084,613.5745978988707,None,None,None,,,,,,,12,24,female,12,2022_May_06_1145,Partial repeat,2021.2.3,59.89996732491174,
6,6,0,1,2,3,1,2,1,0,0,0,0,1,0,0,38,38,38,1,0,1,0,,,,,,,,,614.3411407992244,None,615.2287071999162,None,l,1,1.0082217007875443,615.2287071999162,None,None,None,,,,,,,12,24,female,12,2022_May_06_1145,Partial repeat,2021.2.3,59.89996732491174,
6,6,0,1,2,3,1,2,1,0,0,0,0,1,0,0,38,38,38,,,,,,,,,,,,,,,,,,,,,,,,,,,,,,12,24,female,12,2022_May_06_1145,Partial repeat,2021.2.3,59.89996732491174,
6,6,0,1,2,2,2,1,1,0,1,0,0,1,0,0,39,39,39,0,0,0,0,,,,,,,616.2588509991765,None,618.7224908992648,None,619.4528074990958,None,s,1,0.9521201010793447,619.4528074990958,None,None,None,,,,,,,12,24,female,12,2022_May_06_1145,Partial repeat,2021.2.3,59.89996732491174,
6,6,0,1,2,2,2,1,1,0,1,0,0,1,0,0,39,39,39,1,0,1,0,,,,,,,,,620.4299787990749,None,621.1558708995581,None,l,1,0.6010549999773502,621.1558708995581,None,None,None,,,,,,,12,24,female,12,2022_May_06_1145,Partial repeat,2021.2.3,59.89996732491174,
6,6,0,1,2,2,2,1,1,0,1,0,0,1,0,0,39,39,39,,,,,,,,,,,,,,,,,,,,,,,,,,,,,,12,24,female,12,2022_May_06_1145,Partial repeat,2021.2.3,59.89996732491174,
6,6,0,1,2,2,2,1,1,1,1,0,1,1,0,0,40,40,40,0,0,0,0,,,,,,,621.780613899231,None,622.3962970990688,None,623.1596351992339,None,s,1,0.6612980011850595,623.1596351992339,None,None,None,,,,,,,12,24,female,12,2022_May_06_1145,Partial repeat,2021.2.3,59.89996732491174,
6,6,0,1,2,2,2,1,1,1,1,0,1,1,0,0,40,40,40,1,0,1,0,,,,,,,,,623.8385531995445,None,624.5957009997219,None,s,1,0.6013139002025127,624.5957009997219,None,None,None,,,,,,,12,24,female,12,2022_May_06_1145,Partial repeat,2021.2.3,59.89996732491174,
6,6,0,1,2,2,2,1,1,1,1,0,1,1,0,0,40,40,40,,,,,,,,,,,,,,,,,,,,,,,,,,,,,,12,24,female,12,2022_May_06_1145,Partial repeat,2021.2.3,59.89996732491174,
6,6,0,1,2,3,1,2,0,0,0,0,1,1,0,0,41,41,41,0,0,0,0,,,,,,,625.2090553995222,None,625.9031114000827,None,626.8167550005019,None,l,1,0.6361827999353409,626.8167550005019,None,None,None,,,,,,,12,24,female,12,2022_May_06_1145,Partial repeat,2021.2.3,59.89996732491174,
6,6,0,1,2,3,1,2,0,0,0,0,1,1,0,0,41,41,41,1,0,1,0,,,,,,,,,627.4765694998205,None,628.4702938999981,None,l,1,0.5266356989741325,628.4702938999981,None,None,None,,,,,,,12,24,female,12,2022_May_06_1145,Partial repeat,2021.2.3,59.89996732491174,
6,6,0,1,2,3,1,2,0,0,0,0,1,1,0,0,41,41,41,,,,,,,,,,,,,,,,,,,,,,,,,,,,,,12,24,female,12,2022_May_06_1145,Partial repeat,2021.2.3,59.89996732491174,
6,6,0,1,2,2,1,1,0,1,1,1,0,1,0,0,42,42,42,0,0,0,0,,,,,,,629.0141596999019,None,631.5307197999209,None,632.4444076996297,None,l,1,0.6085732989013195,632.4444076996297,None,None,None,,,,,,,12,24,female,12,2022_May_06_1145,Partial repeat,2021.2.3,59.89996732491174,
6,6,0,1,2,2,1,1,0,1,1,1,0,1,0,0,42,42,42,1,0,1,0,,,,,,,,,633.0610447004437,None,633.8974537998438,None,s,1,0.6594801992177963,633.8974537998438,None,None,None,,,,,,,12,24,female,12,2022_May_06_1145,Partial repeat,2021.2.3,59.89996732491174,
6,6,0,1,2,2,1,1,0,1,1,1,0,1,0,0,42,42,42,,,,,,,,,,,,,,,,,,,,,,,,,,,,,,12,24,female,12,2022_May_06_1145,Partial repeat,2021.2.3,59.89996732491174,
6,6,0,1,2,3,2,2,1,0,0,1,0,1,0,0,43,43,43,0,0,0,0,,,,,,,634.5846356004477,None,635.4216271005571,None,636.1518254987895,None,s,1,1.3410710003226995,636.1518254987895,None,None,None,,,,,,,12,24,female,12,2022_May_06_1145,Partial repeat,2021.2.3,59.89996732491174,
6,6,0,1,2,3,2,2,1,0,0,1,0,1,0,0,43,43,43,1,0,1,0,,,,,,,,,637.50869840011,None,638.3896034993231,None,l,1,0.679339000955224,638.3896034993231,None,None,None,,,,,,,12,24,female,12,2022_May_06_1145,Partial repeat,2021.2.3,59.89996732491174,
6,6,0,1,2,3,2,2,1,0,0,1,0,1,0,0,43,43,43,,,,,,,,,,,,,,,,,,,,,,,,,,,,,,12,24,female,12,2022_May_06_1145,Partial repeat,2021.2.3,59.89996732491174,
6,6,0,1,3,2,1,2,0,0,0,0,1,1,0,0,44,44,44,0,0,0,0,,,,,,,639.0919716991484,None,640.9323379993439,None,641.8126407992095,None,l,1,0.6402560994029045,641.8126407992095,None,None,None,,,,,,,12,24,female,12,2022_May_06_1145,Partial repeat,2021.2.3,59.89996732491174,
6,6,0,1,3,2,1,2,0,0,0,0,1,1,0,0,44,44,44,1,0,1,0,,,,,,,,,642.4698357004672,None,643.2154112998396,None,l,1,0.6538244988769293,643.2154112998396,None,None,None,,,,,,,12,24,female,12,2022_May_06_1145,Partial repeat,2021.2.3,59.89996732491174,
6,6,0,1,3,2,1,2,0,0,0,0,1,1,0,0,44,44,44,,,,,,,,,,,,,,,,,,,,,,,,,,,,,,12,24,female,12,2022_May_06_1145,Partial repeat,2021.2.3,59.89996732491174,
6,6,0,1,2,2,1,1,1,0,1,1,0,1,0,0,45,45,45,0,0,0,0,,,,,,,643.8809190988541,None,646.2760856002569,None,647.1897293999791,None,s,1,0.7111869007349014,647.1897293999791,None,None,None,,,,,,,12,24,female,12,2022_May_06_1145,Partial repeat,2021.2.3,59.89996732491174,
6,6,0,1,2,2,1,1,1,0,1,1,0,1,0,0,45,45,45,1,0,1,0,,,,,,,,,647.9195309001952,None,648.8097581993788,None,l,1,0.6431745011359453,648.8097581993788,None,None,None,,,,,,,12,24,female,12,2022_May_06_1145,Partial repeat,2021.2.3,59.89996732491174,
6,6,0,1,2,2,1,1,1,0,1,1,0,1,0,0,45,45,45,,,,,,,,,,,,,,,,,,,,,,,,,,,,,,12,24,female,12,2022_May_06_1145,Partial repeat,2021.2.3,59.89996732491174,
6,6,0,1,3,2,1,2,1,0,0,0,0,1,0,0,46,46,46,0,0,0,0,,,,,,,649.4748068992049,None,650.9852447994053,None,651.9158056993037,None,s,1,0.9611280988901854,651.9158056993037,None,None,None,,,,,,,12,24,female,12,2022_May_06_1145,Partial repeat,2021.2.3,59.89996732491174,
6,6,0,1,3,2,1,2,1,0,0,0,0,1,0,0,46,46,46,1,0,1,0,,,,,,,,,652.8898834995925,None,653.81924809888,None,l,1,1.0177229009568691,653.81924809888,None,None,None,,,,,,,12,24,female,12,2022_May_06_1145,Partial repeat,2021.2.3,59.89996732491174,
6,6,0,1,3,2,1,2,1,0,0,0,0,1,0,0,46,46,46,,,,,,,,,,,,,,,,,,,,,,,,,,,,,,12,24,female,12,2022_May_06_1145,Partial repeat,2021.2.3,59.89996732491174,
6,6,0,1,3,3,2,2,1,1,1,1,1,1,0,0,47,47,47,0,0,0,0,,,,,,,654.867674998939,None,657.7484090998769,None,658.5956829991192,None,s,1,1.2732276991009712,658.5956829991192,None,None,None,,,,,,,12,24,female,12,2022_May_06_1145,Partial repeat,2021.2.3,59.89996732491174,
6,6,0,1,3,3,2,2,1,1,1,1,1,1,0,0,47,47,47,1,0,1,0,,,,,,,,,659.8941449001431,None,660.6827450990677,None,s,1,0.5303018987178802,660.6827450990677,None,None,None,,,,,,,12,24,female,12,2022_May_06_1145,Partial repeat,2021.2.3,59.89996732491174,
6,6,0,1,3,3,2,2,1,1,1,1,1,1,0,0,47,47,47,,,,,,,,,,,,,,,,,,,,,,,,,,,,,,12,24,female,12,2022_May_06_1145,Partial repeat,2021.2.3,59.89996732491174,
6,6,0,1,2,2,2,2,0,0,1,1,1,1,0,0,48,48,48,0,0,0,0,,,,,,,661.2240701988339,None,662.5243666991591,None,663.5048315003514,None,l,1,1.140089999884367,663.5048315003514,None,None,None,,,,,,,12,24,female,12,2022_May_06_1145,Partial repeat,2021.2.3,59.89996732491174,
6,6,0,1,2,2,2,2,0,0,1,1,1,1,0,0,48,48,48,1,0,1,0,,,,,,,,,664.6639967001975,None,665.4591688998044,None,l,1,0.6738939993083477,665.4591688998044,None,None,None,,,,,,,12,24,female,12,2022_May_06_1145,Partial repeat,2021.2.3,59.89996732491174,
6,6,0,1,2,2,2,2,0,0,1,1,1,1,0,0,48,48,48,,,,,,,,,,,,,,,,,,,,,,,,,,,,,,12,24,female,12,2022_May_06_1145,Partial repeat,2021.2.3,59.89996732491174,
6,6,0,1,3,2,1,1,0,1,0,1,0,1,0,0,49,49,49,0,0,0,0,,,,,,,666.1462737005204,None,668.2521465998143,None,669.0325300004333,None,l,1,0.716372499242425,669.0325300004333,None,None,None,,,,,,,12,24,female,12,2022_May_06_1145,Partial repeat,2021.2.3,59.89996732491174,
6,6,0,1,3,2,1,1,0,1,0,1,0,1,0,0,49,49,49,1,0,1,0,,,,,,,,,669.77748259902,None,670.5350761003792,None,s,1,0.7819680012762547,670.5350761003792,None,None,None,,,,,,,12,24,female,12,2022_May_06_1145,Partial repeat,2021.2.3,59.89996732491174,
6,6,0,1,3,2,1,1,0,1,0,1,0,1,0,0,49,49,49,,,,,,,,,,,,,,,,,,,,,,,,,,,,,,12,24,female,12,2022_May_06_1145,Partial repeat,2021.2.3,59.89996732491174,
6,6,0,1,3,2,1,1,1,1,0,1,1,1,0,0,50,50,50,0,0,0,0,,,,,,,671.3293671999127,None,677.0526061002165,None,677.866431299597,None,s,1,1.034477001056075,677.866431299597,None,None,None,,,,,,,12,24,female,12,2022_May_06_1145,Partial repeat,2021.2.3,59.89996732491174,
6,6,0,1,3,2,1,1,1,1,0,1,1,1,0,0,50,50,50,1,0,1,0,,,,,,,,,678.9249210003763,None,679.7035169992596,None,s,1,0.6774375010281801,679.7035169992596,None,None,None,,,,,,,12,24,female,12,2022_May_06_1145,Partial repeat,2021.2.3,59.89996732491174,
6,6,0,1,3,2,1,1,1,1,0,1,1,1,0,0,50,50,50,,,,,,,,,,,,,,,,,,,,,,,,,,,,,,12,24,female,12,2022_May_06_1145,Partial repeat,2021.2.3,59.89996732491174,
6,6,0,1,3,2,1,1,1,0,0,1,0,1,0,0,51,51,51,0,0,0,0,,,,,,,680.4105654992163,None,682.3629176001996,None,683.3771973997355,None,s,1,0.5477524995803833,683.3771973997355,None,None,None,,,,,,,12,24,female,12,2022_May_06_1145,Partial repeat,2021.2.3,59.89996732491174,
6,6,0,1,3,2,1,1,1,0,0,1,0,1,0,0,51,51,51,1,0,1,0,,,,,,,,,683.9338849987835,None,684.7795243002474,None,l,1,0.5693931989371777,684.7795243002474,None,None,None,,,,,,,12,24,female,12,2022_May_06_1145,Partial repeat,2021.2.3,59.89996732491174,
6,6,0,1,3,2,1,1,1,0,0,1,0,1,0,0,51,51,51,,,,,,,,,,,,,,,,,,,,,,,,,,,,,,12,24,female,12,2022_May_06_1145,Partial repeat,2021.2.3,59.89996732491174,
6,6,0,1,2,3,2,2,1,1,0,1,1,1,0,0,52,52,52,0,0,0,0,,,,,,,685.3756496999413,None,688.5249204989523,None,689.3215469997376,None,s,1,1.2353748995810747,689.3215469997376,None,None,None,,,,,,,12,24,female,12,2022_May_06_1145,Partial repeat,2021.2.3,59.89996732491174,
6,6,0,1,2,3,2,2,1,1,0,1,1,1,0,0,52,52,52,1,0,1,0,,,,,,,,,690.5831662993878,None,691.5263812001795,None,s,1,0.534510400146246,691.5263812001795,None,None,None,,,,,,,12,24,female,12,2022_May_06_1145,Partial repeat,2021.2.3,59.89996732491174,
6,6,0,1,2,3,2,2,1,1,0,1,1,1,0,0,52,52,52,,,,,,,,,,,,,,,,,,,,,,,,,,,,,,12,24,female,12,2022_May_06_1145,Partial repeat,2021.2.3,59.89996732491174,
6,6,0,1,3,3,1,1,0,1,1,1,0,1,0,0,53,53,53,0,0,0,0,,,,,,,692.0857878997922,None,693.5179737992585,None,694.4149546995759,None,l,1,1.1419502012431622,694.4149546995759,None,None,None,,,,,,,12,24,female,12,2022_May_06_1145,Partial repeat,2021.2.3,59.89996732491174,
6,6,0,1,3,3,1,1,0,1,1,1,0,1,0,0,53,53,53,1,0,1,0,,,,,,,,,695.5736250989139,None,696.4023339990526,None,s,1,0.5865732990205288,696.4023339990526,None,None,None,,,,,,,12,24,female,12,2022_May_06_1145,Partial repeat,2021.2.3,59.89996732491174,
6,6,0,1,3,3,1,1,0,1,1,1,0,1,0,0,53,53,53,,,,,,,,,,,,,,,,,,,,,,,,,,,,,,12,24,female,12,2022_May_06_1145,Partial repeat,2021.2.3,59.89996732491174,
6,6,0,1,2,3,2,1,1,1,0,0,1,1,0,0,54,54,54,0,0,0,0,,,,,,,697.0091989990324,None,698.1770420987159,None,699.1082246992737,None,s,1,1.0486912000924349,699.1082246992737,None,None,None,,,,,,,12,24,female,12,2022_May_06_1145,Partial repeat,2021.2.3,59.89996732491174,
6,6,0,1,2,3,2,1,1,1,0,0,1,1,0,0,54,54,54,1,0,1,0,,,,,,,,,700.1705143004656,None,700.9108895994723,None,s,1,0.9099672995507717,700.9108895994723,None,None,None,,,,,,,12,24,female,12,2022_May_06_1145,Partial repeat,2021.2.3,59.89996732491174,
6,6,0,1,2,3,2,1,1,1,0,0,1,1,0,0,54,54,54,,,,,,,,,,,,,,,,,,,,,,,,,,,,,,12,24,female,12,2022_May_06_1145,Partial repeat,2021.2.3,59.89996732491174,
6,6,0,1,3,2,1,1,0,0,0,1,1,1,0,0,55,55,55,0,0,0,0,,,,,,,701.832397999242,None,703.1032605003566,None,704.0338773988187,None,l,1,1.1070424001663923,704.0338773988187,None,None,None,,,,,,,12,24,female,12,2022_May_06_1145,Partial repeat,2021.2.3,59.89996732491174,
6,6,0,1,3,2,1,1,0,0,0,1,1,1,0,0,55,55,55,1,0,1,0,,,,,,,,,705.1525774989277,None,706.1712664999068,None,l,1,0.5616374015808105,706.1712664999068,None,None,None,,,,,,,12,24,female,12,2022_May_06_1145,Partial repeat,2021.2.3,59.89996732491174,
6,6,0,1,3,2,1,1,0,0,0,1,1,1,0,0,55,55,55,,,,,,,,,,,,,,,,,,,,,,,,,,,,,,12,24,female,12,2022_May_06_1145,Partial repeat,2021.2.3,59.89996732491174,
6,6,0,1,3,3,1,2,0,0,1,0,1,1,0,0,56,56,56,0,0,0,0,,,,,,,706.7559091001749,None,709.0648974999785,None,709.8952751997858,None,l,1,0.7496380005031824,709.8952751997858,None,None,None,,,,,,,12,24,female,12,2022_May_06_1145,Partial repeat,2021.2.3,59.89996732491174,
6,6,0,1,3,3,1,2,0,0,1,0,1,1,0,0,56,56,56,1,0,1,0,,,,,,,,,710.6661542002112,None,711.4980974998325,None,l,1,0.5387839991599321,711.4980974998325,None,None,None,,,,,,,12,24,female,12,2022_May_06_1145,Partial repeat,2021.2.3,59.89996732491174,
6,6,0,1,3,3,1,2,0,0,1,0,1,1,0,0,56,56,56,,,,,,,,,,,,,,,,,,,,,,,,,,,,,,12,24,female,12,2022_May_06_1145,Partial repeat,2021.2.3,59.89996732491174,
6,6,0,1,3,3,2,1,1,1,1,0,1,1,0,0,57,57,57,0,0,0,0,,,,,,,712.0531254988164,None,713.3062864989042,None,714.1370906997472,None,s,1,0.8438049014657736,714.1370906997472,None,None,None,,,,,,,12,24,female,12,2022_May_06_1145,Partial repeat,2021.2.3,59.89996732491174,
6,6,0,1,3,3,2,1,1,1,1,0,1,1,0,0,57,57,57,1,0,1,0,,,,,,,,,715.0066704992205,None,715.824186399579,None,s,1,0.684714000672102,715.824186399579,None,None,None,,,,,,,12,24,female,12,2022_May_06_1145,Partial repeat,2021.2.3,59.89996732491174,
6,6,0,1,3,3,2,1,1,1,1,0,1,1,0,0,57,57,57,,,,,,,,,,,,,,,,,,,,,,,,,,,,,,12,24,female,12,2022_May_06_1145,Partial repeat,2021.2.3,59.89996732491174,
6,6,0,1,2,2,2,2,0,1,1,1,0,1,0,0,58,58,58,0,0,0,0,,,,,,,716.5308365002275,None,717.6315623000264,None,718.3618216998875,None,l,1,0.8910646997392178,718.3618216998875,None,None,None,,,,,,,12,24,female,12,2022_May_06_1145,Partial repeat,2021.2.3,59.89996732491174,
6,6,0,1,2,2,2,2,0,1,1,1,0,1,0,0,58,58,58,1,0,1,0,,,,,,,,,719.2643793001771,None,720.1829244997352,None,s,1,0.9419467989355326,720.1829244997352,None,None,None,,,,,,,12,24,female,12,2022_May_06_1145,Partial repeat,2021.2.3,59.89996732491174,
6,6,0,1,2,2,2,2,0,1,1,1,0,1,0,0,58,58,58,,,,,,,,,,,,,,,,,,,,,,,,,,,,,,12,24,female,12,2022_May_06_1145,Partial repeat,2021.2.3,59.89996732491174,
6,6,0,1,3,3,1,1,1,1,1,1,1,1,0,0,59,59,59,0,0,0,0,,,,,,,721.1461501996964,None,722.0901053994894,None,723.0541641004384,None,s,1,0.7427602987736464,723.0541641004384,None,None,None,,,,,,,12,24,female,12,2022_May_06_1145,Partial repeat,2021.2.3,59.89996732491174,
6,6,0,1,3,3,1,1,1,1,1,1,1,1,0,0,59,59,59,1,0,1,0,,,,,,,,,723.8241681996733,None,724.6404483001679,None,s,1,0.5885204002261162,724.6404483001679,None,None,None,,,,,,,12,24,female,12,2022_May_06_1145,Partial repeat,2021.2.3,59.89996732491174,
6,6,0,1,3,3,1,1,1,1,1,1,1,1,0,0,59,59,59,,,,,,,,,,,,,,,,,,,,,,,,,,,,,,12,24,female,12,2022_May_06_1145,Partial repeat,2021.2.3,59.89996732491174,
6,6,0,1,2,3,1,1,1,1,0,1,1,1,0,0,60,60,60,0,0,0,0,,,,,,,725.240372499451,None,726.2984023988247,None,727.262260299176,None,s,1,0.6386231984943151,727.262260299176,None,None,None,,,,,,,12,24,female,12,2022_May_06_1145,Partial repeat,2021.2.3,59.89996732491174,
6,6,0,1,2,3,1,1,1,1,0,1,1,1,0,0,60,60,60,1,0,1,0,,,,,,,,,727.9244279991835,None,728.7835154999048,None,s,1,0.6214263997972012,728.7835154999048,None,None,None,,,,,,,12,24,female,12,2022_May_06_1145,Partial repeat,2021.2.3,59.89996732491174,
6,6,0,1,2,3,1,1,1,1,0,1,1,1,0,0,60,60,60,,,,,,,,,,,,,,,,,,,,,,,,,,,,,,12,24,female,12,2022_May_06_1145,Partial repeat,2021.2.3,59.89996732491174,
6,6,0,1,3,3,1,1,0,0,1,1,1,1,0,0,61,61,61,0,0,0,0,,,,,,,729.4330668989569,None,731.725615600124,None,732.5896035991609,None,l,1,0.8873211983591318,732.5896035991609,None,None,None,,,,,,,12,24,female,12,2022_May_06_1145,Partial repeat,2021.2.3,59.89996732491174,
6,6,0,1,3,3,1,1,0,0,1,1,1,1,0,0,61,61,61,1,0,1,0,,,,,,,,,733.5001998003572,None,734.4265570994467,None,l,1,0.8823042996227741,734.4265570994467,None,None,None,,,,,,,12,24,female,12,2022_May_06_1145,Partial repeat,2021.2.3,59.89996732491174,
6,6,0,1,3,3,1,1,0,0,1,1,1,1,0,0,61,61,61,,,,,,,,,,,,,,,,,,,,,,,,,,,,,,12,24,female,12,2022_May_06_1145,Partial repeat,2021.2.3,59.89996732491174,
6,6,0,1,2,3,2,1,0,1,0,0,0,1,0,0,62,62,62,0,0,0,0,,,,,,,735.3396498002112,None,736.4347670990974,None,737.214790198952,None,l,1,0.8540812004357576,737.214790198952,None,None,None,,,,,,,12,24,female,12,2022_May_06_1145,Partial repeat,2021.2.3,59.89996732491174,
6,6,0,1,2,3,2,1,0,1,0,0,0,1,0,0,62,62,62,1,0,1,0,,,,,,,,,738.0801440998912,None,738.9685865994543,None,s,1,0.9722582995891571,738.9685865994543,None,None,None,,,,,,,12,24,female,12,2022_May_06_1145,Partial repeat,2021.2.3,59.89996732491174,
6,6,0,1,2,3,2,1,0,1,0,0,0,1,0,0,62,62,62,,,,,,,,,,,,,,,,,,,,,,,,,,,,,,12,24,female,12,2022_May_06_1145,Partial repeat,2021.2.3,59.89996732491174,
6,6,0,1,2,3,1,2,1,1,0,0,1,1,0,0,63,63,63,0,0,0,0,,,,,,,739.9719769991934,None,740.9769885987043,None,741.7906768005341,None,s,1,0.7421973999589682,741.7906768005341,None,None,None,,,,,,,12,24,female,12,2022_May_06_1145,Partial repeat,2021.2.3,59.89996732491174,
6,6,0,1,2,3,1,2,1,1,0,0,1,1,0,0,63,63,63,1,0,1,0,,,,,,,,,742.5569857992232,None,743.4939252994955,None,s,1,0.9430023990571499,743.4939252994955,None,None,None,,,,,,,12,24,female,12,2022_May_06_1145,Partial repeat,2021.2.3,59.89996732491174,
6,6,0,1,2,3,1,2,1,1,0,0,1,1,0,0,63,63,63,,,,,,,,,,,,,,,,,,,,,,,,,,,,,,12,24,female,12,2022_May_06_1145,Partial repeat,2021.2.3,59.89996732491174,
7,7,0,1,2,2,1,2,0,1,1,0,0,0,0,0,64,64,64,0,0,0,0,,,,,,,751.5487476997077,None,753.1172596998513,None,753.9809456001967,None,l,1,2.1040285006165504,753.9809456001967,None,None,None,,,,,,,12,24,female,12,2022_May_06_1145,Partial repeat,2021.2.3,59.89996732491174,
7,7,0,1,2,2,1,2,0,1,1,0,0,0,0,0,64,64,64,1,0,1,0,,,,,,,,,756.0959978997707,None,756.8698530998081,None,s,1,0.8550449013710022,756.8698530998081,None,None,None,,,,,,,12,24,female,12,2022_May_06_1145,Partial repeat,2021.2.3,59.89996732491174,
7,7,0,1,2,2,1,2,0,1,1,0,0,0,0,0,64,64,64,,,,,,,,,,,,,,,,,,,,,,,,,,,,,,12,24,female,12,2022_May_06_1145,Partial repeat,2021.2.3,59.89996732491174,
7,6,0,1,2,2,1,2,1,0,1,0,0,0,0,0,65,65,65,0,0,0,0,,,,,,,757.7467531003058,None,760.014002699405,None,760.9447574988008,None,s,1,0.8281747996807098,760.9447574988008,None,None,None,,,,,,,12,24,female,12,2022_May_06_1145,Partial repeat,2021.2.3,59.89996732491174,
7,6,0,1,2,2,1,2,1,0,1,0,0,0,0,0,65,65,65,1,0,1,0,,,,,,,,,761.8016975987703,None,762.5808982998133,None,l,1,0.7840339001268148,762.5808982998133,None,None,None,,,,,,,12,24,female,12,2022_May_06_1145,Partial repeat,2021.2.3,59.89996732491174,
7,6,0,1,2,2,1,2,1,0,1,0,0,0,0,0,65,65,65,,,,,,,,,,,,,,,,,,,,,,,,,,,,,,12,24,female,12,2022_May_06_1145,Partial repeat,2021.2.3,59.89996732491174,
3,6,0,1,2,2,1,1,1,1,1,1,1,0,0,0,66,66,66,0,0,0,0,,,,,,,763.3869300987571,None,764.2555927988142,None,765.0190277993679,None,s,1,0.8738393001258373,765.0190277993679,None,None,None,,,,,,,12,24,female,12,2022_May_06_1145,Partial repeat,2021.2.3,59.89996732491174,
3,6,0,1,2,2,1,1,1,1,1,1,1,0,0,0,66,66,66,1,0,1,0,,,,,,,,,765.9123461991549,None,766.7726435996592,None,s,1,0.6722610983997583,766.7726435996592,None,None,None,,,,,,,12,24,female,12,2022_May_06_1145,Partial repeat,2021.2.3,59.89996732491174,
3,6,0,1,2,2,1,1,1,1,1,1,1,0,0,0,66,66,66,,,,,,,,,,,,,,,,,,,,,,,,,,,,,,12,24,female,12,2022_May_06_1145,Partial repeat,2021.2.3,59.89996732491174,
8,1,0,1,3,2,1,1,0,0,0,1,1,0,0,0,67,67,67,0,0,0,0,,,,,,,767.4559783991426,None,768.2967537995428,None,769.1773709990084,None,l,1,0.9474895000457764,769.1773709990084,None,None,None,,,,,,,12,24,female,12,2022_May_06_1145,Partial repeat,2021.2.3,59.89996732491174,
8,1,0,1,3,2,1,1,0,0,0,1,1,0,0,0,67,67,67,1,0,1,0,,,,,,,,,770.1401633005589,None,770.8977357987314,None,l,1,0.6991457995027304,770.8977357987314,None,None,None,,,,,,,12,24,female,12,2022_May_06_1145,Partial repeat,2021.2.3,59.89996732491174,
8,1,0,1,3,2,1,1,0,0,0,1,1,0,0,0,67,67,67,,,,,,,,,,,,,,,,,,,,,,,,,,,,,,12,24,female,12,2022_May_06_1145,Partial repeat,2021.2.3,59.89996732491174,
2,5,0,1,2,2,2,2,1,1,1,1,1,0,0,0,68,68,68,0,0,0,0,,,,,,,771.6259998995811,None,772.2544398996979,None,773.251925399527,None,s,1,0.912932001054287,773.251925399527,None,None,None,,,,,,,12,24,female,12,2022_May_06_1145,Partial repeat,2021.2.3,59.89996732491174,
2,5,0,1,2,2,2,2,1,1,1,1,1,0,0,0,68,68,68,1,0,1,0,,,,,,,,,774.1844909004867,None,775.1389176994562,None,s,1,1.0099366009235382,775.1389176994562,None,None,None,,,,,,,12,24,female,12,2022_May_06_1145,Partial repeat,2021.2.3,59.89996732491174,
2,5,0,1,2,2,2,2,1,1,1,1,1,0,0,0,68,68,68,,,,,,,,,,,,,,,,,,,,,,,,,,,,,,12,24,female,12,2022_May_06_1145,Partial repeat,2021.2.3,59.89996732491174,
5,5,0,1,2,3,2,1,1,1,0,0,1,0,0,0,69,69,69,0,0,0,0,,,,,,,776.1658707987517,None,776.6629604995251,None,777.460120100528,None,s,1,0.4808114003390074,777.460120100528,None,None,None,,,,,,,12,24,female,12,2022_May_06_1145,Partial repeat,2021.2.3,59.89996732491174,
5,5,0,1,2,3,2,1,1,1,0,0,1,0,0,0,69,69,69,1,0,1,0,,,,,,,,,777.9557560998946,None,778.8963073994964,None,s,1,0.5086384993046522,778.8963073994964,None,None,None,,,,,,,12,24,female,12,2022_May_06_1145,Partial repeat,2021.2.3,59.89996732491174,
5,5,0,1,2,3,2,1,1,1,0,0,1,0,0,0,69,69,69,,,,,,,,,,,,,,,,,,,,,,,,,,,,,,12,24,female,12,2022_May_06_1145,Partial repeat,2021.2.3,59.89996732491174,
2,8,0,1,3,2,1,1,1,0,0,1,0,0,0,0,70,70,70,0,0,0,0,,,,,,,779.4343544989824,None,779.9694937989116,None,780.7830253988504,None,s,1,0.7258438002318144,780.7830253988504,None,None,None,,,,,,,12,24,female,12,2022_May_06_1145,Partial repeat,2021.2.3,59.89996732491174,
2,8,0,1,3,2,1,1,1,0,0,1,0,0,0,0,70,70,70,1,0,1,0,,,,,,,,,781.5293926987797,None,782.4863171987236,None,l,1,0.5585409998893738,782.4863171987236,None,None,None,,,,,,,12,24,female,12,2022_May_06_1145,Partial repeat,2021.2.3,59.89996732491174,
2,8,0,1,3,2,1,1,1,0,0,1,0,0,0,0,70,70,70,,,,,,,,,,,,,,,,,,,,,,,,,,,,,,12,24,female,12,2022_May_06_1145,Partial repeat,2021.2.3,59.89996732491174,
4,5,0,1,3,3,1,1,1,0,1,1,0,0,0,0,71,71,71,0,0,0,0,,,,,,,783.0674983989447,None,783.9605930987746,None,784.9747247993946,None,s,1,0.6302601993083954,784.9747247993946,None,None,None,,,,,,,12,24,female,12,2022_May_06_1145,Partial repeat,2021.2.3,59.89996732491174,
4,5,0,1,3,3,1,1,1,0,1,1,0,0,0,0,71,71,71,1,0,1,0,,,,,,,,,785.6313733998686,None,786.377626599744,None,l,1,1.1312259994447231,786.377626599744,None,None,None,,,,,,,12,24,female,12,2022_May_06_1145,Partial repeat,2021.2.3,59.89996732491174,
4,5,0,1,3,3,1,1,1,0,1,1,0,0,0,0,71,71,71,,,,,,,,,,,,,,,,,,,,,,,,,,,,,,12,24,female,12,2022_May_06_1145,Partial repeat,2021.2.3,59.89996732491174,
6,5,0,1,2,2,1,1,0,1,1,1,0,0,0,0,72,72,72,0,0,0,0,,,,,,,787.5319579001516,None,788.2522403001785,None,789.1336698997766,None,l,1,0.7111856993287802,789.1336698997766,None,None,None,,,,,,,12,24,female,12,2022_May_06_1145,Partial repeat,2021.2.3,59.89996732491174,
6,5,0,1,2,2,1,1,0,1,1,1,0,0,0,0,72,72,72,1,0,1,0,,,,,,,,,789.8574592992663,None,790.869210800156,None,s,1,0.511643199250102,790.869210800156,None,None,None,,,,,,,12,24,female,12,2022_May_06_1145,Partial repeat,2021.2.3,59.89996732491174,
6,5,0,1,2,2,1,1,0,1,1,1,0,0,0,0,72,72,72,,,,,,,,,,,,,,,,,,,,,,,,,,,,,,12,24,female,12,2022_May_06_1145,Partial repeat,2021.2.3,59.89996732491174,
7,3,0,1,3,2,1,2,0,0,0,0,1,0,0,0,73,73,73,0,0,0,0,,,,,,,791.4082567002624,None,792.0596762001514,None,793.0236823000014,None,l,1,0.9251639004796743,793.0236823000014,None,None,None,,,,,,,12,24,female,12,2022_May_06_1145,Partial repeat,2021.2.3,59.89996732491174,
7,3,0,1,3,2,1,2,0,0,0,0,1,0,0,0,73,73,73,1,0,1,0,,,,,,,,,793.9763213992119,None,794.8436389993876,None,l,1,0.8651793003082275,794.8436389993876,None,None,None,,,,,,,12,24,female,12,2022_May_06_1145,Partial repeat,2021.2.3,59.89996732491174,
7,3,0,1,3,2,1,2,0,0,0,0,1,0,0,0,73,73,73,,,,,,,,,,,,,,,,,,,,,,,,,,,,,,12,24,female,12,2022_May_06_1145,Partial repeat,2021.2.3,59.89996732491174,
2,2,0,1,3,2,2,1,0,1,0,0,0,0,0,0,74,74,74,0,0,0,0,,,,,,,795.7227161005139,None,797.7541224993765,None,798.6848232988268,None,l,1,0.6481146011501551,798.6848232988268,None,None,None,,,,,,,12,24,female,12,2022_May_06_1145,Partial repeat,2021.2.3,59.89996732491174,
2,2,0,1,3,2,2,1,0,1,0,0,0,0,0,0,74,74,74,1,0,1,0,,,,,,,,,799.3431145995855,None,800.1877442002296,None,s,1,0.9371073003858328,800.1877442002296,None,None,None,,,,,,,12,24,female,12,2022_May_06_1145,Partial repeat,2021.2.3,59.89996732491174,
2,2,0,1,3,2,2,1,0,1,0,0,0,0,0,0,74,74,74,,,,,,,,,,,,,,,,,,,,,,,,,,,,,,12,24,female,12,2022_May_06_1145,Partial repeat,2021.2.3,59.89996732491174,
8,7,0,1,3,3,1,1,0,1,1,1,0,0,0,0,75,75,75,0,0,0,0,,,,,,,801.1495779994875,None,803.064240200445,None,803.944884499535,None,l,1,0.6040121000260115,803.944884499535,None,None,None,,,,,,,12,24,female,12,2022_May_06_1145,Partial repeat,2021.2.3,59.89996732491174,
8,7,0,1,3,3,1,1,0,1,1,1,0,0,0,0,75,75,75,1,0,1,0,,,,,,,,,804.5582395996898,None,805.5313523001969,None,s,1,0.8095353003591299,805.5313523001969,None,None,None,,,,,,,12,24,female,12,2022_May_06_1145,Partial repeat,2021.2.3,59.89996732491174,
8,7,0,1,3,3,1,1,0,1,1,1,0,0,0,0,75,75,75,,,,,,,,,,,,,,,,,,,,,,,,,,,,,,12,24,female,12,2022_May_06_1145,Partial repeat,2021.2.3,59.89996732491174,
1,6,0,1,3,3,1,1,1,1,1,1,1,0,0,0,76,76,76,0,0,0,0,,,,,,,806.3701581005007,None,807.7735644001514,None,808.7873494997621,None,s,1,0.8014747984707355,808.7873494997621,None,None,None,,,,,,,12,24,female,12,2022_May_06_1145,Partial repeat,2021.2.3,59.89996732491174,
1,6,0,1,3,3,1,1,1,1,1,1,1,0,0,0,76,76,76,1,0,1,0,,,,,,,,,809.5972511991858,None,810.5914709996432,None,s,1,0.5412847008556128,810.5914709996432,None,None,None,,,,,,,12,24,female,12,2022_May_06_1145,Partial repeat,2021.2.3,59.89996732491174,
1,6,0,1,3,3,1,1,1,1,1,1,1,0,0,0,76,76,76,,,,,,,,,,,,,,,,,,,,,,,,,,,,,,12,24,female,12,2022_May_06_1145,Partial repeat,2021.2.3,59.89996732491174,
7,8,0,1,2,2,1,2,1,1,1,0,1,0,0,0,77,77,77,0,0,0,0,,,,,,,811.1517193987966,None,812.5495402999222,None,813.2806432005018,None,s,1,0.5641588009893894,813.2806432005018,None,None,None,,,,,,,12,24,female,12,2022_May_06_1145,Partial repeat,2021.2.3,59.89996732491174,
7,8,0,1,2,2,1,2,1,1,1,0,1,0,0,0,77,77,77,1,0,1,0,,,,,,,,,813.8585055992007,None,814.8502868004143,None,s,1,0.6745603997260332,814.8502868004143,None,None,None,,,,,,,12,24,female,12,2022_May_06_1145,Partial repeat,2021.2.3,59.89996732491174,
7,8,0,1,2,2,1,2,1,1,1,0,1,0,0,0,77,77,77,,,,,,,,,,,,,,,,,,,,,,,,,,,,,,12,24,female,12,2022_May_06_1145,Partial repeat,2021.2.3,59.89996732491174,
6,6,0,1,2,3,1,1,0,1,0,1,0,0,0,0,78,78,78,0,0,0,0,,,,,,,815.5402392987162,None,816.523891499266,None,817.3248819988221,None,l,1,0.919955100864172,817.3248819988221,None,None,None,,,,,,,12,24,female,12,2022_May_06_1145,Partial repeat,2021.2.3,59.89996732491174,
6,6,0,1,2,3,1,1,0,1,0,1,0,0,0,0,78,78,78,1,0,1,0,,,,,,,,,818.2638792004436,None,819.0406844988465,None,s,1,0.7402206007391214,819.0406844988465,None,None,None,,,,,,,12,24,female,12,2022_May_06_1145,Partial repeat,2021.2.3,59.89996732491174,
6,6,0,1,2,3,1,1,0,1,0,1,0,0,0,0,78,78,78,,,,,,,,,,,,,,,,,,,,,,,,,,,,,,12,24,female,12,2022_May_06_1145,Partial repeat,2021.2.3,59.89996732491174,
4,3,0,1,2,2,2,1,1,0,1,0,0,0,0,0,79,79,79,0,0,0,0,,,,,,,819.8102161996067,None,820.8322748988867,None,821.7794714998454,None,s,1,0.7613807003945112,821.7794714998454,None,None,None,,,,,,,12,24,female,12,2022_May_06_1145,Partial repeat,2021.2.3,59.89996732491174,
4,3,0,1,2,2,2,1,1,0,1,0,0,0,0,0,79,79,79,1,0,1,0,,,,,,,,,822.5663801003247,None,823.4662330001593,None,l,1,0.7145997006446123,823.4662330001593,None,None,None,,,,,,,12,24,female,12,2022_May_06_1145,Partial repeat,2021.2.3,59.89996732491174,
4,3,0,1,2,2,2,1,1,0,1,0,0,0,0,0,79,79,79,,,,,,,,,,,,,,,,,,,,,,,,,,,,,,12,24,female,12,2022_May_06_1145,Partial repeat,2021.2.3,59.89996732491174,
5,4,0,1,2,2,1,1,1,0,1,1,0,0,0,0,80,80,80,0,0,0,0,,,,,,,824.1975784990937,None,825.0404997002333,None,826.0378258991987,None,s,1,0.7030011005699635,826.0378258991987,None,None,None,,,,,,,12,24,female,12,2022_May_06_1145,Partial repeat,2021.2.3,59.89996732491174,
5,4,0,1,2,2,1,1,1,0,1,1,0,0,0,0,80,80,80,1,0,1,0,,,,,,,,,826.7595013994724,None,827.5072061996907,None,l,1,0.8816295005381107,827.5072061996907,None,None,None,,,,,,,12,24,female,12,2022_May_06_1145,Partial repeat,2021.2.3,59.89996732491174,
5,4,0,1,2,2,1,1,1,0,1,1,0,0,0,0,80,80,80,,,,,,,,,,,,,,,,,,,,,,,,,,,,,,12,24,female,12,2022_May_06_1145,Partial repeat,2021.2.3,59.89996732491174,
3,7,0,1,3,3,1,2,0,0,1,0,1,0,0,0,81,81,81,0,0,0,0,,,,,,,828.4055460002273,None,829.1484478004277,None,829.9288404993713,None,l,1,0.8040511999279261,829.9288404993713,None,None,None,,,,,,,12,24,female,12,2022_May_06_1145,Partial repeat,2021.2.3,59.89996732491174,
3,7,0,1,3,3,1,2,0,0,1,0,1,0,0,0,81,81,81,1,0,1,0,,,,,,,,,830.7595895994455,None,831.6655854005367,None,l,1,0.6353453993797302,831.6655854005367,None,None,None,,,,,,,12,24,female,12,2022_May_06_1145,Partial repeat,2021.2.3,59.89996732491174,
3,7,0,1,3,3,1,2,0,0,1,0,1,0,0,0,81,81,81,,,,,,,,,,,,,,,,,,,,,,,,,,,,,,12,24,female,12,2022_May_06_1145,Partial repeat,2021.2.3,59.89996732491174,
4,7,0,1,3,2,2,2,0,0,0,1,1,0,0,0,82,82,82,0,0,0,0,,,,,,,832.3321531005204,None,833.1061393991113,None,834.0368154998869,None,l,1,0.7680238001048565,834.0368154998869,None,None,None,,,,,,,12,24,female,12,2022_May_06_1145,Partial repeat,2021.2.3,59.89996732491174,
4,7,0,1,3,2,2,2,0,0,0,1,1,0,0,0,82,82,82,1,0,1,0,,,,,,,,,834.8169276993722,None,835.5731400996447,None,l,1,1.1116901002824306,835.5731400996447,None,None,None,,,,,,,12,24,female,12,2022_May_06_1145,Partial repeat,2021.2.3,59.89996732491174,
4,7,0,1,3,2,2,2,0,0,0,1,1,0,0,0,82,82,82,,,,,,,,,,,,,,,,,,,,,,,,,,,,,,12,24,female,12,2022_May_06_1145,Partial repeat,2021.2.3,59.89996732491174,
4,4,0,1,3,3,2,1,1,1,1,0,1,0,0,0,83,83,83,0,0,0,0,,,,,,,836.7036361992359,None,837.5313907992095,None,838.3284146003425,None,s,1,0.6684169005602598,838.3284146003425,None,None,None,,,,,,,12,24,female,12,2022_May_06_1145,Partial repeat,2021.2.3,59.89996732491174,
4,4,0,1,3,3,2,1,1,1,1,0,1,0,0,0,83,83,83,1,0,1,0,,,,,,,,,839.0118732005358,None,839.8314439989626,None,s,1,0.9093779996037483,839.8314439989626,None,None,None,,,,,,,12,24,female,12,2022_May_06_1145,Partial repeat,2021.2.3,59.89996732491174,
4,4,0,1,3,3,2,1,1,1,1,0,1,0,0,0,83,83,83,,,,,,,,,,,,,,,,,,,,,,,,,,,,,,12,24,female,12,2022_May_06_1145,Partial repeat,2021.2.3,59.89996732491174,
5,2,0,1,2,3,1,1,1,1,0,1,1,0,0,0,84,84,84,0,0,0,0,,,,,,,840.7585909999907,None,842.4076147992164,None,843.4216465987265,None,s,1,1.3032076992094517,843.4216465987265,None,None,None,,,,,,,12,24,female,12,2022_May_06_1145,Partial repeat,2021.2.3,59.89996732491174,
5,2,0,1,2,3,1,1,1,1,0,1,1,0,0,0,84,84,84,1,0,1,0,,,,,,,,,844.7485771998763,None,845.6759778987616,None,s,1,0.768817501142621,845.6759778987616,None,None,None,,,,,,,12,24,female,12,2022_May_06_1145,Partial repeat,2021.2.3,59.89996732491174,
5,2,0,1,2,3,1,1,1,1,0,1,1,0,0,0,84,84,84,,,,,,,,,,,,,,,,,,,,,,,,,,,,,,12,24,female,12,2022_May_06_1145,Partial repeat,2021.2.3,59.89996732491174,
4,2,0,1,2,2,2,1,0,0,1,0,1,0,0,0,85,85,85,0,0,0,0,,,,,,,846.4759889990091,None,847.1334250997752,None,848.1149607989937,None,l,1,0.8178863003849983,848.1149607989937,None,None,None,,,,,,,12,24,female,12,2022_May_06_1145,Partial repeat,2021.2.3,59.89996732491174,
4,2,0,1,2,2,2,1,0,0,1,0,1,0,0,0,85,85,85,1,0,1,0,,,,,,,,,848.9465779997408,None,849.9010105989873,None,l,1,0.6078517008572817,849.9010105989873,None,None,None,,,,,,,12,24,female,12,2022_May_06_1145,Partial repeat,2021.2.3,59.89996732491174,
4,2,0,1,2,2,2,1,0,0,1,0,1,0,0,0,85,85,85,,,,,,,,,,,,,,,,,,,,,,,,,,,,,,12,24,female,12,2022_May_06_1145,Partial repeat,2021.2.3,59.89996732491174,
5,7,0,1,3,3,2,1,1,0,1,0,0,0,0,0,86,86,86,0,0,0,0,,,,,,,850.5255388990045,None,851.7591425999999,None,852.5895207989961,None,s,1,1.0072910003364086,852.5895207989961,None,None,None,,,,,,,12,24,female,12,2022_May_06_1145,Partial repeat,2021.2.3,59.89996732491174,
5,7,0,1,3,3,2,1,1,0,1,0,0,0,0,0,86,86,86,1,0,1,0,,,,,,,,,853.6052256003022,None,854.3763002995402,None,l,1,0.5885253008455038,854.3763002995402,None,None,None,,,,,,,12,24,female,12,2022_May_06_1145,Partial repeat,2021.2.3,59.89996732491174,
5,7,0,1,3,3,2,1,1,0,1,0,0,0,0,0,86,86,86,,,,,,,,,,,,,,,,,,,,,,,,,,,,,,12,24,female,12,2022_May_06_1145,Partial repeat,2021.2.3,59.89996732491174,
8,6,0,1,2,3,2,1,1,0,0,0,0,0,0,0,87,87,87,0,0,0,0,,,,,,,854.9808086995035,None,856.0675146002322,None,856.9984341990203,None,s,1,0.9583863001316786,856.9984341990203,None,None,None,,,,,,,12,24,female,12,2022_May_06_1145,Partial repeat,2021.2.3,59.89996732491174,
8,6,0,1,2,3,2,1,1,0,0,0,0,0,0,0,87,87,87,1,0,1,0,,,,,,,,,857.9743956997991,None,858.9349114000797,None,l,1,0.9099562987685204,858.9349114000797,None,None,None,,,,,,,12,24,female,12,2022_May_06_1145,Partial repeat,2021.2.3,59.89996732491174,
8,6,0,1,2,3,2,1,1,0,0,0,0,0,0,0,87,87,87,,,,,,,,,,,,,,,,,,,,,,,,,,,,,,12,24,female,12,2022_May_06_1145,Partial repeat,2021.2.3,59.89996732491174,
7,2,0,1,2,2,2,2,1,0,1,1,0,0,0,0,88,88,88,0,0,0,0,,,,,,,859.8564515989274,None,860.7263984996825,None,861.5734684001654,None,s,1,1.2393453009426594,861.5734684001654,None,None,None,,,,,,,12,24,female,12,2022_May_06_1145,Partial repeat,2021.2.3,59.89996732491174,
7,2,0,1,2,2,2,2,1,0,1,1,0,0,0,0,88,88,88,1,0,1,0,,,,,,,,,862.8263677991927,None,863.777855399996,None,l,1,0.7390496004372835,863.777855399996,None,None,None,,,,,,,12,24,female,12,2022_May_06_1145,Partial repeat,2021.2.3,59.89996732491174,
7,2,0,1,2,2,2,2,1,0,1,1,0,0,0,0,88,88,88,,,,,,,,,,,,,,,,,,,,,,,,,,,,,,12,24,female,12,2022_May_06_1145,Partial repeat,2021.2.3,59.89996732491174,
6,7,0,1,2,2,1,1,0,0,1,1,1,0,0,0,89,89,89,0,0,0,0,,,,,,,864.5298104993999,None,865.4521474987268,None,866.3831454999745,None,l,1,0.9736678004264832,866.3831454999745,None,None,None,,,,,,,12,24,female,12,2022_May_06_1145,Partial repeat,2021.2.3,59.89996732491174,
6,7,0,1,2,2,1,1,0,0,1,1,1,0,0,0,89,89,89,1,0,1,0,,,,,,,,,867.3822999987751,None,868.3366340994835,None,l,1,0.7562141995877028,868.3366340994835,None,None,None,,,,,,,12,24,female,12,2022_May_06_1145,Partial repeat,2021.2.3,59.89996732491174,
6,7,0,1,2,2,1,1,0,0,1,1,1,0,0,0,89,89,89,,,,,,,,,,,,,,,,,,,,,,,,,,,,,,12,24,female,12,2022_May_06_1145,Partial repeat,2021.2.3,59.89996732491174,
8,5,0,1,2,3,1,2,0,0,0,0,1,0,0,0,90,90,90,0,0,0,0,,,,,,,869.1145826987922,None,870.1950094997883,None,871.0421114005148,None,l,1,0.6666973996907473,871.0421114005148,None,None,None,,,,,,,12,24,female,12,2022_May_06_1145,Partial repeat,2021.2.3,59.89996732491174,
8,5,0,1,2,3,1,2,0,0,0,0,1,0,0,0,90,90,90,1,0,1,0,,,,,,,,,871.7335703000426,None,872.4947343003005,None,l,1,0.7340709995478392,872.4947343003005,None,None,None,,,,,,,12,24,female,12,2022_May_06_1145,Partial repeat,2021.2.3,59.89996732491174,
8,5,0,1,2,3,1,2,0,0,0,0,1,0,0,0,90,90,90,,,,,,,,,,,,,,,,,,,,,,,,,,,,,,12,24,female,12,2022_May_06_1145,Partial repeat,2021.2.3,59.89996732491174,
8,3,0,1,3,2,1,2,0,1,0,0,0,0,0,0,91,91,91,0,0,0,0,,,,,,,873.2467601988465,None,874.6202546991408,None,875.5008288994431,None,l,1,0.6879534013569355,875.5008288994431,None,None,None,,,,,,,12,24,female,12,2022_May_06_1145,Partial repeat,2021.2.3,59.89996732491174,
8,3,0,1,3,2,1,2,0,1,0,0,0,0,0,0,91,91,91,1,0,1,0,,,,,,,,,876.2027610987425,None,877.0201683994383,None,s,1,1.0086314007639885,877.0201683994383,None,None,None,,,,,,,12,24,female,12,2022_May_06_1145,Partial repeat,2021.2.3,59.89996732491174,
8,3,0,1,3,2,1,2,0,1,0,0,0,0,0,0,91,91,91,,,,,,,,,,,,,,,,,,,,,,,,,,,,,,12,24,female,12,2022_May_06_1145,Partial repeat,2021.2.3,59.89996732491174,
2,6,0,1,3,3,1,2,1,0,1,0,0,0,0,0,92,92,92,0,0,0,0,,,,,,,878.0527848005295,None,878.9119649995118,None,879.7755789998919,None,s,1,0.8133435994386673,879.7755789998919,None,None,None,,,,,,,12,24,female,12,2022_May_06_1145,Partial repeat,2021.2.3,59.89996732491174,
2,6,0,1,3,3,1,2,1,0,1,0,0,0,0,0,92,92,92,1,0,1,0,,,,,,,,,880.5990890003741,None,881.5793457999825,None,l,1,0.8894942998886108,881.5793457999825,None,None,None,,,,,,,12,24,female,12,2022_May_06_1145,Partial repeat,2021.2.3,59.89996732491174,
2,6,0,1,3,3,1,2,1,0,1,0,0,0,0,0,92,92,92,,,,,,,,,,,,,,,,,,,,,,,,,,,,,,12,24,female,12,2022_May_06_1145,Partial repeat,2021.2.3,59.89996732491174,
3,2,0,1,3,2,2,1,1,0,0,0,0,0,0,0,93,93,93,0,0,0,0,,,,,,,882.4989053998142,None,883.4207365997136,None,884.3513380996883,None,s,1,0.7334853000938892,884.3513380996883,None,None,None,,,,,,,12,24,female,12,2022_May_06_1145,Partial repeat,2021.2.3,59.89996732491174,
3,2,0,1,3,2,2,1,1,0,0,0,0,0,0,0,93,93,93,1,0,1,0,,,,,,,,,885.0962843988091,None,886.0209634993225,None,l,1,1.215844301506877,886.0209634993225,None,None,None,,,,,,,12,24,female,12,2022_May_06_1145,Partial repeat,2021.2.3,59.89996732491174,
3,2,0,1,3,2,2,1,1,0,0,0,0,0,0,0,93,93,93,,,,,,,,,,,,,,,,,,,,,,,,,,,,,,12,24,female,12,2022_May_06_1145,Partial repeat,2021.2.3,59.89996732491174,
1,5,0,1,3,3,2,2,0,1,1,1,0,0,0,0,94,94,94,0,0,0,0,,,,,,,887.2532914001495,None,890.2506920993328,None,891.0316323991865,None,l,1,0.8531788010150194,891.0316323991865,None,None,None,,,,,,,12,24,female,12,2022_May_06_1145,Partial repeat,2021.2.3,59.89996732491174,
1,5,0,1,3,3,2,2,0,1,1,1,0,0,0,0,94,94,94,1,0,1,0,,,,,,,,,891.8968260996044,None,892.8341736998409,None,s,1,0.5466494001448154,892.8341736998409,None,None,None,,,,,,,12,24,female,12,2022_May_06_1145,Partial repeat,2021.2.3,59.89996732491174,
1,5,0,1,3,3,2,2,0,1,1,1,0,0,0,0,94,94,94,,,,,,,,,,,,,,,,,,,,,,,,,,,,,,12,24,female,12,2022_May_06_1145,Partial repeat,2021.2.3,59.89996732491174,
5,8,0,1,2,3,2,1,0,1,0,0,0,0,0,0,95,95,95,0,0,0,0,,,,,,,893.3971641995013,None,894.2918787989765,None,895.0720146000385,None,l,1,1.4447964001446962,895.0720146000385,None,None,None,,,,,,,12,24,female,12,2022_May_06_1145,Partial repeat,2021.2.3,59.89996732491174,
5,8,0,1,2,3,2,1,0,1,0,0,0,0,0,0,95,95,95,1,0,1,0,,,,,,,,,896.5405786987394,None,897.395176699385,None,s,1,0.7775918990373611,897.395176699385,None,None,None,,,,,,,12,24,female,12,2022_May_06_1145,Partial repeat,2021.2.3,59.89996732491174,
5,8,0,1,2,3,2,1,0,1,0,0,0,0,0,0,95,95,95,,,,,,,,,,,,,,,,,,,,,,,,,,,,,,12,24,female,12,2022_May_06_1145,Partial repeat,2021.2.3,59.89996732491174,
6,1,0,1,3,3,1,1,0,0,1,1,1,0,0,0,96,96,96,0,0,0,0,,,,,,,898.1889251992106,None,899.7691652998328,None,900.5492790993303,None,l,1,0.9675297997891903,900.5492790993303,None,None,None,,,,,,,12,24,female,12,2022_May_06_1145,Partial repeat,2021.2.3,59.89996732491174,
6,1,0,1,3,3,1,1,0,0,1,1,1,0,0,0,96,96,96,1,0,1,0,,,,,,,,,901.5259413998574,None,902.5366357993335,None,l,1,0.660266200080514,902.5366357993335,None,None,None,,,,,,,12,24,female,12,2022_May_06_1145,Partial repeat,2021.2.3,59.89996732491174,
6,1,0,1,3,3,1,1,0,0,1,1,1,0,0,0,96,96,96,,,,,,,,,,,,,,,,,,,,,,,,,,,,,,12,24,female,12,2022_May_06_1145,Partial repeat,2021.2.3,59.89996732491174,
3,4,0,1,2,3,2,2,1,1,0,1,1,0,0,0,97,97,97,0,0,0,0,,,,,,,903.2087941989303,None,904.1777590997517,None,905.0081335995346,None,s,1,0.8047685995697975,905.0081335995346,None,None,None,,,,,,,12,24,female,12,2022_May_06_1145,Partial repeat,2021.2.3,59.89996732491174,
3,4,0,1,2,3,2,2,1,1,0,1,1,0,0,0,97,97,97,1,0,1,0,,,,,,,,,905.8408738989383,None,906.7453092001379,None,s,1,0.675457900390029,906.7453092001379,None,None,None,,,,,,,12,24,female,12,2022_May_06_1145,Partial repeat,2021.2.3,59.89996732491174,
3,4,0,1,2,3,2,2,1,1,0,1,1,0,0,0,97,97,97,,,,,,,,,,,,,,,,,,,,,,,,,,,,,,12,24,female,12,2022_May_06_1145,Partial repeat,2021.2.3,59.89996732491174,
1,8,0,1,2,3,2,2,0,0,0,1,1,0,0,0,98,98,98,0,0,0,0,,,,,,,907.4324481990188,None,909.4546942003071,None,910.2684666998684,None,l,1,0.6964149996638298,910.2684666998684,None,None,None,,,,,,,12,24,female,12,2022_May_06_1145,Partial repeat,2021.2.3,59.89996732491174,
1,8,0,1,2,3,2,2,0,0,0,1,1,0,0,0,98,98,98,1,0,1,0,,,,,,,,,910.993052398786,None,911.8888661991805,None,l,1,0.6679357010871172,911.8888661991805,None,None,None,,,,,,,12,24,female,12,2022_May_06_1145,Partial repeat,2021.2.3,59.89996732491174,
1,8,0,1,2,3,2,2,0,0,0,1,1,0,0,0,98,98,98,,,,,,,,,,,,,,,,,,,,,,,,,,,,,,12,24,female,12,2022_May_06_1145,Partial repeat,2021.2.3,59.89996732491174,
8,4,0,1,2,2,2,1,0,1,1,0,0,0,0,0,99,99,99,0,0,0,0,,,,,,,912.5778634995222,None,913.2787586990744,None,914.1261390000582,None,l,1,0.5986911002546549,914.1261390000582,None,None,None,,,,,,,12,24,female,12,2022_May_06_1145,Partial repeat,2021.2.3,59.89996732491174,
8,4,0,1,2,2,2,1,0,1,1,0,0,0,0,0,99,99,99,1,0,1,0,,,,,,,,,914.7432029992342,None,915.6128233000636,None,s,1,0.7519726995378733,915.6128233000636,None,None,None,,,,,,,12,24,female,12,2022_May_06_1145,Partial repeat,2021.2.3,59.89996732491174,
8,4,0,1,2,2,2,1,0,1,1,0,0,0,0,0,99,99,99,,,,,,,,,,,,,,,,,,,,,,,,,,,,,,12,24,female,12,2022_May_06_1145,Partial repeat,2021.2.3,59.89996732491174,
1,7,0,1,3,2,2,2,1,0,0,1,0,0,0,0,100,100,100,0,0,0,0,,,,,,,916.3818040993065,None,922.7138359993696,None,923.5609773993492,None,s,1,0.7638109009712934,923.5609773993492,None,None,None,,,,,,,12,24,female,12,2022_May_06_1145,Partial repeat,2021.2.3,59.89996732491174,
1,7,0,1,3,2,2,2,1,0,0,1,0,0,0,0,100,100,100,1,0,1,0,,,,,,,,,924.350173799321,None,925.2142133004963,None,l,1,1.0865600015968084,925.2142133004963,None,None,None,,,,,,,12,24,female,12,2022_May_06_1145,Partial repeat,2021.2.3,59.89996732491174,
1,7,0,1,3,2,2,2,1,0,0,1,0,0,0,0,100,100,100,,,,,,,,,,,,,,,,,,,,,,,,,,,,,,12,24,female,12,2022_May_06_1145,Partial repeat,2021.2.3,59.89996732491174,
6,3,0,1,2,3,1,1,1,0,0,1,0,0,0,0,101,101,101,0,0,0,0,,,,,,,926.3276151996106,None,927.2393075991422,None,928.1029068995267,None,s,1,0.82184880040586,928.1029068995267,None,None,None,,,,,,,12,24,female,12,2022_May_06_1145,Partial repeat,2021.2.3,59.89996732491174,
6,3,0,1,2,3,1,1,1,0,0,1,0,0,0,0,101,101,101,1,0,1,0,,,,,,,,,928.9447242990136,None,929.7563336994499,None,l,1,0.6244498006999493,929.7563336994499,None,None,None,,,,,,,12,24,female,12,2022_May_06_1145,Partial repeat,2021.2.3,59.89996732491174,
6,3,0,1,2,3,1,1,1,0,0,1,0,0,0,0,101,101,101,,,,,,,,,,,,,,,,,,,,,,,,,,,,,,12,24,female,12,2022_May_06_1145,Partial repeat,2021.2.3,59.89996732491174,
6,2,0,1,3,3,2,1,0,0,1,0,1,0,0,0,102,102,102,0,0,0,0,,,,,,,930.3966329991817,None,931.4642037991434,None,932.3611430004239,None,l,1,0.6916995011270046,932.3611430004239,None,None,None,,,,,,,12,24,female,12,2022_May_06_1145,Partial repeat,2021.2.3,59.89996732491174,
6,2,0,1,3,3,2,1,0,0,1,0,1,0,0,0,102,102,102,1,0,1,0,,,,,,,,,933.0656546987593,None,933.9308438990265,None,l,1,0.7139683999121189,933.9308438990265,None,None,None,,,,,,,12,24,female,12,2022_May_06_1145,Partial repeat,2021.2.3,59.89996732491174,
6,2,0,1,3,3,2,1,0,0,1,0,1,0,0,0,102,102,102,,,,,,,,,,,,,,,,,,,,,,,,,,,,,,12,24,female,12,2022_May_06_1145,Partial repeat,2021.2.3,59.89996732491174,
1,4,0,1,3,2,2,2,0,1,0,1,0,0,0,0,103,103,103,0,0,0,0,,,,,,,934.6591804996133,None,935.3884785994887,None,936.1689001005143,None,l,1,0.9558809995651245,936.1689001005143,None,None,None,,,,,,,12,24,female,12,2022_May_06_1145,Partial repeat,2021.2.3,59.89996732491174,
1,4,0,1,3,2,2,2,0,1,0,1,0,0,0,0,103,103,103,1,0,1,0,,,,,,,,,937.1411712002009,None,938.122595898807,None,s,1,0.5863006990402937,938.122595898807,None,None,None,,,,,,,12,24,female,12,2022_May_06_1145,Partial repeat,2021.2.3,59.89996732491174,
1,4,0,1,3,2,2,2,0,1,0,1,0,0,0,0,103,103,103,,,,,,,,,,,,,,,,,,,,,,,,,,,,,,12,24,female,12,2022_May_06_1145,Partial repeat,2021.2.3,59.89996732491174,
6,4,0,1,3,3,2,2,1,1,1,1,1,0,0,0,104,104,104,0,0,0,0,,,,,,,938.7230555005372,None,939.6801177989691,None,940.5946903992444,None,s,1,0.6820951998233795,940.5946903992444,None,None,None,,,,,,,12,24,female,12,2022_May_06_1145,Partial repeat,2021.2.3,59.89996732491174,
6,4,0,1,3,3,2,2,1,1,1,1,1,0,0,0,104,104,104,1,0,1,0,,,,,,,,,941.2987367995083,None,942.2303714994341,None,s,1,0.558415899053216,942.2303714994341,None,None,None,,,,,,,12,24,female,12,2022_May_06_1145,Partial repeat,2021.2.3,59.89996732491174,
6,4,0,1,3,3,2,2,1,1,1,1,1,0,0,0,104,104,104,,,,,,,,,,,,,,,,,,,,,,,,,,,,,,12,24,female,12,2022_May_06_1145,Partial repeat,2021.2.3,59.89996732491174,
7,1,0,1,3,2,2,2,1,1,0,1,1,0,0,0,105,105,105,0,0,0,0,,,,,,,942.811596300453,None,943.3038189001381,None,944.1345496997237,None,s,1,0.6861904002726078,944.1345496997237,None,None,None,,,,,,,12,24,female,12,2022_May_06_1145,Partial repeat,2021.2.3,59.89996732491174,
7,1,0,1,3,2,2,2,1,1,0,1,1,0,0,0,105,105,105,1,0,1,0,,,,,,,,,944.8373681996018,None,945.7372120004147,None,s,1,0.7076296005398035,945.7372120004147,None,None,None,,,,,,,12,24,female,12,2022_May_06_1145,Partial repeat,2021.2.3,59.89996732491174,
7,1,0,1,3,2,2,2,1,1,0,1,1,0,0,0,105,105,105,,,,,,,,,,,,,,,,,,,,,,,,,,,,,,12,24,female,12,2022_May_06_1145,Partial repeat,2021.2.3,59.89996732491174,
2,3,0,1,2,2,1,2,0,0,1,0,1,0,0,0,106,106,106,0,0,0,0,,,,,,,946.4658303987235,None,947.7458286993206,None,948.643059398979,None,l,1,0.6816773004829884,948.643059398979,None,None,None,,,,,,,12,24,female,12,2022_May_06_1145,Partial repeat,2021.2.3,59.89996732491174,
2,3,0,1,2,2,1,2,0,0,1,0,1,0,0,0,106,106,106,1,0,1,0,,,,,,,,,949.3487064987421,None,950.0794082004577,None,l,1,0.557361600920558,950.0794082004577,None,None,None,,,,,,,12,24,female,12,2022_May_06_1145,Partial repeat,2021.2.3,59.89996732491174,
2,3,0,1,2,2,1,2,0,0,1,0,1,0,0,0,106,106,106,,,,,,,,,,,,,,,,,,,,,,,,,,,,,,12,24,female,12,2022_May_06_1145,Partial repeat,2021.2.3,59.89996732491174,
3,8,0,1,3,2,1,2,1,1,0,0,1,0,0,0,107,107,107,0,0,0,0,,,,,,,950.6636461988091,None,951.3027483001351,None,952.2500595003366,None,s,1,0.6587035991251469,952.2500595003366,None,None,None,,,,,,,12,24,female,12,2022_May_06_1145,Partial repeat,2021.2.3,59.89996732491174,
3,8,0,1,3,2,1,2,1,1,0,0,1,0,0,0,107,107,107,1,0,1,0,,,,,,,,,952.9291075989604,None,953.9199986997992,None,s,1,0.6687627993524075,953.9199986997992,None,None,None,,,,,,,12,24,female,12,2022_May_06_1145,Partial repeat,2021.2.3,59.89996732491174,
3,8,0,1,3,2,1,2,1,1,0,0,1,0,0,0,107,107,107,,,,,,,,,,,,,,,,,,,,,,,,,,,,,,12,24,female,12,2022_May_06_1145,Partial repeat,2021.2.3,59.89996732491174,
4,1,0,1,2,2,2,2,0,1,1,1,0,0,0,0,108,108,108,0,0,0,0,,,,,,,954.615164399147,None,955.193591799587,None,955.9235443994403,None,l,1,0.7532645016908646,955.9235443994403,None,None,None,,,,,,,12,24,female,12,2022_May_06_1145,Partial repeat,2021.2.3,59.89996732491174,
4,1,0,1,2,2,2,2,0,1,1,1,0,0,0,0,108,108,108,1,0,1,0,,,,,,,,,956.7036448996514,None,957.7104409001768,None,s,1,0.6463187001645565,957.7104409001768,None,None,None,,,,,,,12,24,female,12,2022_May_06_1145,Partial repeat,2021.2.3,59.89996732491174,
4,1,0,1,2,2,2,2,0,1,1,1,0,0,0,0,108,108,108,,,,,,,,,,,,,,,,,,,,,,,,,,,,,,12,24,female,12,2022_May_06_1145,Partial repeat,2021.2.3,59.89996732491174,
2,1,0,1,3,3,2,2,1,0,1,1,0,0,0,0,109,109,109,0,0,0,0,,,,,,,958.3797383997589,None,959.2181917987764,None,960.0319007001817,None,s,1,0.6449110992252827,960.0319007001817,None,None,None,,,,,,,12,24,female,12,2022_May_06_1145,Partial repeat,2021.2.3,59.89996732491174,
2,1,0,1,3,3,2,2,1,0,1,1,0,0,0,0,109,109,109,1,0,1,0,,,,,,,,,960.6944273989648,None,961.5346214994788,None,l,1,0.614190399646759,961.5346214994788,None,None,None,,,,,,,12,24,female,12,2022_May_06_1145,Partial repeat,2021.2.3,59.89996732491174,
2,1,0,1,3,3,2,2,1,0,1,1,0,0,0,0,109,109,109,,,,,,,,,,,,,,,,,,,,,,,,,,,,,,12,24,female,12,2022_May_06_1145,Partial repeat,2021.2.3,59.89996732491174,
5,3,0,1,3,2,2,1,1,1,0,0,1,0,0,0,110,110,110,0,0,0,0,,,,,,,962.160587798804,None,962.9755009990185,None,963.8236189000309,None,s,1,0.661140700802207,963.8236189000309,None,None,None,,,,,,,12,24,female,12,2022_May_06_1145,Partial repeat,2021.2.3,59.89996732491174,
5,3,0,1,3,2,2,1,1,1,0,0,1,0,0,0,110,110,110,1,0,1,0,,,,,,,,,964.5076506994665,None,965.5258629005402,None,s,1,0.718962799757719,965.5258629005402,None,None,None,,,,,,,12,24,female,12,2022_May_06_1145,Partial repeat,2021.2.3,59.89996732491174,
5,3,0,1,3,2,2,1,1,1,0,0,1,0,0,0,110,110,110,,,,,,,,,,,,,,,,,,,,,,,,,,,,,,12,24,female,12,2022_May_06_1145,Partial repeat,2021.2.3,59.89996732491174,
1,1,0,1,2,3,2,2,0,1,0,1,0,0,0,0,111,111,111,0,0,0,0,,,,,,,966.2763793002814,None,968.0686955992132,None,968.899183999747,None,l,1,0.7615764997899532,968.899183999747,None,None,None,,,,,,,12,24,female,12,2022_May_06_1145,Partial repeat,2021.2.3,59.89996732491174,
1,1,0,1,2,3,2,2,0,1,0,1,0,0,0,0,111,111,111,1,0,1,0,,,,,,,,,969.6871140990406,None,970.6860655993223,None,s,1,1.1427851002663374,970.6860655993223,None,None,None,,,,,,,12,24,female,12,2022_May_06_1145,Partial repeat,2021.2.3,59.89996732491174,
1,1,0,1,2,3,2,2,0,1,0,1,0,0,0,0,111,111,111,,,,,,,,,,,,,,,,,,,,,,,,,,,,,,12,24,female,12,2022_May_06_1145,Partial repeat,2021.2.3,59.89996732491174,
1,3,0,1,2,3,2,1,0,0,0,0,1,0,0,0,112,112,112,0,0,0,0,,,,,,,971.841267298907,None,973.779855100438,None,974.6769014988095,None,l,1,0.6959722004830837,974.6769014988095,None,None,None,,,,,,,12,24,female,12,2022_May_06_1145,Partial repeat,2021.2.3,59.89996732491174,
1,3,0,1,2,3,2,1,0,0,0,0,1,0,0,0,112,112,112,1,0,1,0,,,,,,,,,975.3808775991201,None,976.1797758992761,None,l,1,1.1449686996638775,976.1797758992761,None,None,None,,,,,,,12,24,female,12,2022_May_06_1145,Partial repeat,2021.2.3,59.89996732491174,
1,3,0,1,2,3,2,1,0,0,0,0,1,0,0,0,112,112,112,,,,,,,,,,,,,,,,,,,,,,,,,,,,,,12,24,female,12,2022_May_06_1145,Partial repeat,2021.2.3,59.89996732491174,
5,6,0,1,3,2,1,1,1,1,0,1,1,0,0,0,113,113,113,0,0,0,0,,,,,,,977.344288399443,None,980.092021798715,None,981.0569601003081,None,s,1,0.6358380001038313,981.0569601003081,None,None,None,,,,,,,12,24,female,12,2022_May_06_1145,Partial repeat,2021.2.3,59.89996732491174,
5,6,0,1,3,2,1,1,1,1,0,1,1,0,0,0,113,113,113,1,0,1,0,,,,,,,,,981.7032412998378,None,982.6099695004523,None,s,1,0.7707922998815775,982.6099695004523,None,None,None,,,,,,,12,24,female,12,2022_May_06_1145,Partial repeat,2021.2.3,59.89996732491174,
5,6,0,1,3,2,1,1,1,1,0,1,1,0,0,0,113,113,113,,,,,,,,,,,,,,,,,,,,,,,,,,,,,,12,24,female,12,2022_May_06_1145,Partial repeat,2021.2.3,59.89996732491174,
4,8,0,1,3,2,1,1,0,1,0,1,0,0,0,0,114,114,114,0,0,0,0,,,,,,,983.3914000000805,None,984.5341053996235,None,985.5148138999939,None,l,1,0.9141055010259151,985.5148138999939,None,None,None,,,,,,,12,24,female,12,2022_May_06_1145,Partial repeat,2021.2.3,59.89996732491174,
4,8,0,1,3,2,1,1,0,1,0,1,0,0,0,0,114,114,114,1,0,1,0,,,,,,,,,986.438737699762,None,987.3683748003095,None,s,1,1.4123762995004654,987.3683748003095,None,None,None,,,,,,,12,24,female,12,2022_May_06_1145,Partial repeat,2021.2.3,59.89996732491174,
4,8,0,1,3,2,1,1,0,1,0,1,0,0,0,0,114,114,114,,,,,,,,,,,,,,,,,,,,,,,,,,,,,,12,24,female,12,2022_May_06_1145,Partial repeat,2021.2.3,59.89996732491174,
2,4,0,1,3,2,1,2,1,0,0,0,0,0,0,0,115,115,115,0,0,0,0,,,,,,,988.7997896987945,None,989.7943066004664,None,990.5244124997407,None,s,1,0.6884415987879038,990.5244124997407,None,None,None,,,,,,,12,24,female,12,2022_May_06_1145,Partial repeat,2021.2.3,59.89996732491174,
2,4,0,1,3,2,1,2,1,0,0,0,0,0,0,0,115,115,115,1,0,1,0,,,,,,,,,991.2227544989437,None,992.1778369992971,None,l,1,0.770924299955368,992.1778369992971,None,None,None,,,,,,,12,24,female,12,2022_May_06_1145,Partial repeat,2021.2.3,59.89996732491174,
2,4,0,1,3,2,1,2,1,0,0,0,0,0,0,0,115,115,115,,,,,,,,,,,,,,,,,,,,,,,,,,,,,,12,24,female,12,2022_May_06_1145,Partial repeat,2021.2.3,59.89996732491174,
3,5,0,1,2,3,2,2,1,0,0,1,0,0,0,0,116,116,116,0,0,0,0,,,,,,,992.9722508993,None,994.0358447991312,None,994.9497388992459,None,s,1,0.7590928003191948,994.9497388992459,None,None,None,,,,,,,12,24,female,12,2022_May_06_1145,Partial repeat,2021.2.3,59.89996732491174,
3,5,0,1,2,3,2,2,1,0,0,1,0,0,0,0,116,116,116,1,0,1,0,,,,,,,,,995.7360945995897,None,996.6863198000938,None,l,1,1.8784251995384693,996.6863198000938,None,None,None,,,,,,,12,24,female,12,2022_May_06_1145,Partial repeat,2021.2.3,59.89996732491174,
3,5,0,1,2,3,2,2,1,0,0,1,0,0,0,0,116,116,116,,,,,,,,,,,,,,,,,,,,,,,,,,,,,,12,24,female,12,2022_May_06_1145,Partial repeat,2021.2.3,59.89996732491174,
7,5,0,1,2,3,1,2,1,1,0,0,1,0,0,0,117,117,117,0,0,0,0,,,,,,,998.5795852988958,None,999.2960887998343,None,1000.3103277999908,None,s,1,1.0864627994596958,1000.3103277999908,None,None,None,,,,,,,12,24,female,12,2022_May_06_1145,Partial repeat,2021.2.3,59.89996732491174,
7,5,0,1,2,3,1,2,1,1,0,0,1,0,0,0,117,117,117,1,0,1,0,,,,,,,,,1001.4078863989562,None,1002.347624398768,None,s,1,1.5850913003087044,1002.347624398768,None,None,None,,,,,,,12,24,female,12,2022_May_06_1145,Partial repeat,2021.2.3,59.89996732491174,
7,5,0,1,2,3,1,2,1,1,0,0,1,0,0,0,117,117,117,,,,,,,,,,,,,,,,,,,,,,,,,,,,,,12,24,female,12,2022_May_06_1145,Partial repeat,2021.2.3,59.89996732491174,
8,8,0,1,3,3,2,2,0,0,1,1,1,0,0,0,118,118,118,0,0,0,0,,,,,,,1003.953107399866,None,1004.6565787997097,None,1005.470511900261,None,l,1,0.9582400992512703,1005.470511900261,None,None,None,,,,,,,12,24,female,12,2022_May_06_1145,Partial repeat,2021.2.3,59.89996732491174,
8,8,0,1,3,3,2,2,0,0,1,1,1,0,0,0,118,118,118,1,0,1,0,,,,,,,,,1006.4413254987448,None,1007.4240969996899,None,l,1,0.8206417001783848,1007.4240969996899,None,None,None,,,,,,,12,24,female,12,2022_May_06_1145,Partial repeat,2021.2.3,59.89996732491174,
8,8,0,1,3,3,2,2,0,0,1,1,1,0,0,0,118,118,118,,,,,,,,,,,,,,,,,,,,,,,,,,,,,,12,24,female,12,2022_May_06_1145,Partial repeat,2021.2.3,59.89996732491174,
4,6,0,1,2,3,1,2,1,0,0,0,0,0,0,0,119,119,119,0,0,0,0,,,,,,,1008.2624201998115,None,1009.2154389005154,None,1010.0122924000025,None,s,1,0.8004400990903378,1010.0122924000025,None,None,None,,,,,,,12,24,female,12,2022_May_06_1145,Partial repeat,2021.2.3,59.89996732491174,
4,6,0,1,2,3,1,2,1,0,0,0,0,0,0,0,119,119,119,1,0,1,0,,,,,,,,,1010.8382856994867,None,1011.7824418004602,None,l,1,1.4383524991571903,1011.7824418004602,None,None,None,,,,,,,12,24,female,12,2022_May_06_1145,Partial repeat,2021.2.3,59.89996732491174,
4,6,0,1,2,3,1,2,1,0,0,0,0,0,0,0,119,119,119,,,,,,,,,,,,,,,,,,,,,,,,,,,,,,12,24,female,12,2022_May_06_1145,Partial repeat,2021.2.3,59.89996732491174,
3,3,0,1,3,2,2,1,0,0,0,0,1,0,0,0,120,120,120,0,0,0,0,,,,,,,1013.2410329990089,None,1014.1416577994823,None,1014.9728960003704,None,l,1,0.7438728995621204,1014.9728960003704,None,None,None,,,,,,,12,24,female,12,2022_May_06_1145,Partial repeat,2021.2.3,59.89996732491174,
3,3,0,1,3,2,2,1,0,0,0,0,1,0,0,0,120,120,120,1,0,1,0,,,,,,,,,1015.7419968992472,None,1016.7255435995758,None,l,1,0.663196099922061,1016.7255435995758,None,None,None,,,,,,,12,24,female,12,2022_May_06_1145,Partial repeat,2021.2.3,59.89996732491174,
3,3,0,1,3,2,2,1,0,0,0,0,1,0,0,0,120,120,120,,,,,,,,,,,,,,,,,,,,,,,,,,,,,,12,24,female,12,2022_May_06_1145,Partial repeat,2021.2.3,59.89996732491174,
5,1,0,1,3,3,1,2,1,1,1,0,1,0,0,0,121,121,121,0,0,0,0,,,,,,,1017.413840899244,None,1018.7339411005378,None,1019.7148692999035,None,s,1,1.2018608003854752,1019.7148692999035,None,None,None,,,,,,,12,24,female,12,2022_May_06_1145,Partial repeat,2021.2.3,59.89996732491174,
5,1,0,1,3,3,1,2,1,1,1,0,1,0,0,0,121,121,121,1,0,1,0,,,,,,,,,1020.9430253002793,None,1021.818833399564,None,s,1,0.5938889011740685,1021.818833399564,None,None,None,,,,,,,12,24,female,12,2022_May_06_1145,Partial repeat,2021.2.3,59.89996732491174,
5,1,0,1,3,3,1,2,1,1,1,0,1,0,0,0,121,121,121,,,,,,,,,,,,,,,,,,,,,,,,,,,,,,12,24,female,12,2022_May_06_1145,Partial repeat,2021.2.3,59.89996732491174,
6,8,0,1,3,3,2,1,0,1,1,0,0,0,0,0,122,122,122,0,0,0,0,,,,,,,1022.4414715990424,None,1023.2761230003089,None,1024.190167998895,None,l,1,0.702555799856782,1024.190167998895,None,None,None,,,,,,,12,24,female,12,2022_May_06_1145,Partial repeat,2021.2.3,59.89996732491174,
6,8,0,1,3,3,2,1,0,1,1,0,0,0,0,0,122,122,122,1,0,1,0,,,,,,,,,1024.9080938994884,None,1025.642644898966,None,s,1,1.098090499639511,1025.642644898966,None,None,None,,,,,,,12,24,female,12,2022_May_06_1145,Partial repeat,2021.2.3,59.89996732491174,
6,8,0,1,3,3,2,1,0,1,1,0,0,0,0,0,122,122,122,,,,,,,,,,,,,,,,,,,,,,,,,,,,,,12,24,female,12,2022_May_06_1145,Partial repeat,2021.2.3,59.89996732491174,
2,7,0,1,2,3,1,2,0,1,0,0,0,0,0,0,123,123,123,0,0,0,0,,,,,,,1026.7710244003683,None,1027.4508020989597,None,1028.4481607992202,None,l,1,0.9165871012955904,1028.4481607992202,None,None,None,,,,,,,12,24,female,12,2022_May_06_1145,Partial repeat,2021.2.3,59.89996732491174,
2,7,0,1,2,3,1,2,0,1,0,0,0,0,0,0,123,123,123,1,0,1,0,,,,,,,,,1029.380683099851,None,1030.184822300449,None,s,1,0.9479073006659746,1030.184822300449,None,None,None,,,,,,,12,24,female,12,2022_May_06_1145,Partial repeat,2021.2.3,59.89996732491174,
2,7,0,1,2,3,1,2,0,1,0,0,0,0,0,0,123,123,123,,,,,,,,,,,,,,,,,,,,,,,,,,,,,,12,24,female,12,2022_May_06_1145,Partial repeat,2021.2.3,59.89996732491174,
1,2,0,1,2,3,1,1,0,0,0,1,1,0,0,0,124,124,124,0,0,0,0,,,,,,,1031.1475472003222,None,1031.9763810001314,None,1032.706450600177,None,l,1,0.7303229998797178,1032.706450600177,None,None,None,,,,,,,12,24,female,12,2022_May_06_1145,Partial repeat,2021.2.3,59.89996732491174,
1,2,0,1,2,3,1,1,0,0,0,1,1,0,0,0,124,124,124,1,0,1,0,,,,,,,,,1033.4481044001877,None,1034.3428479991853,None,l,1,0.9098834991455078,1034.3428479991853,None,None,None,,,,,,,12,24,female,12,2022_May_06_1145,Partial repeat,2021.2.3,59.89996732491174,
1,2,0,1,2,3,1,1,0,0,0,1,1,0,0,0,124,124,124,,,,,,,,,,,,,,,,,,,,,,,,,,,,,,12,24,female,12,2022_May_06_1145,Partial repeat,2021.2.3,59.89996732491174,
3,1,0,1,2,2,2,1,1,1,1,0,1,0,0,0,125,125,125,0,0,0,0,,,,,,,1035.2804179992527,None,1036.0008827988058,None,1036.8981069996953,None,s,1,0.7386226002126932,1036.8981069996953,None,None,None,,,,,,,12,24,female,12,2022_May_06_1145,Partial repeat,2021.2.3,59.89996732491174,
3,1,0,1,2,2,2,1,1,1,1,0,1,0,0,0,125,125,125,1,0,1,0,,,,,,,,,1037.663186300546,None,1038.4675769992173,None,s,1,0.7931539993733168,1038.4675769992173,None,None,None,,,,,,,12,24,female,12,2022_May_06_1145,Partial repeat,2021.2.3,59.89996732491174,
3,1,0,1,2,2,2,1,1,1,1,0,1,0,0,0,125,125,125,,,,,,,,,,,,,,,,,,,,,,,,,,,,,,12,24,female,12,2022_May_06_1145,Partial repeat,2021.2.3,59.89996732491174,
7,4,0,1,3,3,1,2,0,1,1,0,0,0,0,0,126,126,126,0,0,0,0,,,,,,,1039.2823042999953,None,1040.275847800076,None,1041.2231399994344,None,l,1,1.4538475014269352,1041.2231399994344,None,None,None,,,,,,,12,24,female,12,2022_May_06_1145,Partial repeat,2021.2.3,59.89996732491174,
7,4,0,1,3,3,1,2,0,1,1,0,0,0,0,0,126,126,126,1,0,1,0,,,,,,,,,1042.6866244990379,None,1043.4441943001002,None,s,1,1.0724983997642994,1043.4441943001002,None,None,None,,,,,,,12,24,female,12,2022_May_06_1145,Partial repeat,2021.2.3,59.89996732491174,
7,4,0,1,3,3,1,2,0,1,1,0,0,0,0,0,126,126,126,,,,,,,,,,,,,,,,,,,,,,,,,,,,,,12,24,female,12,2022_May_06_1145,Partial repeat,2021.2.3,59.89996732491174,
8,2,0,1,2,2,2,2,0,0,1,1,1,0,0,0,127,127,127,0,0,0,0,,,,,,,1044.534544698894,None,1045.6696747988462,None,1046.466756299138,None,l,1,1.249974699690938,1046.466756299138,None,None,None,,,,,,,12,24,female,12,2022_May_06_1145,Partial repeat,2021.2.3,59.89996732491174,
8,2,0,1,2,2,2,2,0,0,1,1,1,0,0,0,127,127,127,1,0,1,0,,,,,,,,,1047.73296030052,None,1048.7208859995008,None,l,1,2.5718901995569468,1048.7208859995008,None,None,None,,,,,,,12,24,female,12,2022_May_06_1145,Partial repeat,2021.2.3,59.89996732491174,
8,2,0,1,2,2,2,2,0,0,1,1,1,0,0,0,127,127,127,,,,,,,,,,,,,,,,,,,,,,,,,,,,,,12,24,female,12,2022_May_06_1145,Partial repeat,2021.2.3,59.89996732491174,
7,7,0,1,2,2,2,2,0,0,1,1,1,1,0,0,128,128,128,0,0,0,0,,,,,,,1057.6359748989344,None,1058.32765940018,None,1059.1078891996294,None,l,1,0.7608289998024702,1059.1078891996294,None,None,None,,,,,,,12,24,female,12,2022_May_06_1145,Partial repeat,2021.2.3,59.89996732491174,
7,7,0,1,2,2,2,2,0,0,1,1,1,1,0,0,128,128,128,1,0,1,0,,,,,,,,,1059.8840273004025,None,1060.8445183001459,None,l,1,0.5121782012283802,1060.8445183001459,None,None,None,,,,,,,12,24,female,12,2022_May_06_1145,Partial repeat,2021.2.3,59.89996732491174,
7,7,0,1,2,2,2,2,0,0,1,1,1,1,0,0,128,128,128,,,,,,,,,,,,,,,,,,,,,,,,,,,,,,12,24,female,12,2022_May_06_1145,Partial repeat,2021.2.3,59.89996732491174,
7,7,0,1,2,3,1,1,1,1,0,1,1,1,0,0,129,129,129,0,0,0,0,,,,,,,1061.3717573992908,None,1062.2686526998878,None,1063.1655959989876,None,s,1,0.8391856998205185,1063.1655959989876,None,None,None,,,,,,,12,24,female,12,2022_May_06_1145,Partial repeat,2021.2.3,59.89996732491174,
7,7,0,1,2,3,1,1,1,1,0,1,1,1,0,0,129,129,129,1,0,1,0,,,,,,,,,1064.0162621997297,None,1065.019526200369,None,s,1,0.4571791999042034,1065.019526200369,None,None,None,,,,,,,12,24,female,12,2022_May_06_1145,Partial repeat,2021.2.3,59.89996732491174,
7,7,0,1,2,3,1,1,1,1,0,1,1,1,0,0,129,129,129,,,,,,,,,,,,,,,,,,,,,,,,,,,,,,12,24,female,12,2022_May_06_1145,Partial repeat,2021.2.3,59.89996732491174,
7,7,0,1,3,2,2,1,1,1,0,0,1,1,0,0,130,130,130,0,0,0,0,,,,,,,1065.496010100469,None,1066.1261547002941,None,1067.0569828990847,None,s,1,0.5476954001933336,1067.0569828990847,None,None,None,,,,,,,12,24,female,12,2022_May_06_1145,Partial repeat,2021.2.3,59.89996732491174,
7,7,0,1,3,2,2,1,1,1,0,0,1,1,0,0,130,130,130,1,0,1,0,,,,,,,,,1067.6139479987323,None,1068.459499599412,None,s,1,0.4653680007904768,1068.459499599412,None,None,None,,,,,,,12,24,female,12,2022_May_06_1145,Partial repeat,2021.2.3,59.89996732491174,
7,7,0,1,3,2,2,1,1,1,0,0,1,1,0,0,130,130,130,,,,,,,,,,,,,,,,,,,,,,,,,,,,,,12,24,female,12,2022_May_06_1145,Partial repeat,2021.2.3,59.89996732491174,
7,7,0,1,3,2,1,2,0,0,0,0,1,1,0,0,131,131,131,0,0,0,0,,,,,,,1068.9366498999298,None,1069.5995307993144,None,1070.42977209948,None,l,1,0.6229082997888327,1070.42977209948,None,None,None,,,,,,,12,24,female,12,2022_May_06_1145,Partial repeat,2021.2.3,59.89996732491174,
7,7,0,1,3,2,1,2,0,0,0,0,1,1,0,0,131,131,131,1,0,1,0,,,,,,,,,1071.07001009956,None,1071.9661376997828,None,l,1,0.5746280997991562,1071.9661376997828,None,None,None,,,,,,,12,24,female,12,2022_May_06_1145,Partial repeat,2021.2.3,59.89996732491174,
7,7,0,1,3,2,1,2,0,0,0,0,1,1,0,0,131,131,131,,,,,,,,,,,,,,,,,,,,,,,,,,,,,,12,24,female,12,2022_May_06_1145,Partial repeat,2021.2.3,59.89996732491174,
7,7,0,1,2,3,1,1,1,0,0,1,0,1,0,0,132,132,132,0,0,0,0,,,,,,,1072.570770399645,None,1074.475712299347,None,1075.2892470993102,None,s,1,0.6755845006555319,1075.2892470993102,None,None,None,,,,,,,12,24,female,12,2022_May_06_1145,Partial repeat,2021.2.3,59.89996732491174,
7,7,0,1,2,3,1,1,1,0,0,1,0,1,0,0,132,132,132,1,0,1,0,,,,,,,,,1075.9928649999201,None,1076.775702899322,None,l,1,0.9890953991562128,1076.775702899322,None,None,None,,,,,,,12,24,female,12,2022_May_06_1145,Partial repeat,2021.2.3,59.89996732491174,
7,7,0,1,2,3,1,1,1,0,0,1,0,1,0,0,132,132,132,,,,,,,,,,,,,,,,,,,,,,,,,,,,,,12,24,female,12,2022_May_06_1145,Partial repeat,2021.2.3,59.89996732491174,
7,7,0,1,3,2,1,1,0,0,0,1,1,1,0,0,133,133,133,0,0,0,0,,,,,,,1077.7777800988406,None,1079.9697198998183,None,1080.7332410998642,None,l,1,0.6715527009218931,1080.7332410998642,None,None,None,,,,,,,12,24,female,12,2022_May_06_1145,Partial repeat,2021.2.3,59.89996732491174,
7,7,0,1,3,2,1,1,0,0,0,1,1,1,0,0,133,133,133,1,0,1,0,,,,,,,,,1081.4135209005326,None,1082.302923899144,None,l,1,0.6217822004109621,1082.302923899144,None,None,None,,,,,,,12,24,female,12,2022_May_06_1145,Partial repeat,2021.2.3,59.89996732491174,
7,7,0,1,3,2,1,1,0,0,0,1,1,1,0,0,133,133,133,,,,,,,,,,,,,,,,,,,,,,,,,,,,,,12,24,female,12,2022_May_06_1145,Partial repeat,2021.2.3,59.89996732491174,
7,7,0,1,2,2,2,2,0,1,1,1,0,1,0,0,134,134,134,0,0,0,0,,,,,,,1082.9506149999797,None,1084.0443740990013,None,1084.7577032987028,None,l,1,0.7030046992003918,1084.7577032987028,None,None,None,,,,,,,12,24,female,12,2022_May_06_1145,Partial repeat,2021.2.3,59.89996732491174,
7,7,0,1,2,2,2,2,0,1,1,1,0,1,0,0,134,134,134,1,0,1,0,,,,,,,,,1085.4813786000013,None,1086.4275959003717,None,s,1,0.6890815012156963,1086.4275959003717,None,None,None,,,,,,,12,24,female,12,2022_May_06_1145,Partial repeat,2021.2.3,59.89996732491174,
7,7,0,1,2,2,2,2,0,1,1,1,0,1,0,0,134,134,134,,,,,,,,,,,,,,,,,,,,,,,,,,,,,,12,24,female,12,2022_May_06_1145,Partial repeat,2021.2.3,59.89996732491174,
7,7,0,1,3,3,1,1,1,0,1,1,0,1,0,0,135,135,135,0,0,0,0,,,,,,,1087.134975899011,None,1088.0854745004326,None,1088.815776599571,None,s,1,0.7249206006526947,1088.815776599571,None,None,None,,,,,,,12,24,female,12,2022_May_06_1145,Partial repeat,2021.2.3,59.89996732491174,
7,7,0,1,3,3,1,1,1,0,1,1,0,1,0,0,135,135,135,1,0,1,0,,,,,,,,,1089.5604010000825,None,1090.368564799428,None,l,1,0.7241386007517576,1090.368564799428,None,None,None,,,,,,,12,24,female,12,2022_May_06_1145,Partial repeat,2021.2.3,59.89996732491174,
7,7,0,1,3,3,1,1,1,0,1,1,0,1,0,0,135,135,135,,,,,,,,,,,,,,,,,,,,,,,,,,,,,,12,24,female,12,2022_May_06_1145,Partial repeat,2021.2.3,59.89996732491174,
7,7,0,1,2,3,2,1,0,0,0,0,1,1,0,0,136,136,136,0,0,0,0,,,,,,,1091.1184716988355,None,1092.160124098882,None,1092.990622298792,None,l,1,0.6060375012457371,1092.990622298792,None,None,None,,,,,,,12,24,female,12,2022_May_06_1145,Partial repeat,2021.2.3,59.89996732491174,
7,7,0,1,2,3,2,1,0,0,0,0,1,1,0,0,136,136,136,1,0,1,0,,,,,,,,,1093.61098019965,None,1094.4101694002748,None,l,1,0.698674401268363,1094.4101694002748,None,None,None,,,,,,,12,24,female,12,2022_May_06_1145,Partial repeat,2021.2.3,59.89996732491174,
7,7,0,1,2,3,2,1,0,0,0,0,1,1,0,0,136,136,136,,,,,,,,,,,,,,,,,,,,,,,,,,,,,,12,24,female,12,2022_May_06_1145,Partial repeat,2021.2.3,59.89996732491174,
7,7,0,1,3,3,1,2,0,1,1,0,0,1,0,0,137,137,137,0,0,0,0,,,,,,,1095.1209913995117,None,1095.8673493992537,None,1096.8652774002403,None,l,1,0.7554184999316931,1096.8652774002403,None,None,None,,,,,,,12,24,female,12,2022_May_06_1145,Partial repeat,2021.2.3,59.89996732491174,
7,7,0,1,3,3,1,2,0,1,1,0,0,1,0,0,137,137,137,1,0,1,0,,,,,,,,,1097.628938999027,None,1098.417742298916,None,s,1,0.5869584996253252,1098.417742298916,None,None,None,,,,,,,12,24,female,12,2022_May_06_1145,Partial repeat,2021.2.3,59.89996732491174,
7,7,0,1,3,3,1,2,0,1,1,0,0,1,0,0,137,137,137,,,,,,,,,,,,,,,,,,,,,,,,,,,,,,12,24,female,12,2022_May_06_1145,Partial repeat,2021.2.3,59.89996732491174,
7,7,0,1,2,2,2,1,0,0,1,0,1,1,0,0,138,138,138,0,0,0,0,,,,,,,1099.0254369992763,None,1099.8083468992263,None,1100.5386158004403,None,l,1,0.834061099216342,1100.5386158004403,None,None,None,,,,,,,12,24,female,12,2022_May_06_1145,Partial repeat,2021.2.3,59.89996732491174,
7,7,0,1,2,2,2,1,0,0,1,0,1,1,0,0,138,138,138,1,0,1,0,,,,,,,,,1101.384836299345,None,1102.3920974005014,None,l,1,0.6926004998385906,1102.3920974005014,None,None,None,,,,,,,12,24,female,12,2022_May_06_1145,Partial repeat,2021.2.3,59.89996732491174,
7,7,0,1,2,2,2,1,0,0,1,0,1,1,0,0,138,138,138,,,,,,,,,,,,,,,,,,,,,,,,,,,,,,12,24,female,12,2022_May_06_1145,Partial repeat,2021.2.3,59.89996732491174,
7,7,0,1,2,3,2,2,1,0,0,1,0,1,0,0,139,139,139,0,0,0,0,,,,,,,1103.1041847001761,None,1103.9497221987695,None,1104.897924900055,None,s,1,0.9547432009130716,1104.897924900055,None,None,None,,,,,,,12,24,female,12,2022_May_06_1145,Partial repeat,2021.2.3,59.89996732491174,
7,7,0,1,2,3,2,2,1,0,0,1,0,1,0,0,139,139,139,1,0,1,0,,,,,,,,,1105.8753215987235,None,1106.833749199286,None,l,1,0.7069373000413179,1106.833749199286,None,None,None,,,,,,,12,24,female,12,2022_May_06_1145,Partial repeat,2021.2.3,59.89996732491174,
7,7,0,1,2,3,2,2,1,0,0,1,0,1,0,0,139,139,139,,,,,,,,,,,,,,,,,,,,,,,,,,,,,,12,24,female,12,2022_May_06_1145,Partial repeat,2021.2.3,59.89996732491174,
7,7,0,1,2,3,1,1,0,0,0,1,1,1,0,0,140,140,140,0,0,0,0,,,,,,,1107.5647931993008,None,1108.291513999924,None,1109.0390868000686,None,l,1,0.6696204002946615,1109.0390868000686,None,None,None,,,,,,,12,24,female,12,2022_May_06_1145,Partial repeat,2021.2.3,59.89996732491174,
7,7,0,1,2,3,1,1,0,0,0,1,1,1,0,0,140,140,140,1,0,1,0,,,,,,,,,1109.7203474994749,None,1110.691458299756,None,l,1,0.5772273000329733,1110.691458299756,None,None,None,,,,,,,12,24,female,12,2022_May_06_1145,Partial repeat,2021.2.3,59.89996732491174,
7,7,0,1,2,3,1,1,0,0,0,1,1,1,0,0,140,140,140,,,,,,,,,,,,,,,,,,,,,,,,,,,,,,12,24,female,12,2022_May_06_1145,Partial repeat,2021.2.3,59.89996732491174,
7,7,0,1,3,2,2,2,1,1,0,1,1,1,0,0,141,141,141,0,0,0,0,,,,,,,1111.2931948993355,None,1112.0487945005298,None,1112.9292190000415,None,s,1,0.6275332998484373,1112.9292190000415,None,None,None,,,,,,,12,24,female,12,2022_May_06_1145,Partial repeat,2021.2.3,59.89996732491174,
7,7,0,1,3,2,2,2,1,1,0,1,1,1,0,0,141,141,141,1,0,1,0,,,,,,,,,1113.5684626996517,None,1114.3328058999032,None,s,1,0.6558855008333921,1114.3328058999032,None,None,None,,,,,,,12,24,female,12,2022_May_06_1145,Partial repeat,2021.2.3,59.89996732491174,
7,7,0,1,3,2,2,2,1,1,0,1,1,1,0,0,141,141,141,,,,,,,,,,,,,,,,,,,,,,,,,,,,,,12,24,female,12,2022_May_06_1145,Partial repeat,2021.2.3,59.89996732491174,
7,7,0,1,2,2,2,1,1,1,1,0,1,1,0,0,142,142,142,0,0,0,0,,,,,,,1115.016813999042,None,1115.6558381002396,None,1116.4030037000775,None,s,1,0.6897286996245384,1116.4030037000775,None,None,None,,,,,,,12,24,female,12,2022_May_06_1145,Partial repeat,2021.2.3,59.89996732491174,
7,7,0,1,2,2,2,1,1,1,1,0,1,1,0,0,142,142,142,1,0,1,0,,,,,,,,,1117.1048601996154,None,1117.9889104999602,None,s,1,0.4717838987708092,1117.9889104999602,None,None,None,,,,,,,12,24,female,12,2022_May_06_1145,Partial repeat,2021.2.3,59.89996732491174,
7,7,0,1,2,2,2,1,1,1,1,0,1,1,0,0,142,142,142,,,,,,,,,,,,,,,,,,,,,,,,,,,,,,12,24,female,12,2022_May_06_1145,Partial repeat,2021.2.3,59.89996732491174,
7,7,0,1,3,2,1,1,1,0,0,1,0,1,0,0,143,143,143,0,0,0,0,,,,,,,1118.4814755991101,None,1119.5300396997482,None,1120.27680850029,None,s,1,0.6559088006615639,1120.27680850029,None,None,None,,,,,,,12,24,female,12,2022_May_06_1145,Partial repeat,2021.2.3,59.89996732491174,
7,7,0,1,3,2,1,1,1,0,0,1,0,1,0,0,143,143,143,1,0,1,0,,,,,,,,,1120.9568582996726,None,1121.6963141988963,None,l,1,0.740412101149559,1121.6963141988963,None,None,None,,,,,,,12,24,female,12,2022_May_06_1145,Partial repeat,2021.2.3,59.89996732491174,
7,7,0,1,3,2,1,1,1,0,0,1,0,1,0,0,143,143,143,,,,,,,,,,,,,,,,,,,,,,,,,,,,,,12,24,female,12,2022_May_06_1145,Partial repeat,2021.2.3,59.89996732491174,
7,7,0,1,3,3,2,1,1,0,1,0,0,1,0,0,144,144,144,0,0,0,0,,,,,,,1122.4486098997295,None,1123.654690399766,None,1124.5517318993807,None,s,1,1.0129518005996943,1124.5517318993807,None,None,None,,,,,,,12,24,female,12,2022_May_06_1145,Partial repeat,2021.2.3,59.89996732491174,
7,7,0,1,3,3,2,1,1,0,1,0,0,1,0,0,144,144,144,1,0,1,0,,,,,,,,,1125.5830044988543,None,1126.5738586001098,None,l,1,0.9028326999396086,1126.5738586001098,None,None,None,,,,,,,12,24,female,12,2022_May_06_1145,Partial repeat,2021.2.3,59.89996732491174,
7,7,0,1,3,3,2,1,1,0,1,0,0,1,0,0,144,144,144,,,,,,,,,,,,,,,,,,,,,,,,,,,,,,12,24,female,12,2022_May_06_1145,Partial repeat,2021.2.3,59.89996732491174,
7,7,0,1,3,2,2,2,1,0,0,1,0,1,0,0,145,145,145,0,0,0,0,,,,,,,1127.5029131993651,None,1128.4473877996206,None,1129.3443838004023,None,s,1,0.8602882996201515,1129.3443838004023,None,None,None,,,,,,,12,24,female,12,2022_May_06_1145,Partial repeat,2021.2.3,59.89996732491174,
7,7,0,1,3,2,2,2,1,0,0,1,0,1,0,0,145,145,145,1,0,1,0,,,,,,,,,1130.2176878992468,None,1131.1650345996022,None,l,1,1.1276763007044792,1131.1650345996022,None,None,None,,,,,,,12,24,female,12,2022_May_06_1145,Partial repeat,2021.2.3,59.89996732491174,
7,7,0,1,3,2,2,2,1,0,0,1,0,1,0,0,145,145,145,,,,,,,,,,,,,,,,,,,,,,,,,,,,,,12,24,female,12,2022_May_06_1145,Partial repeat,2021.2.3,59.89996732491174,
7,7,0,1,2,2,1,1,0,0,1,1,1,1,0,0,146,146,146,0,0,0,0,,,,,,,1132.3032224997878,None,1133.3903703987598,None,1134.3042775001377,None,l,1,0.6444078013300896,1134.3042775001377,None,None,None,,,,,,,12,24,female,12,2022_May_06_1145,Partial repeat,2021.2.3,59.89996732491174,
7,7,0,1,2,2,1,1,0,0,1,1,1,1,0,0,146,146,146,1,0,1,0,,,,,,,,,1134.9674600996077,None,1135.8570341989398,None,l,1,0.6116941012442112,1135.8570341989398,None,None,None,,,,,,,12,24,female,12,2022_May_06_1145,Partial repeat,2021.2.3,59.89996732491174,
7,7,0,1,2,2,1,1,0,0,1,1,1,1,0,0,146,146,146,,,,,,,,,,,,,,,,,,,,,,,,,,,,,,12,24,female,12,2022_May_06_1145,Partial repeat,2021.2.3,59.89996732491174,
7,7,0,1,3,2,1,2,0,1,0,0,0,1,0,0,147,147,147,0,0,0,0,,,,,,,1136.4799667987972,None,1137.5648117996752,None,1138.3121352996677,None,l,1,0.6284778993576765,1138.3121352996677,None,None,None,,,,,,,12,24,female,12,2022_May_06_1145,Partial repeat,2021.2.3,59.89996732491174,
7,7,0,1,3,2,1,2,0,1,0,0,0,1,0,0,147,147,147,1,0,1,0,,,,,,,,,1138.9519474003464,None,1139.8315466996282,None,s,1,0.6851428002119064,1139.8315466996282,None,None,None,,,,,,,12,24,female,12,2022_May_06_1145,Partial repeat,2021.2.3,59.89996732491174,
7,7,0,1,3,2,1,2,0,1,0,0,0,1,0,0,147,147,147,,,,,,,,,,,,,,,,,,,,,,,,,,,,,,12,24,female,12,2022_May_06_1145,Partial repeat,2021.2.3,59.89996732491174,
7,7,0,1,3,2,2,2,0,1,0,1,0,1,0,0,148,148,148,0,0,0,0,,,,,,,1140.5430123992264,None,1141.439328700304,None,1142.4199241995811,None,l,1,1.1448106989264488,1142.4199241995811,None,None,None,,,,,,,12,24,female,12,2022_May_06_1145,Partial repeat,2021.2.3,59.89996732491174,
7,7,0,1,3,2,2,2,0,1,0,1,0,1,0,0,148,148,148,1,0,1,0,,,,,,,,,1143.5865257997066,None,1144.557453399524,None,s,1,0.5752199999988079,1144.557453399524,None,None,None,,,,,,,12,24,female,12,2022_May_06_1145,Partial repeat,2021.2.3,59.89996732491174,
7,7,0,1,3,2,2,2,0,1,0,1,0,1,0,0,148,148,148,,,,,,,,,,,,,,,,,,,,,,,,,,,,,,12,24,female,12,2022_May_06_1145,Partial repeat,2021.2.3,59.89996732491174,
7,7,0,1,2,3,2,1,1,0,0,0,0,1,0,0,149,149,149,0,0,0,0,,,,,,,1145.1500921994448,None,1145.9481028988957,None,1146.711524600163,None,s,1,0.7491479013115168,1146.711524600163,None,None,None,,,,,,,12,24,female,12,2022_May_06_1145,Partial repeat,2021.2.3,59.89996732491174,
7,7,0,1,2,3,2,1,1,0,0,0,0,1,0,0,149,149,149,1,0,1,0,,,,,,,,,1147.4789581988007,None,1148.4816730991006,None,l,1,1.3869872000068426,1148.4816730991006,None,None,None,,,,,,,12,24,female,12,2022_May_06_1145,Partial repeat,2021.2.3,59.89996732491174,
7,7,0,1,2,3,2,1,1,0,0,0,0,1,0,0,149,149,149,,,,,,,,,,,,,,,,,,,,,,,,,,,,,,12,24,female,12,2022_May_06_1145,Partial repeat,2021.2.3,59.89996732491174,
7,7,0,1,3,3,1,1,0,1,1,1,0,1,0,0,150,150,150,0,0,0,0,,,,,,,1149.8817042987794,None,1150.740657299757,None,1151.6049477998167,None,l,1,1.2797193005681038,1151.6049477998167,None,None,None,,,,,,,12,24,female,12,2022_May_06_1145,Partial repeat,2021.2.3,59.89996732491174,
7,7,0,1,3,3,1,1,0,1,1,1,0,1,0,0,150,150,150,1,0,1,0,,,,,,,,,1152.9078870993108,None,1153.8933540005237,None,s,1,0.9513527005910873,1153.8933540005237,None,None,None,,,,,,,12,24,female,12,2022_May_06_1145,Partial repeat,2021.2.3,59.89996732491174,
7,7,0,1,3,3,1,1,0,1,1,1,0,1,0,0,150,150,150,,,,,,,,,,,,,,,,,,,,,,,,,,,,,,12,24,female,12,2022_May_06_1145,Partial repeat,2021.2.3,59.89996732491174,
7,7,0,1,3,3,2,2,0,1,1,1,0,1,0,0,151,151,151,0,0,0,0,,,,,,,1154.8559491988271,None,1156.0677757002413,None,1156.93177369982,None,l,1,0.7928933016955853,1156.93177369982,None,None,None,,,,,,,12,24,female,12,2022_May_06_1145,Partial repeat,2021.2.3,59.89996732491174,
