prime_tar_pos,probe_tar_pos,dimension,tar_color,prime_dist_color,probe_dist_color,prime_dist_shape,probe_dist_shape,prime_tar_dot_pos,probe_tar_dot_pos,col_rep,shape_rep,resp_rep,pos_fixed,sparse,MainLoop.thisRepN,MainLoop.thisTrialN,MainLoop.thisN,MainLoop.thisIndex,PrimeProbe.thisRepN,PrimeProbe.thisTrialN,PrimeProbe.thisN,PrimeProbe.thisIndex,Instruction.started,Instruction.stopped,instruction_key.keys,instruction_key.rt,instruction_key.started,instruction_key.stopped,PairStartText.started,PairStartText.stopped,FixCross.started,FixCross.stopped,SearchFixCross.started,SearchFixCross.stopped,key_resp.keys,key_resp.corr,key_resp.rt,key_resp.started,key_resp.stopped,feedback_text.started,feedback_text.stopped,text_finish.started,text_finish.stopped,finish_key.keys,finish_key.rt,finish_key.started,finish_key.stopped,participant,age,gender,group,date,expName,psychopyVersion,frameRate,
,,,,,,,,,,,,,,,,,,,,,,,610.0193033013493,None,space,39.778987200930715,610.0193033013493,None,,,,,,,,,,,,,,,,,,,,13,21,female,13,2022_May_06_1258,Partial repeat,2021.2.3,59.90050532590536,
6,3,0,1,2,3,1,1,1,0,0,1,0,0,0,0,0,0,0,0,0,0,0,,,,,,,649.91340040043,None,653.590701000765,None,654.3377884998918,None,s,1,0.9245357997715473,654.3377884998918,None,None,None,,,,,,,13,21,female,13,2022_May_06_1258,Partial repeat,2021.2.3,59.90050532590536,
6,3,0,1,2,3,1,1,1,0,0,1,0,0,0,0,0,0,0,1,0,1,0,,,,,,,,,655.2803215011954,None,656.0580171011388,None,l,1,0.7242539003491402,656.0580171011388,None,None,None,,,,,,,13,21,female,13,2022_May_06_1258,Partial repeat,2021.2.3,59.90050532590536,
6,3,0,1,2,3,1,1,1,0,0,1,0,0,0,0,0,0,0,,,,,,,,,,,,,,,,,,,,,,,,,,,,,,13,21,female,13,2022_May_06_1258,Partial repeat,2021.2.3,59.90050532590536,
1,2,0,1,2,2,1,2,1,1,1,0,1,0,0,0,1,1,1,0,0,0,0,,,,,,,656.8011760003865,None,659.3351940009743,None,660.1837416999042,None,s,1,0.6865392997860909,660.1837416999042,None,None,None,,,,,,,13,21,female,13,2022_May_06_1258,Partial repeat,2021.2.3,59.90050532590536,
1,2,0,1,2,2,1,2,1,1,1,0,1,0,0,0,1,1,1,1,0,1,0,,,,,,,,,660.8904741015285,None,661.7692290004343,None,s,1,0.6051013991236687,661.7692290004343,None,None,None,,,,,,,13,21,female,13,2022_May_06_1258,Partial repeat,2021.2.3,59.90050532590536,
1,2,0,1,2,2,1,2,1,1,1,0,1,0,0,0,1,1,1,,,,,,,,,,,,,,,,,,,,,,,,,,,,,,13,21,female,13,2022_May_06_1258,Partial repeat,2021.2.3,59.90050532590536,
5,6,0,1,2,3,2,2,1,1,0,1,1,0,0,0,2,2,2,0,0,0,0,,,,,,,662.4028297010809,None,663.7939017005265,None,664.524979300797,None,s,1,0.6092371996492147,664.524979300797,None,None,None,,,,,,,13,21,female,13,2022_May_06_1258,Partial repeat,2021.2.3,59.90050532590536,
5,6,0,1,2,3,2,2,1,1,0,1,1,0,0,0,2,2,2,1,0,1,0,,,,,,,,,665.147327400744,None,665.9610816016793,None,s,1,0.5812306012958288,665.9610816016793,None,None,None,,,,,,,13,21,female,13,2022_May_06_1258,Partial repeat,2021.2.3,59.90050532590536,
5,6,0,1,2,3,2,2,1,1,0,1,1,0,0,0,2,2,2,,,,,,,,,,,,,,,,,,,,,,,,,,,,,,13,21,female,13,2022_May_06_1258,Partial repeat,2021.2.3,59.90050532590536,
7,1,0,1,3,3,1,2,0,0,1,0,1,0,0,0,3,3,3,0,0,0,0,,,,,,,666.5526983998716,None,668.1857797000557,None,669.0161041002721,None,l,1,0.5982130002230406,669.0161041002721,None,None,None,,,,,,,13,21,female,13,2022_May_06_1258,Partial repeat,2021.2.3,59.90050532590536,
7,1,0,1,3,3,1,2,0,0,1,0,1,0,0,0,3,3,3,1,0,1,0,,,,,,,,,669.6415738016367,None,670.6539852004498,None,l,1,0.496280400082469,670.6539852004498,None,None,None,,,,,,,13,21,female,13,2022_May_06_1258,Partial repeat,2021.2.3,59.90050532590536,
7,1,0,1,3,3,1,2,0,0,1,0,1,0,0,0,3,3,3,,,,,,,,,,,,,,,,,,,,,,,,,,,,,,13,21,female,13,2022_May_06_1258,Partial repeat,2021.2.3,59.90050532590536,
7,6,0,1,2,2,2,2,0,1,1,1,0,0,0,0,4,4,4,0,0,0,0,,,,,,,671.1753535009921,None,672.2436850015074,None,673.0411844998598,None,l,1,0.7090924996882677,673.0411844998598,None,None,None,,,,,,,13,21,female,13,2022_May_06_1258,Partial repeat,2021.2.3,59.90050532590536,
7,6,0,1,2,2,2,2,0,1,1,1,0,0,0,0,4,4,4,1,0,1,0,,,,,,,,,673.7753261011094,None,674.5782294999808,None,s,1,0.564045500010252,674.5782294999808,None,None,None,,,,,,,13,21,female,13,2022_May_06_1258,Partial repeat,2021.2.3,59.90050532590536,
7,6,0,1,2,2,2,2,0,1,1,1,0,0,0,0,4,4,4,,,,,,,,,,,,,,,,,,,,,,,,,,,,,,13,21,female,13,2022_May_06_1258,Partial repeat,2021.2.3,59.90050532590536,
1,3,0,1,2,2,1,2,1,0,1,0,0,0,0,0,5,5,5,0,0,0,0,,,,,,,675.1671817004681,None,676.4518645014614,None,677.3834688998759,None,s,1,0.6068045012652874,677.3834688998759,None,None,None,,,,,,,13,21,female,13,2022_May_06_1258,Partial repeat,2021.2.3,59.90050532590536,
1,3,0,1,2,2,1,2,1,0,1,0,0,0,0,0,5,5,5,1,0,1,0,,,,,,,,,678.0103076007217,None,678.9520656000823,None,l,1,0.4782413002103567,678.9520656000823,None,None,None,,,,,,,13,21,female,13,2022_May_06_1258,Partial repeat,2021.2.3,59.90050532590536,
1,3,0,1,2,2,1,2,1,0,1,0,0,0,0,0,5,5,5,,,,,,,,,,,,,,,,,,,,,,,,,,,,,,13,21,female,13,2022_May_06_1258,Partial repeat,2021.2.3,59.90050532590536,
5,7,0,1,2,3,2,2,0,1,0,1,0,0,0,0,6,6,6,0,0,0,0,,,,,,,679.4555243998766,None,680.4095671009272,None,681.3411853015423,None,l,1,0.5771244987845421,681.3411853015423,None,None,None,,,,,,,13,21,female,13,2022_May_06_1258,Partial repeat,2021.2.3,59.90050532590536,
5,7,0,1,2,3,2,2,0,1,0,1,0,0,0,0,6,6,6,1,0,1,0,,,,,,,,,681.9455348011106,None,682.7097173016518,None,s,1,0.6485721990466118,682.7097173016518,None,None,None,,,,,,,13,21,female,13,2022_May_06_1258,Partial repeat,2021.2.3,59.90050532590536,
5,7,0,1,2,3,2,2,0,1,0,1,0,0,0,0,6,6,6,,,,,,,,,,,,,,,,,,,,,,,,,,,,,,13,21,female,13,2022_May_06_1258,Partial repeat,2021.2.3,59.90050532590536,
5,4,0,1,2,3,1,2,1,1,0,0,1,0,0,0,7,7,7,0,0,0,0,,,,,,,683.3818941004574,None,684.3505754005164,None,685.1310786008835,None,s,1,0.5312510002404451,685.1310786008835,None,None,None,,,,,,,13,21,female,13,2022_May_06_1258,Partial repeat,2021.2.3,59.90050532590536,
5,4,0,1,2,3,1,2,1,1,0,0,1,0,0,0,7,7,7,1,0,1,0,,,,,,,,,685.6703995000571,None,686.4682723004371,None,l,0,0.45797269977629185,686.4682723004371,None,686.9428225010633,None,,,,,,,13,21,female,13,2022_May_06_1258,Partial repeat,2021.2.3,59.90050532590536,
5,4,0,1,2,3,1,2,1,1,0,0,1,0,0,0,7,7,7,,,,,,,,,,,,,,,,,,,,,,,,,,,,,,13,21,female,13,2022_May_06_1258,Partial repeat,2021.2.3,59.90050532590536,
6,2,0,1,3,3,2,1,1,1,1,0,1,0,0,0,8,8,8,0,0,0,0,,,,,,,687.4566264003515,None,688.3917561005801,None,689.3901275005192,None,s,1,0.4641610011458397,689.3901275005192,None,None,None,,,,,,,13,21,female,13,2022_May_06_1258,Partial repeat,2021.2.3,59.90050532590536,
6,2,0,1,3,3,2,1,1,1,1,0,1,0,0,0,8,8,8,1,0,1,0,,,,,,,,,689.8763921000063,None,690.6919466014951,None,s,1,0.5383279006928205,690.6919466014951,None,None,None,,,,,,,13,21,female,13,2022_May_06_1258,Partial repeat,2021.2.3,59.90050532590536,
6,2,0,1,3,3,2,1,1,1,1,0,1,0,0,0,8,8,8,,,,,,,,,,,,,,,,,,,,,,,,,,,,,,13,21,female,13,2022_May_06_1258,Partial repeat,2021.2.3,59.90050532590536,
7,4,0,1,3,2,1,1,1,1,0,1,1,0,0,0,9,9,9,0,0,0,0,,,,,,,691.2563773002476,None,692.6166383009404,None,693.3310538008809,None,s,1,0.4673091992735863,693.3310538008809,None,None,None,,,,,,,13,21,female,13,2022_May_06_1258,Partial repeat,2021.2.3,59.90050532590536,
7,4,0,1,3,2,1,1,1,1,0,1,1,0,0,0,9,9,9,1,0,1,0,,,,,,,,,693.8078345004469,None,694.6506160013378,None,s,1,0.5636845994740725,694.6506160013378,None,None,None,,,,,,,13,21,female,13,2022_May_06_1258,Partial repeat,2021.2.3,59.90050532590536,
7,4,0,1,3,2,1,1,1,1,0,1,1,0,0,0,9,9,9,,,,,,,,,,,,,,,,,,,,,,,,,,,,,,13,21,female,13,2022_May_06_1258,Partial repeat,2021.2.3,59.90050532590536,
8,3,0,1,3,3,2,2,1,1,1,1,1,0,0,0,10,10,10,0,0,0,0,,,,,,,695.2371343001723,None,696.1067727003247,None,696.8376999013126,None,s,1,0.4885206017643213,696.8376999013126,None,None,None,,,,,,,13,21,female,13,2022_May_06_1258,Partial repeat,2021.2.3,59.90050532590536,
8,3,0,1,3,3,2,2,1,1,1,1,1,0,0,0,10,10,10,1,0,1,0,,,,,,,,,697.3398481011391,None,698.1396441012621,None,s,1,0.5385748017579317,698.1396441012621,None,None,None,,,,,,,13,21,female,13,2022_May_06_1258,Partial repeat,2021.2.3,59.90050532590536,
8,3,0,1,3,3,2,2,1,1,1,1,1,0,0,0,10,10,10,,,,,,,,,,,,,,,,,,,,,,,,,,,,,,13,21,female,13,2022_May_06_1258,Partial repeat,2021.2.3,59.90050532590536,
4,6,0,1,3,3,2,2,0,0,1,1,1,0,0,0,11,11,11,0,0,0,0,,,,,,,698.7026262003928,None,699.4131851010025,None,700.3948476016521,None,l,1,0.7394243013113737,700.3948476016521,None,None,None,,,,,,,13,21,female,13,2022_May_06_1258,Partial repeat,2021.2.3,59.90050532590536,
4,6,0,1,3,3,2,2,0,0,1,1,1,0,0,0,11,11,11,1,0,1,0,,,,,,,,,701.1487548016012,None,701.9802027009428,None,l,1,0.6580193992704153,701.9802027009428,None,None,None,,,,,,,13,21,female,13,2022_May_06_1258,Partial repeat,2021.2.3,59.90050532590536,
4,6,0,1,3,3,2,2,0,0,1,1,1,0,0,0,11,11,11,,,,,,,,,,,,,,,,,,,,,,,,,,,,,,13,21,female,13,2022_May_06_1258,Partial repeat,2021.2.3,59.90050532590536,
5,3,0,1,3,3,1,1,0,0,1,1,1,0,0,0,12,12,12,0,0,0,0,,,,,,,702.655157301575,None,703.638098301366,None,704.3849076014012,None,l,1,0.5253630988299847,704.3849076014012,None,None,None,,,,,,,13,21,female,13,2022_May_06_1258,Partial repeat,2021.2.3,59.90050532590536,
5,3,0,1,3,3,1,1,0,0,1,1,1,0,0,0,12,12,12,1,0,1,0,,,,,,,,,704.9236885011196,None,705.7552951015532,None,s,0,0.5870161987841129,705.7552951015532,None,706.3637305013835,None,,,,,,,13,21,female,13,2022_May_06_1258,Partial repeat,2021.2.3,59.90050532590536,
5,3,0,1,3,3,1,1,0,0,1,1,1,0,0,0,12,12,12,,,,,,,,,,,,,,,,,,,,,,,,,,,,,,13,21,female,13,2022_May_06_1258,Partial repeat,2021.2.3,59.90050532590536,
1,5,0,1,2,2,2,2,0,0,1,1,1,0,0,0,13,13,13,0,0,0,0,,,,,,,706.8777809999883,None,708.3305528014898,None,709.3449500016868,None,l,1,0.5173134002834558,709.3449500016868,None,None,None,,,,,,,13,21,female,13,2022_May_06_1258,Partial repeat,2021.2.3,59.90050532590536,
1,5,0,1,2,2,2,2,0,0,1,1,1,0,0,0,13,13,13,1,0,1,0,,,,,,,,,709.8832634016871,None,710.864370400086,None,l,1,0.501910800114274,710.864370400086,None,None,None,,,,,,,13,21,female,13,2022_May_06_1258,Partial repeat,2021.2.3,59.90050532590536,
1,5,0,1,2,2,2,2,0,0,1,1,1,0,0,0,13,13,13,,,,,,,,,,,,,,,,,,,,,,,,,,,,,,13,21,female,13,2022_May_06_1258,Partial repeat,2021.2.3,59.90050532590536,
7,8,0,1,2,2,1,1,1,1,1,1,1,0,0,0,14,14,14,0,0,0,0,,,,,,,711.3889095000923,None,712.6389490999281,None,713.4027970004827,None,s,1,0.7715622000396252,713.4027970004827,None,None,None,,,,,,,13,21,female,13,2022_May_06_1258,Partial repeat,2021.2.3,59.90050532590536,
7,8,0,1,2,2,1,1,1,1,1,1,1,0,0,0,14,14,14,1,0,1,0,,,,,,,,,714.1846047006547,None,715.0392639003694,None,s,1,0.5270083006471395,715.0392639003694,None,None,None,,,,,,,13,21,female,13,2022_May_06_1258,Partial repeat,2021.2.3,59.90050532590536,
7,8,0,1,2,2,1,1,1,1,1,1,1,0,0,0,14,14,14,,,,,,,,,,,,,,,,,,,,,,,,,,,,,,13,21,female,13,2022_May_06_1258,Partial repeat,2021.2.3,59.90050532590536,
6,5,0,1,3,3,1,1,1,0,1,1,0,0,0,0,15,15,15,0,0,0,0,,,,,,,715.5851424001157,None,717.5818665008992,None,718.5625018011779,None,s,1,0.5478185005486012,718.5625018011779,None,None,None,,,,,,,13,21,female,13,2022_May_06_1258,Partial repeat,2021.2.3,59.90050532590536,
6,5,0,1,3,3,1,1,1,0,1,1,0,0,0,0,15,15,15,1,0,1,0,,,,,,,,,719.1216493006796,None,719.8985699005425,None,l,1,0.6437874995172024,719.8985699005425,None,None,None,,,,,,,13,21,female,13,2022_May_06_1258,Partial repeat,2021.2.3,59.90050532590536,
6,5,0,1,3,3,1,1,1,0,1,1,0,0,0,0,15,15,15,,,,,,,,,,,,,,,,,,,,,,,,,,,,,,13,21,female,13,2022_May_06_1258,Partial repeat,2021.2.3,59.90050532590536,
2,2,0,1,2,3,2,1,0,0,0,0,1,0,0,0,16,16,16,0,0,0,0,,,,,,,720.5543340016156,None,721.439434800297,None,722.4204443003982,None,l,1,0.6658264994621277,722.4204443003982,None,None,None,,,,,,,13,21,female,13,2022_May_06_1258,Partial repeat,2021.2.3,59.90050532590536,
2,2,0,1,2,3,2,1,0,0,0,0,1,0,0,0,16,16,16,1,0,1,0,,,,,,,,,723.1060579009354,None,723.957037800923,None,l,1,0.5533393993973732,723.957037800923,None,None,None,,,,,,,13,21,female,13,2022_May_06_1258,Partial repeat,2021.2.3,59.90050532590536,
2,2,0,1,2,3,2,1,0,0,0,0,1,0,0,0,16,16,16,,,,,,,,,,,,,,,,,,,,,,,,,,,,,,13,21,female,13,2022_May_06_1258,Partial repeat,2021.2.3,59.90050532590536,
1,4,0,1,3,2,1,2,0,1,0,0,0,0,0,0,17,17,17,0,0,0,0,,,,,,,724.5221277009696,None,725.4638509005308,None,726.4611815009266,None,l,1,0.6090915016829967,726.4611815009266,None,None,None,,,,,,,13,21,female,13,2022_May_06_1258,Partial repeat,2021.2.3,59.90050532590536,
1,4,0,1,3,2,1,2,0,1,0,0,0,0,0,0,17,17,17,1,0,1,0,,,,,,,,,727.0848595015705,None,728.0978664010763,None,s,1,0.6205439995974302,728.0978664010763,None,None,None,,,,,,,13,21,female,13,2022_May_06_1258,Partial repeat,2021.2.3,59.90050532590536,
1,4,0,1,3,2,1,2,0,1,0,0,0,0,0,0,17,17,17,,,,,,,,,,,,,,,,,,,,,,,,,,,,,,13,21,female,13,2022_May_06_1258,Partial repeat,2021.2.3,59.90050532590536,
6,8,0,1,2,3,1,1,0,1,0,1,0,0,0,0,18,18,18,0,0,0,0,,,,,,,728.7484664004296,None,730.1229344010353,None,730.9366178009659,None,l,1,0.6936061009764671,730.9366178009659,None,None,None,,,,,,,13,21,female,13,2022_May_06_1258,Partial repeat,2021.2.3,59.90050532590536,
6,8,0,1,2,3,1,1,0,1,0,1,0,0,0,0,18,18,18,1,0,1,0,,,,,,,,,731.645425600931,None,732.5227963998914,None,s,1,0.6434666998684406,732.5227963998914,None,None,None,,,,,,,13,21,female,13,2022_May_06_1258,Partial repeat,2021.2.3,59.90050532590536,
6,8,0,1,2,3,1,1,0,1,0,1,0,0,0,0,18,18,18,,,,,,,,,,,,,,,,,,,,,,,,,,,,,,13,21,female,13,2022_May_06_1258,Partial repeat,2021.2.3,59.90050532590536,
8,8,0,1,3,2,2,1,0,1,0,0,0,0,0,0,19,19,19,0,0,0,0,,,,,,,733.1937496010214,None,734.4480277001858,None,735.2285870015621,None,l,1,0.5937847010791302,735.2285870015621,None,None,None,,,,,,,13,21,female,13,2022_May_06_1258,Partial repeat,2021.2.3,59.90050532590536,
8,8,0,1,3,2,2,1,0,1,0,0,0,0,0,0,19,19,19,1,0,1,0,,,,,,,,,735.8506713006645,None,736.7144896015525,None,s,1,0.6598653011023998,736.7144896015525,None,None,None,,,,,,,13,21,female,13,2022_May_06_1258,Partial repeat,2021.2.3,59.90050532590536,
8,8,0,1,3,2,2,1,0,1,0,0,0,0,0,0,19,19,19,,,,,,,,,,,,,,,,,,,,,,,,,,,,,,13,21,female,13,2022_May_06_1258,Partial repeat,2021.2.3,59.90050532590536,
4,1,0,1,2,3,2,2,1,0,0,1,0,0,0,0,20,20,20,0,0,0,0,,,,,,,737.3874599002302,None,738.8564695008099,None,739.7542464006692,None,s,1,0.6040217000991106,739.7542464006692,None,None,None,,,,,,,13,21,female,13,2022_May_06_1258,Partial repeat,2021.2.3,59.90050532590536,
4,1,0,1,2,3,2,2,1,0,0,1,0,0,0,0,20,20,20,1,0,1,0,,,,,,,,,740.3751724008471,None,741.1398466005921,None,l,1,0.5384692009538412,741.1398466005921,None,None,None,,,,,,,13,21,female,13,2022_May_06_1258,Partial repeat,2021.2.3,59.90050532590536,
4,1,0,1,2,3,2,2,1,0,0,1,0,0,0,0,20,20,20,,,,,,,,,,,,,,,,,,,,,,,,,,,,,,13,21,female,13,2022_May_06_1258,Partial repeat,2021.2.3,59.90050532590536,
1,6,0,1,3,3,2,2,1,0,1,1,0,0,0,0,21,21,21,0,0,0,0,,,,,,,741.7083023004234,None,742.8809616006911,None,743.6281944010407,None,s,1,0.5781954005360603,743.6281944010407,None,None,None,,,,,,,13,21,female,13,2022_May_06_1258,Partial repeat,2021.2.3,59.90050532590536,
1,6,0,1,3,3,2,2,1,0,1,1,0,0,0,0,21,21,21,1,0,1,0,,,,,,,,,744.2337737008929,None,745.1490122005343,None,l,1,0.4252697993069887,745.1490122005343,None,None,None,,,,,,,13,21,female,13,2022_May_06_1258,Partial repeat,2021.2.3,59.90050532590536,
1,6,0,1,3,3,2,2,1,0,1,1,0,0,0,0,21,21,21,,,,,,,,,,,,,,,,,,,,,,,,,,,,,,13,21,female,13,2022_May_06_1258,Partial repeat,2021.2.3,59.90050532590536,
2,7,0,1,2,2,1,1,0,0,1,1,1,0,0,0,22,22,22,0,0,0,0,,,,,,,745.6026729010046,None,746.4881290011108,None,747.2207575011998,None,l,1,0.6734651010483503,747.2207575011998,None,None,None,,,,,,,13,21,female,13,2022_May_06_1258,Partial repeat,2021.2.3,59.90050532590536,
2,7,0,1,2,2,1,1,0,0,1,1,1,0,0,0,22,22,22,1,0,1,0,,,,,,,,,747.9079288002104,None,748.888188701123,None,l,1,0.5260405000299215,748.888188701123,None,None,None,,,,,,,13,21,female,13,2022_May_06_1258,Partial repeat,2021.2.3,59.90050532590536,
2,7,0,1,2,2,1,1,0,0,1,1,1,0,0,0,22,22,22,,,,,,,,,,,,,,,,,,,,,,,,,,,,,,13,21,female,13,2022_May_06_1258,Partial repeat,2021.2.3,59.90050532590536,
2,8,0,1,3,3,1,2,1,0,1,0,0,0,0,0,23,23,23,0,0,0,0,,,,,,,749.4331683013588,None,750.1285127010196,None,751.0924281012267,None,s,1,0.5538184996694326,751.0924281012267,None,None,None,,,,,,,13,21,female,13,2022_May_06_1258,Partial repeat,2021.2.3,59.90050532590536,
2,8,0,1,3,3,1,2,1,0,1,0,0,0,0,0,23,23,23,1,0,1,0,,,,,,,,,751.6719345003366,None,752.4119963012636,None,l,1,0.5303608011454344,752.4119963012636,None,None,None,,,,,,,13,21,female,13,2022_May_06_1258,Partial repeat,2021.2.3,59.90050532590536,
2,8,0,1,3,3,1,2,1,0,1,0,0,0,0,0,23,23,23,,,,,,,,,,,,,,,,,,,,,,,,,,,,,,13,21,female,13,2022_May_06_1258,Partial repeat,2021.2.3,59.90050532590536,
5,1,0,1,3,2,2,2,0,0,0,1,1,0,0,0,24,24,24,0,0,0,0,,,,,,,752.9557394012809,None,754.0361660011113,None,754.8667470999062,None,l,1,0.49952439963817596,754.8667470999062,None,None,None,,,,,,,13,21,female,13,2022_May_06_1258,Partial repeat,2021.2.3,59.90050532590536,
5,1,0,1,3,2,2,2,0,0,0,1,1,0,0,0,24,24,24,1,0,1,0,,,,,,,,,755.3828410003334,None,756.1359746009111,None,l,1,0.5585495997220278,756.1359746009111,None,None,None,,,,,,,13,21,female,13,2022_May_06_1258,Partial repeat,2021.2.3,59.90050532590536,
5,1,0,1,3,2,2,2,0,0,0,1,1,0,0,0,24,24,24,,,,,,,,,,,,,,,,,,,,,,,,,,,,,,13,21,female,13,2022_May_06_1258,Partial repeat,2021.2.3,59.90050532590536,
1,7,0,1,3,3,1,1,1,1,1,1,1,0,0,0,25,25,25,0,0,0,0,,,,,,,756.7062610015273,None,757.4093508999795,None,758.2397713009268,None,s,1,0.5185607988387346,758.2397713009268,None,None,None,,,,,,,13,21,female,13,2022_May_06_1258,Partial repeat,2021.2.3,59.90050532590536,
1,7,0,1,3,3,1,1,1,1,1,1,1,0,0,0,25,25,25,1,0,1,0,,,,,,,,,758.780582100153,None,759.5092240013182,None,s,1,0.5610552988946438,759.5092240013182,None,None,None,,,,,,,13,21,female,13,2022_May_06_1258,Partial repeat,2021.2.3,59.90050532590536,
1,7,0,1,3,3,1,1,1,1,1,1,1,0,0,0,25,25,25,,,,,,,,,,,,,,,,,,,,,,,,,,,,,,13,21,female,13,2022_May_06_1258,Partial repeat,2021.2.3,59.90050532590536,
7,3,0,1,2,2,2,2,1,0,1,1,0,0,0,0,26,26,26,0,0,0,0,,,,,,,760.0970295015723,None,760.7492364011705,None,761.6297028008848,None,s,1,0.5205600000917912,761.6297028008848,None,None,None,,,,,,,13,21,female,13,2022_May_06_1258,Partial repeat,2021.2.3,59.90050532590536,
7,3,0,1,2,2,2,2,1,0,1,1,0,0,0,0,26,26,26,1,0,1,0,,,,,,,,,762.1651492007077,None,763.1502088010311,None,l,1,0.5440655015408993,763.1502088010311,None,None,None,,,,,,,13,21,female,13,2022_May_06_1258,Partial repeat,2021.2.3,59.90050532590536,
7,3,0,1,2,2,2,2,1,0,1,1,0,0,0,0,26,26,26,,,,,,,,,,,,,,,,,,,,,,,,,,,,,,13,21,female,13,2022_May_06_1258,Partial repeat,2021.2.3,59.90050532590536,
2,6,0,1,2,3,1,2,1,0,0,0,0,0,0,0,27,27,27,0,0,0,0,,,,,,,763.7196839004755,None,764.6401110012084,None,765.5380998011678,None,s,1,0.5562462992966175,765.5380998011678,None,None,None,,,,,,,13,21,female,13,2022_May_06_1258,Partial repeat,2021.2.3,59.90050532590536,
2,6,0,1,2,3,1,2,1,0,0,0,0,0,0,0,27,27,27,1,0,1,0,,,,,,,,,766.1047788001597,None,766.9568128008395,None,l,1,0.6734552010893822,766.9568128008395,None,None,None,,,,,,,13,21,female,13,2022_May_06_1258,Partial repeat,2021.2.3,59.90050532590536,
2,6,0,1,2,3,1,2,1,0,0,0,0,0,0,0,27,27,27,,,,,,,,,,,,,,,,,,,,,,,,,,,,,,13,21,female,13,2022_May_06_1258,Partial repeat,2021.2.3,59.90050532590536,
4,7,0,1,3,3,1,2,1,1,1,0,1,0,0,0,28,28,28,0,0,0,0,,,,,,,767.6525325011462,None,768.6813675016165,None,769.6787120010704,None,s,1,0.5515566002577543,769.6787120010704,None,None,None,,,,,,,13,21,female,13,2022_May_06_1258,Partial repeat,2021.2.3,59.90050532590536,
4,7,0,1,3,3,1,2,1,1,1,0,1,0,0,0,28,28,28,1,0,1,0,,,,,,,,,770.2453086003661,None,770.9981194008142,None,s,1,0.5041292998939753,770.9981194008142,None,None,None,,,,,,,13,21,female,13,2022_May_06_1258,Partial repeat,2021.2.3,59.90050532590536,
4,7,0,1,3,3,1,2,1,1,1,0,1,0,0,0,28,28,28,,,,,,,,,,,,,,,,,,,,,,,,,,,,,,13,21,female,13,2022_May_06_1258,Partial repeat,2021.2.3,59.90050532590536,
6,7,0,1,3,2,1,2,1,0,0,0,0,0,0,0,29,29,29,0,0,0,0,,,,,,,771.5206379014999,None,772.6056092008948,None,773.5706332009286,None,s,1,0.49168349988758564,773.5706332009286,None,None,None,,,,,,,13,21,female,13,2022_May_06_1258,Partial repeat,2021.2.3,59.90050532590536,
6,7,0,1,3,2,1,2,1,0,0,0,0,0,0,0,29,29,29,1,0,1,0,,,,,,,,,774.0895953010768,None,774.9722267016768,None,l,1,0.5220506004989147,774.9722267016768,None,None,None,,,,,,,13,21,female,13,2022_May_06_1258,Partial repeat,2021.2.3,59.90050532590536,
6,7,0,1,3,2,1,2,1,0,0,0,0,0,0,0,29,29,29,,,,,,,,,,,,,,,,,,,,,,,,,,,,,,13,21,female,13,2022_May_06_1258,Partial repeat,2021.2.3,59.90050532590536,
4,8,0,1,2,3,1,2,0,0,0,0,1,0,0,0,30,30,30,0,0,0,0,,,,,,,775.5158194005489,None,776.4464178010821,None,777.3937550000846,None,l,1,0.5244615990668535,777.3937550000846,None,None,None,,,,,,,13,21,female,13,2022_May_06_1258,Partial repeat,2021.2.3,59.90050532590536,
4,8,0,1,2,3,1,2,0,0,0,0,1,0,0,0,30,30,30,1,0,1,0,,,,,,,,,777.9340279009193,None,778.9469620008022,None,l,1,0.45930759981274605,778.9469620008022,None,None,None,,,,,,,13,21,female,13,2022_May_06_1258,Partial repeat,2021.2.3,59.90050532590536,
4,8,0,1,2,3,1,2,0,0,0,0,1,0,0,0,30,30,30,,,,,,,,,,,,,,,,,,,,,,,,,,,,,,13,21,female,13,2022_May_06_1258,Partial repeat,2021.2.3,59.90050532590536,
7,7,0,1,2,2,1,1,0,1,1,1,0,0,0,0,31,31,31,0,0,0,0,,,,,,,779.4279045015574,None,780.2538489010185,None,781.0175122004002,None,l,1,0.5647317990660667,781.0175122004002,None,None,None,,,,,,,13,21,female,13,2022_May_06_1258,Partial repeat,2021.2.3,59.90050532590536,
7,7,0,1,2,2,1,1,0,1,1,1,0,0,0,0,31,31,31,1,0,1,0,,,,,,,,,781.5992428008467,None,782.5371991004795,None,s,1,0.3970893006771803,782.5371991004795,None,None,None,,,,,,,13,21,female,13,2022_May_06_1258,Partial repeat,2021.2.3,59.90050532590536,
7,7,0,1,2,2,1,1,0,1,1,1,0,0,0,0,31,31,31,,,,,,,,,,,,,,,,,,,,,,,,,,,,,,13,21,female,13,2022_May_06_1258,Partial repeat,2021.2.3,59.90050532590536,
4,5,0,1,2,3,1,2,0,1,0,0,0,0,0,0,32,32,32,0,0,0,0,,,,,,,782.9567838013172,None,784.0278469007462,None,784.9930864013731,None,l,1,0.6211903002113104,784.9930864013731,None,None,None,,,,,,,13,21,female,13,2022_May_06_1258,Partial repeat,2021.2.3,59.90050532590536,
4,5,0,1,2,3,1,2,0,1,0,0,0,0,0,0,32,32,32,1,0,1,0,,,,,,,,,785.6407698001713,None,786.64492719993,None,s,1,0.5053433012217283,786.64492719993,None,None,None,,,,,,,13,21,female,13,2022_May_06_1258,Partial repeat,2021.2.3,59.90050532590536,
4,5,0,1,2,3,1,2,0,1,0,0,0,0,0,0,32,32,32,,,,,,,,,,,,,,,,,,,,,,,,,,,,,,13,21,female,13,2022_May_06_1258,Partial repeat,2021.2.3,59.90050532590536,
3,3,0,1,3,2,2,2,1,0,0,1,0,0,0,0,33,33,33,0,0,0,0,,,,,,,787.1696901004761,None,788.1525516007096,None,788.9164052009583,None,s,1,0.7538189999759197,788.9164052009583,None,None,None,,,,,,,13,21,female,13,2022_May_06_1258,Partial repeat,2021.2.3,59.90050532590536,
3,3,0,1,3,2,2,2,1,0,0,1,0,0,0,0,33,33,33,1,0,1,0,,,,,,,,,789.6922719012946,None,790.520637601614,None,l,1,0.7176304999738932,790.520637601614,None,None,None,,,,,,,13,21,female,13,2022_May_06_1258,Partial repeat,2021.2.3,59.90050532590536,
3,3,0,1,3,2,2,2,1,0,0,1,0,0,0,0,33,33,33,,,,,,,,,,,,,,,,,,,,,,,,,,,,,,13,21,female,13,2022_May_06_1258,Partial repeat,2021.2.3,59.90050532590536,
3,5,0,1,2,2,1,1,1,0,1,1,0,0,0,0,34,34,34,0,0,0,0,,,,,,,791.2538525015116,None,792.0100421011448,None,792.8407209999859,None,s,1,0.5736848004162312,792.8407209999859,None,None,None,,,,,,,13,21,female,13,2022_May_06_1258,Partial repeat,2021.2.3,59.90050532590536,
3,5,0,1,2,2,1,1,1,0,1,1,0,0,0,0,34,34,34,1,0,1,0,,,,,,,,,793.4254616014659,None,794.3099177014083,None,l,1,0.48036049865186214,794.3099177014083,None,None,None,,,,,,,13,21,female,13,2022_May_06_1258,Partial repeat,2021.2.3,59.90050532590536,
3,5,0,1,2,2,1,1,1,0,1,1,0,0,0,0,34,34,34,,,,,,,,,,,,,,,,,,,,,,,,,,,,,,13,21,female,13,2022_May_06_1258,Partial repeat,2021.2.3,59.90050532590536,
6,4,0,1,2,2,1,2,0,1,1,0,0,0,0,0,35,35,35,0,0,0,0,,,,,,,794.8129646014422,None,795.5168591998518,None,796.3641779012978,None,l,1,0.5781426001340151,796.3641779012978,None,None,None,,,,,,,13,21,female,13,2022_May_06_1258,Partial repeat,2021.2.3,59.90050532590536,
6,4,0,1,2,2,1,2,0,1,1,0,0,0,0,0,35,35,35,1,0,1,0,,,,,,,,,796.9702965002507,None,797.9348173011094,None,s,1,0.5594506990164518,797.9348173011094,None,None,None,,,,,,,13,21,female,13,2022_May_06_1258,Partial repeat,2021.2.3,59.90050532590536,
6,4,0,1,2,2,1,2,0,1,1,0,0,0,0,0,35,35,35,,,,,,,,,,,,,,,,,,,,,,,,,,,,,,13,21,female,13,2022_May_06_1258,Partial repeat,2021.2.3,59.90050532590536,
8,2,0,1,2,2,2,2,1,1,1,1,1,0,0,0,36,36,36,0,0,0,0,,,,,,,798.5210291016847,None,799.2908486016095,None,800.0391258001328,None,s,1,0.7671758010983467,800.0391258001328,None,None,None,,,,,,,13,21,female,13,2022_May_06_1258,Partial repeat,2021.2.3,59.90050532590536,
8,2,0,1,2,2,2,2,1,1,1,1,1,0,0,0,36,36,36,1,0,1,0,,,,,,,,,800.8331066016108,None,801.7255730014294,None,s,1,0.6007504984736443,801.7255730014294,None,None,None,,,,,,,13,21,female,13,2022_May_06_1258,Partial repeat,2021.2.3,59.90050532590536,
8,2,0,1,2,2,2,2,1,1,1,1,1,0,0,0,36,36,36,,,,,,,,,,,,,,,,,,,,,,,,,,,,,,13,21,female,13,2022_May_06_1258,Partial repeat,2021.2.3,59.90050532590536,
8,1,0,1,3,3,2,1,1,0,1,0,0,0,0,0,37,37,37,0,0,0,0,,,,,,,802.356062900275,None,802.9813583008945,None,803.9123464003205,None,s,1,0.517933800816536,803.9123464003205,None,None,None,,,,,,,13,21,female,13,2022_May_06_1258,Partial repeat,2021.2.3,59.90050532590536,
8,1,0,1,3,3,2,1,1,0,1,0,0,0,0,0,37,37,37,1,0,1,0,,,,,,,,,804.4509047009051,None,805.3157939016819,None,l,1,0.5785335004329681,805.3157939016819,None,None,None,,,,,,,13,21,female,13,2022_May_06_1258,Partial repeat,2021.2.3,59.90050532590536,
8,1,0,1,3,3,2,1,1,0,1,0,0,0,0,0,37,37,37,,,,,,,,,,,,,,,,,,,,,,,,,,,,,,13,21,female,13,2022_May_06_1258,Partial repeat,2021.2.3,59.90050532590536,
3,8,0,1,3,2,2,2,0,1,0,1,0,0,0,0,38,38,38,0,0,0,0,,,,,,,805.92486840114,None,806.5884091015905,None,807.6027278006077,None,l,1,0.6756069008260965,807.6027278006077,None,None,None,,,,,,,13,21,female,13,2022_May_06_1258,Partial repeat,2021.2.3,59.90050532590536,
3,8,0,1,3,2,2,2,0,1,0,1,0,0,0,0,38,38,38,1,0,1,0,,,,,,,,,808.2911889012903,None,809.2223240006715,None,s,1,0.5119889993220568,809.2223240006715,None,None,None,,,,,,,13,21,female,13,2022_May_06_1258,Partial repeat,2021.2.3,59.90050532590536,
3,8,0,1,3,2,2,2,0,1,0,1,0,0,0,0,38,38,38,,,,,,,,,,,,,,,,,,,,,,,,,,,,,,13,21,female,13,2022_May_06_1258,Partial repeat,2021.2.3,59.90050532590536,
4,3,0,1,3,2,2,1,1,0,0,0,0,0,0,0,39,39,39,0,0,0,0,,,,,,,809.7495920006186,None,810.5628303010017,None,811.4098787009716,None,s,1,0.5565165001899004,811.4098787009716,None,None,None,,,,,,,13,21,female,13,2022_May_06_1258,Partial repeat,2021.2.3,59.90050532590536,
4,3,0,1,3,2,2,1,1,0,0,0,0,0,0,0,39,39,39,1,0,1,0,,,,,,,,,811.9945823010057,None,812.929630400613,None,l,1,0.5006150994449854,812.929630400613,None,None,None,,,,,,,13,21,female,13,2022_May_06_1258,Partial repeat,2021.2.3,59.90050532590536,
4,3,0,1,3,2,2,1,1,0,0,0,0,0,0,0,39,39,39,,,,,,,,,,,,,,,,,,,,,,,,,,,,,,13,21,female,13,2022_May_06_1258,Partial repeat,2021.2.3,59.90050532590536,
1,8,0,1,3,2,1,2,1,1,0,0,1,0,0,0,40,40,40,0,0,0,0,,,,,,,813.4519941005856,None,814.1865479014814,None,815.0855521000922,None,s,1,0.528787899762392,815.0855521000922,None,None,None,,,,,,,13,21,female,13,2022_May_06_1258,Partial repeat,2021.2.3,59.90050532590536,
1,8,0,1,3,2,1,2,1,1,0,0,1,0,0,0,40,40,40,1,0,1,0,,,,,,,,,815.6305360011756,None,816.4532829001546,None,s,1,0.45699979923665524,816.4532829001546,None,None,None,,,,,,,13,21,female,13,2022_May_06_1258,Partial repeat,2021.2.3,59.90050532590536,
1,8,0,1,3,2,1,2,1,1,0,0,1,0,0,0,40,40,40,,,,,,,,,,,,,,,,,,,,,,,,,,,,,,13,21,female,13,2022_May_06_1258,Partial repeat,2021.2.3,59.90050532590536,
4,2,0,1,3,3,2,2,0,1,1,1,0,0,0,0,41,41,41,0,0,0,0,,,,,,,816.9376715011895,None,817.6766683999449,None,818.4508171007037,None,l,1,0.6754822991788387,818.4508171007037,None,None,None,,,,,,,13,21,female,13,2022_May_06_1258,Partial repeat,2021.2.3,59.90050532590536,
4,2,0,1,3,3,2,2,0,1,1,1,0,0,0,0,41,41,41,1,0,1,0,,,,,,,,,819.1407980006188,None,820.1112595014274,None,s,1,0.48695879988372326,820.1112595014274,None,None,None,,,,,,,13,21,female,13,2022_May_06_1258,Partial repeat,2021.2.3,59.90050532590536,
4,2,0,1,3,3,2,2,0,1,1,1,0,0,0,0,41,41,41,,,,,,,,,,,,,,,,,,,,,,,,,,,,,,13,21,female,13,2022_May_06_1258,Partial repeat,2021.2.3,59.90050532590536,
5,2,0,1,2,2,2,1,1,0,1,0,0,0,0,0,42,42,42,0,0,0,0,,,,,,,820.6151846013963,None,821.3504849001765,None,822.3312070015818,None,s,1,0.5790714006870985,822.3312070015818,None,None,None,,,,,,,13,21,female,13,2022_May_06_1258,Partial repeat,2021.2.3,59.90050532590536,
5,2,0,1,2,2,2,1,1,0,1,0,0,0,0,0,42,42,42,1,0,1,0,,,,,,,,,822.9353158008307,None,823.9509430006146,None,l,1,0.4153342004865408,823.9509430006146,None,None,None,,,,,,,13,21,female,13,2022_May_06_1258,Partial repeat,2021.2.3,59.90050532590536,
5,2,0,1,2,2,2,1,1,0,1,0,0,0,0,0,42,42,42,,,,,,,,,,,,,,,,,,,,,,,,,,,,,,13,21,female,13,2022_May_06_1258,Partial repeat,2021.2.3,59.90050532590536,
3,2,0,1,3,3,1,1,0,1,1,1,0,0,0,0,43,43,43,0,0,0,0,,,,,,,824.3910789005458,None,825.1077989004552,None,826.1053296010941,None,l,1,0.668944101780653,826.1053296010941,None,None,None,,,,,,,13,21,female,13,2022_May_06_1258,Partial repeat,2021.2.3,59.90050532590536,
3,2,0,1,3,3,1,1,0,1,1,1,0,0,0,0,43,43,43,1,0,1,0,,,,,,,,,826.7934078015387,None,827.7252673003823,None,s,1,0.47300419956445694,827.7252673003823,None,None,None,,,,,,,13,21,female,13,2022_May_06_1258,Partial repeat,2021.2.3,59.90050532590536,
3,2,0,1,3,3,1,1,0,1,1,1,0,0,0,0,43,43,43,,,,,,,,,,,,,,,,,,,,,,,,,,,,,,13,21,female,13,2022_May_06_1258,Partial repeat,2021.2.3,59.90050532590536,
7,5,0,1,2,2,2,1,0,0,1,0,1,0,0,0,44,44,44,0,0,0,0,,,,,,,828.2220842000097,None,828.8818067014217,None,829.6789983008057,None,l,1,0.5752713996917009,829.6789983008057,None,None,None,,,,,,,13,21,female,13,2022_May_06_1258,Partial repeat,2021.2.3,59.90050532590536,
7,5,0,1,2,2,2,1,0,0,1,0,1,0,0,0,44,44,44,1,0,1,0,,,,,,,,,830.2746914010495,None,831.1822970006615,None,l,1,0.4799804985523224,831.1822970006615,None,None,None,,,,,,,13,21,female,13,2022_May_06_1258,Partial repeat,2021.2.3,59.90050532590536,
7,5,0,1,2,2,2,1,0,0,1,0,1,0,0,0,44,44,44,,,,,,,,,,,,,,,,,,,,,,,,,,,,,,13,21,female,13,2022_May_06_1258,Partial repeat,2021.2.3,59.90050532590536,
2,4,0,1,2,2,1,2,0,0,1,0,1,0,0,0,45,45,45,0,0,0,0,,,,,,,831.683494400233,None,832.3385175000876,None,833.3033907003701,None,l,1,0.4948238003998995,833.3033907003701,None,None,None,,,,,,,13,21,female,13,2022_May_06_1258,Partial repeat,2021.2.3,59.90050532590536,
2,4,0,1,2,2,1,2,0,0,1,0,1,0,0,0,45,45,45,1,0,1,0,,,,,,,,,833.8181596007198,None,834.5385028012097,None,l,1,0.4518190994858742,834.5385028012097,None,None,None,,,,,,,13,21,female,13,2022_May_06_1258,Partial repeat,2021.2.3,59.90050532590536,
2,4,0,1,2,2,1,2,0,0,1,0,1,0,0,0,45,45,45,,,,,,,,,,,,,,,,,,,,,,,,,,,,,,13,21,female,13,2022_May_06_1258,Partial repeat,2021.2.3,59.90050532590536,
7,2,0,1,3,2,1,1,0,1,0,1,0,0,0,0,46,46,46,0,0,0,0,,,,,,,835.0199711006135,None,835.6950676999986,None,836.6256197001785,None,l,1,0.5886250995099545,836.6256197001785,None,None,None,,,,,,,13,21,female,13,2022_May_06_1258,Partial repeat,2021.2.3,59.90050532590536,
7,2,0,1,3,2,1,1,0,1,0,1,0,0,0,0,46,46,46,1,0,1,0,,,,,,,,,837.2337181009352,None,838.1129266005009,None,s,1,0.6293526999652386,838.1129266005009,None,None,None,,,,,,,13,21,female,13,2022_May_06_1258,Partial repeat,2021.2.3,59.90050532590536,
7,2,0,1,3,2,1,1,0,1,0,1,0,0,0,0,46,46,46,,,,,,,,,,,,,,,,,,,,,,,,,,,,,,13,21,female,13,2022_May_06_1258,Partial repeat,2021.2.3,59.90050532590536,
5,8,0,1,3,2,2,2,1,1,0,1,1,0,0,0,47,47,47,0,0,0,0,,,,,,,838.7673020008951,None,839.3855495005846,None,840.2338103000075,None,s,1,0.452496899291873,840.2338103000075,None,None,None,,,,,,,13,21,female,13,2022_May_06_1258,Partial repeat,2021.2.3,59.90050532590536,
5,8,0,1,3,2,2,2,1,1,0,1,1,0,0,0,47,47,47,1,0,1,0,,,,,,,,,840.7134456001222,None,841.4686248004436,None,s,1,0.5936539992690086,841.4686248004436,None,None,None,,,,,,,13,21,female,13,2022_May_06_1258,Partial repeat,2021.2.3,59.90050532590536,
5,8,0,1,3,2,2,2,1,1,0,1,1,0,0,0,47,47,47,,,,,,,,,,,,,,,,,,,,,,,,,,,,,,13,21,female,13,2022_May_06_1258,Partial repeat,2021.2.3,59.90050532590536,
1,1,0,1,2,3,2,1,1,0,0,0,0,0,0,0,48,48,48,0,0,0,0,,,,,,,842.0810428000987,None,842.7420650999993,None,843.672917701304,None,s,1,0.517357399687171,843.672917701304,None,None,None,,,,,,,13,21,female,13,2022_May_06_1258,Partial repeat,2021.2.3,59.90050532590536,
1,1,0,1,2,3,2,1,1,0,0,0,0,0,0,0,48,48,48,1,0,1,0,,,,,,,,,844.2095849011093,None,845.0942931007594,None,l,1,0.5520456992089748,845.0942931007594,None,None,None,,,,,,,13,21,female,13,2022_May_06_1258,Partial repeat,2021.2.3,59.90050532590536,
1,1,0,1,2,3,2,1,1,0,0,0,0,0,0,0,48,48,48,,,,,,,,,,,,,,,,,,,,,,,,,,,,,,13,21,female,13,2022_May_06_1258,Partial repeat,2021.2.3,59.90050532590536,
4,4,0,1,3,2,1,2,0,0,0,0,1,0,0,0,49,49,49,0,0,0,0,,,,,,,845.6595860011876,None,846.2656018007547,None,847.0292722005397,None,l,1,0.5930519010871649,847.0292722005397,None,None,None,,,,,,,13,21,female,13,2022_May_06_1258,Partial repeat,2021.2.3,59.90050532590536,
4,4,0,1,3,2,1,2,0,0,0,0,1,0,0,0,49,49,49,1,0,1,0,,,,,,,,,847.6301665008068,None,848.49902950041,None,l,1,0.47524840012192726,848.49902950041,None,None,None,,,,,,,13,21,female,13,2022_May_06_1258,Partial repeat,2021.2.3,59.90050532590536,
4,4,0,1,3,2,1,2,0,0,0,0,1,0,0,0,49,49,49,,,,,,,,,,,,,,,,,,,,,,,,,,,,,,13,21,female,13,2022_May_06_1258,Partial repeat,2021.2.3,59.90050532590536,
8,7,0,1,2,3,2,1,0,1,0,0,0,0,0,0,50,50,50,0,0,0,0,,,,,,,849.0010276008397,None,849.8559487015009,None,850.7379509005696,None,l,1,1.0602701995521784,850.7379509005696,None,None,None,,,,,,,13,21,female,13,2022_May_06_1258,Partial repeat,2021.2.3,59.90050532590536,
8,7,0,1,2,3,2,1,0,1,0,0,0,0,0,0,50,50,50,1,0,1,0,,,,,,,,,851.8120121005923,None,852.7236207015812,None,s,1,0.48266270011663437,852.7236207015812,None,None,None,,,,,,,13,21,female,13,2022_May_06_1258,Partial repeat,2021.2.3,59.90050532590536,
8,7,0,1,2,3,2,1,0,1,0,0,0,0,0,0,50,50,50,,,,,,,,,,,,,,,,,,,,,,,,,,,,,,13,21,female,13,2022_May_06_1258,Partial repeat,2021.2.3,59.90050532590536,
2,5,0,1,2,2,2,1,0,1,1,0,0,0,0,0,51,51,51,0,0,0,0,,,,,,,853.2285567000508,None,853.8637564014643,None,854.7608957998455,None,l,1,0.4693603999912739,854.7608957998455,None,None,None,,,,,,,13,21,female,13,2022_May_06_1258,Partial repeat,2021.2.3,59.90050532590536,
2,5,0,1,2,2,2,1,0,1,1,0,0,0,0,0,51,51,51,1,0,1,0,,,,,,,,,855.239661199972,None,856.1803831011057,None,s,1,0.40994229912757874,856.1803831011057,None,None,None,,,,,,,13,21,female,13,2022_May_06_1258,Partial repeat,2021.2.3,59.90050532590536,
2,5,0,1,2,2,2,1,0,1,1,0,0,0,0,0,51,51,51,,,,,,,,,,,,,,,,,,,,,,,,,,,,,,13,21,female,13,2022_May_06_1258,Partial repeat,2021.2.3,59.90050532590536,
5,5,0,1,3,2,2,1,0,0,0,0,1,0,0,0,52,52,52,0,0,0,0,,,,,,,856.600588100031,None,857.3037141002715,None,858.0851206015795,None,l,1,0.7052662000060081,858.0851206015795,None,None,None,,,,,,,13,21,female,13,2022_May_06_1258,Partial repeat,2021.2.3,59.90050532590536,
5,5,0,1,3,2,2,1,0,0,0,0,1,0,0,0,52,52,52,1,0,1,0,,,,,,,,,858.8016755003482,None,859.6872576009482,None,l,1,0.4230541009455919,859.6872576009482,None,None,None,,,,,,,13,21,female,13,2022_May_06_1258,Partial repeat,2021.2.3,59.90050532590536,
5,5,0,1,3,2,2,1,0,0,0,0,1,0,0,0,52,52,52,,,,,,,,,,,,,,,,,,,,,,,,,,,,,,13,21,female,13,2022_May_06_1258,Partial repeat,2021.2.3,59.90050532590536,
8,4,0,1,3,2,2,1,1,1,0,0,1,0,0,0,53,53,53,0,0,0,0,,,,,,,860.125416001305,None,860.6937060002238,None,861.4250484015793,None,s,1,0.4691802002489567,861.4250484015793,None,None,None,,,,,,,13,21,female,13,2022_May_06_1258,Partial repeat,2021.2.3,59.90050532590536,
8,4,0,1,3,2,2,1,1,1,0,0,1,0,0,0,53,53,53,1,0,1,0,,,,,,,,,861.9216205999255,None,862.7263585999608,None,s,1,0.5439401008188725,862.7263585999608,None,None,None,,,,,,,13,21,female,13,2022_May_06_1258,Partial repeat,2021.2.3,59.90050532590536,
8,4,0,1,3,2,2,1,1,1,0,0,1,0,0,0,53,53,53,,,,,,,,,,,,,,,,,,,,,,,,,,,,,,13,21,female,13,2022_May_06_1258,Partial repeat,2021.2.3,59.90050532590536,
3,1,0,1,3,3,2,1,0,1,1,0,0,0,0,0,54,54,54,0,0,0,0,,,,,,,863.2938371002674,None,863.8999588005245,None,864.6635098010302,None,l,1,0.598768699914217,864.6635098010302,None,None,None,,,,,,,13,21,female,13,2022_May_06_1258,Partial repeat,2021.2.3,59.90050532590536,
3,1,0,1,3,3,2,1,0,1,1,0,0,0,0,0,54,54,54,1,0,1,0,,,,,,,,,865.2830012012273,None,866.183156400919,None,s,1,0.4951315000653267,866.183156400919,None,None,None,,,,,,,13,21,female,13,2022_May_06_1258,Partial repeat,2021.2.3,59.90050532590536,
3,1,0,1,3,3,2,1,0,1,1,0,0,0,0,0,54,54,54,,,,,,,,,,,,,,,,,,,,,,,,,,,,,,13,21,female,13,2022_May_06_1258,Partial repeat,2021.2.3,59.90050532590536,
6,6,0,1,2,3,2,2,0,0,0,1,1,0,0,0,55,55,55,0,0,0,0,,,,,,,866.7055930010974,None,867.3065742999315,None,868.1870157010853,None,l,1,0.5312737002968788,868.1870157010853,None,None,None,,,,,,,13,21,female,13,2022_May_06_1258,Partial repeat,2021.2.3,59.90050532590536,
6,6,0,1,2,3,2,2,0,0,0,1,1,0,0,0,55,55,55,1,0,1,0,,,,,,,,,868.7458783015609,None,869.6399934999645,None,l,1,0.5022889003157616,869.6399934999645,None,None,None,,,,,,,13,21,female,13,2022_May_06_1258,Partial repeat,2021.2.3,59.90050532590536,
6,6,0,1,2,3,2,2,0,0,0,1,1,0,0,0,55,55,55,,,,,,,,,,,,,,,,,,,,,,,,,,,,,,13,21,female,13,2022_May_06_1258,Partial repeat,2021.2.3,59.90050532590536,
6,1,0,1,3,2,1,1,1,0,0,1,0,0,0,0,56,56,56,0,0,0,0,,,,,,,870.164054101333,None,870.7465998008847,None,871.6437741015106,None,s,1,0.5385427009314299,871.6437741015106,None,None,None,,,,,,,13,21,female,13,2022_May_06_1258,Partial repeat,2021.2.3,59.90050532590536,
6,1,0,1,3,2,1,1,1,0,0,1,0,0,0,0,56,56,56,1,0,1,0,,,,,,,,,872.2062896005809,None,873.1137782000005,None,l,1,0.3964993003755808,873.1137782000005,None,None,None,,,,,,,13,21,female,13,2022_May_06_1258,Partial repeat,2021.2.3,59.90050532590536,
6,1,0,1,3,2,1,1,1,0,0,1,0,0,0,0,56,56,56,,,,,,,,,,,,,,,,,,,,,,,,,,,,,,13,21,female,13,2022_May_06_1258,Partial repeat,2021.2.3,59.90050532590536,
2,1,0,1,3,2,1,1,0,0,0,1,1,0,0,0,57,57,57,0,0,0,0,,,,,,,873.5308958012611,None,874.4537026006728,None,875.4689863007516,None,l,1,0.44926529936492443,875.4689863007516,None,None,None,,,,,,,13,21,female,13,2022_May_06_1258,Partial repeat,2021.2.3,59.90050532590536,
2,1,0,1,3,2,1,1,0,0,0,1,1,0,0,0,57,57,57,1,0,1,0,,,,,,,,,875.9264436010271,None,876.8371895998716,None,l,1,0.3930810000747442,876.8371895998716,None,None,None,,,,,,,13,21,female,13,2022_May_06_1258,Partial repeat,2021.2.3,59.90050532590536,
2,1,0,1,3,2,1,1,0,0,0,1,1,0,0,0,57,57,57,,,,,,,,,,,,,,,,,,,,,,,,,,,,,,13,21,female,13,2022_May_06_1258,Partial repeat,2021.2.3,59.90050532590536,
8,6,0,1,3,3,2,1,0,0,1,0,1,0,0,0,58,58,58,0,0,0,0,,,,,,,877.2501610014588,None,877.9773605000228,None,878.8912585005164,None,l,1,0.4830179996788502,878.8912585005164,None,None,None,,,,,,,13,21,female,13,2022_May_06_1258,Partial repeat,2021.2.3,59.90050532590536,
8,6,0,1,3,3,2,1,0,0,1,0,1,0,0,0,58,58,58,1,0,1,0,,,,,,,,,879.3888554014266,None,880.3285874016583,None,l,1,0.5096570998430252,880.3285874016583,None,None,None,,,,,,,13,21,female,13,2022_May_06_1258,Partial repeat,2021.2.3,59.90050532590536,
8,6,0,1,3,3,2,1,0,0,1,0,1,0,0,0,58,58,58,,,,,,,,,,,,,,,,,,,,,,,,,,,,,,13,21,female,13,2022_May_06_1258,Partial repeat,2021.2.3,59.90050532590536,
2,3,0,1,2,3,1,1,1,1,0,1,1,0,0,0,59,59,59,0,0,0,0,,,,,,,880.8694091010839,None,881.484164301306,None,882.4333843011409,None,s,1,0.5169059000909328,882.4333843011409,None,None,None,,,,,,,13,21,female,13,2022_May_06_1258,Partial repeat,2021.2.3,59.90050532590536,
2,3,0,1,2,3,1,1,1,1,0,1,1,0,0,0,59,59,59,1,0,1,0,,,,,,,,,882.9763368014246,None,883.8855515010655,None,s,1,0.48876660130918026,883.8855515010655,None,None,None,,,,,,,13,21,female,13,2022_May_06_1258,Partial repeat,2021.2.3,59.90050532590536,
2,3,0,1,2,3,1,1,1,1,0,1,1,0,0,0,59,59,59,,,,,,,,,,,,,,,,,,,,,,,,,,,,,,13,21,female,13,2022_May_06_1258,Partial repeat,2021.2.3,59.90050532590536,
3,7,0,1,2,2,2,1,1,1,1,0,1,0,0,0,60,60,60,0,0,0,0,,,,,,,884.4039888009429,None,885.0243906006217,None,885.8390786014497,None,s,1,0.5912774000316858,885.8390786014497,None,None,None,,,,,,,13,21,female,13,2022_May_06_1258,Partial repeat,2021.2.3,59.90050532590536,
3,7,0,1,2,2,2,1,1,1,1,0,1,0,0,0,60,60,60,1,0,1,0,,,,,,,,,886.4408315010369,None,887.391096001491,None,s,1,0.5031751003116369,887.391096001491,None,None,None,,,,,,,13,21,female,13,2022_May_06_1258,Partial repeat,2021.2.3,59.90050532590536,
3,7,0,1,2,2,2,1,1,1,1,0,1,0,0,0,60,60,60,,,,,,,,,,,,,,,,,,,,,,,,,,,,,,13,21,female,13,2022_May_06_1258,Partial repeat,2021.2.3,59.90050532590536,
3,4,0,1,2,3,1,1,0,0,0,1,1,0,0,0,61,61,61,0,0,0,0,,,,,,,887.9160414002836,None,888.4978213012218,None,889.5120488014072,None,l,1,0.4302057009190321,889.5120488014072,None,None,None,,,,,,,13,21,female,13,2022_May_06_1258,Partial repeat,2021.2.3,59.90050532590536,
3,4,0,1,2,3,1,1,0,0,0,1,1,0,0,0,61,61,61,1,0,1,0,,,,,,,,,889.9663099013269,None,890.7311222013086,None,l,1,0.46719509921967983,890.7311222013086,None,None,None,,,,,,,13,21,female,13,2022_May_06_1258,Partial repeat,2021.2.3,59.90050532590536,
3,4,0,1,2,3,1,1,0,0,0,1,1,0,0,0,61,61,61,,,,,,,,,,,,,,,,,,,,,,,,,,,,,,13,21,female,13,2022_May_06_1258,Partial repeat,2021.2.3,59.90050532590536,
8,5,0,1,2,3,2,1,1,1,0,0,1,0,0,0,62,62,62,0,0,0,0,,,,,,,891.2118199001998,None,891.8710406012833,None,892.8184064012021,None,s,1,0.49183970130980015,892.8184064012021,None,None,None,,,,,,,13,21,female,13,2022_May_06_1258,Partial repeat,2021.2.3,59.90050532590536,
8,5,0,1,2,3,2,1,1,1,0,0,1,0,0,0,62,62,62,1,0,1,0,,,,,,,,,893.3299420010298,None,894.2210768014193,None,s,1,0.5052070003002882,894.2210768014193,None,None,None,,,,,,,13,21,female,13,2022_May_06_1258,Partial repeat,2021.2.3,59.90050532590536,
8,5,0,1,2,3,2,1,1,1,0,0,1,0,0,0,62,62,62,,,,,,,,,,,,,,,,,,,,,,,,,,,,,,13,21,female,13,2022_May_06_1258,Partial repeat,2021.2.3,59.90050532590536,
3,6,0,1,3,3,1,2,0,1,1,0,0,0,0,0,63,63,63,0,0,0,0,,,,,,,894.7439170014113,None,895.6282983999699,None,896.5091596003622,None,l,1,0.43310119956731796,896.5091596003622,None,None,None,,,,,,,13,21,female,13,2022_May_06_1258,Partial repeat,2021.2.3,59.90050532590536,
3,6,0,1,3,3,1,2,0,1,1,0,0,0,0,0,63,63,63,1,0,1,0,,,,,,,,,896.9652881007642,None,897.7281934004277,None,s,1,0.5500763989984989,897.7281934004277,None,None,None,,,,,,,13,21,female,13,2022_May_06_1258,Partial repeat,2021.2.3,59.90050532590536,
3,6,0,1,3,3,1,2,0,1,1,0,0,0,0,0,63,63,63,,,,,,,,,,,,,,,,,,,,,,,,,,,,,,13,21,female,13,2022_May_06_1258,Partial repeat,2021.2.3,59.90050532590536,
1,1,0,1,2,3,1,1,0,1,0,1,0,1,0,0,64,64,64,0,0,0,0,,,,,,,901.5100060999393,None,903.0260326005518,None,903.8902166001499,None,l,1,0.48406289890408516,903.8902166001499,None,None,None,,,,,,,13,21,female,13,2022_May_06_1258,Partial repeat,2021.2.3,59.90050532590536,
1,1,0,1,2,3,1,1,0,1,0,1,0,1,0,0,64,64,64,1,0,1,0,,,,,,,,,904.3974233008921,None,905.2600464001298,None,s,1,0.5062368996441364,905.2600464001298,None,None,None,,,,,,,13,21,female,13,2022_May_06_1258,Partial repeat,2021.2.3,59.90050532590536,
1,1,0,1,2,3,1,1,0,1,0,1,0,1,0,0,64,64,64,,,,,,,,,,,,,,,,,,,,,,,,,,,,,,13,21,female,13,2022_May_06_1258,Partial repeat,2021.2.3,59.90050532590536,
1,1,0,1,3,2,1,1,1,0,0,1,0,1,0,0,65,65,65,0,0,0,0,,,,,,,905.7827796004713,None,906.4828195013106,None,907.4636954013258,None,s,1,0.5025980994105339,907.4636954013258,None,None,None,,,,,,,13,21,female,13,2022_May_06_1258,Partial repeat,2021.2.3,59.90050532590536,
1,1,0,1,3,2,1,1,1,0,0,1,0,1,0,0,65,65,65,1,0,1,0,,,,,,,,,907.9847776014358,None,908.7827347014099,None,l,1,0.5034996997565031,908.7827347014099,None,None,None,,,,,,,13,21,female,13,2022_May_06_1258,Partial repeat,2021.2.3,59.90050532590536,
1,1,0,1,3,2,1,1,1,0,0,1,0,1,0,0,65,65,65,,,,,,,,,,,,,,,,,,,,,,,,,,,,,,13,21,female,13,2022_May_06_1258,Partial repeat,2021.2.3,59.90050532590536,
1,1,0,1,3,2,1,1,1,1,0,1,1,1,0,0,66,66,66,0,0,0,0,,,,,,,909.3061123006046,None,909.8059350010008,None,910.654081299901,None,s,1,0.4562020990997553,910.654081299901,None,None,None,,,,,,,13,21,female,13,2022_May_06_1258,Partial repeat,2021.2.3,59.90050532590536,
1,1,0,1,3,2,1,1,1,1,0,1,1,1,0,0,66,66,66,1,0,1,0,,,,,,,,,911.1316506005824,None,911.9897199999541,None,s,1,0.4485358987003565,911.9897199999541,None,None,None,,,,,,,13,21,female,13,2022_May_06_1258,Partial repeat,2021.2.3,59.90050532590536,
1,1,0,1,3,2,1,1,1,1,0,1,1,1,0,0,66,66,66,,,,,,,,,,,,,,,,,,,,,,,,,,,,,,13,21,female,13,2022_May_06_1258,Partial repeat,2021.2.3,59.90050532590536,
1,1,0,1,2,2,1,2,1,0,1,0,0,1,0,0,67,67,67,0,0,0,0,,,,,,,912.4532105010003,None,912.8952700011432,None,913.6759424004704,None,s,1,0.41033869981765747,913.6759424004704,None,None,None,,,,,,,13,21,female,13,2022_May_06_1258,Partial repeat,2021.2.3,59.90050532590536,
1,1,0,1,2,2,1,2,1,0,1,0,0,1,0,0,67,67,67,1,0,1,0,,,,,,,,,914.1097188014537,None,915.011499600485,None,l,1,0.4427776988595724,915.011499600485,None,None,None,,,,,,,13,21,female,13,2022_May_06_1258,Partial repeat,2021.2.3,59.90050532590536,
1,1,0,1,2,2,1,2,1,0,1,0,0,1,0,0,67,67,67,,,,,,,,,,,,,,,,,,,,,,,,,,,,,,13,21,female,13,2022_May_06_1258,Partial repeat,2021.2.3,59.90050532590536,
1,1,0,1,3,2,2,1,0,1,0,0,0,1,0,0,68,68,68,0,0,0,0,,,,,,,915.4738948009908,None,915.8843660000712,None,916.7825850006193,None,l,1,0.43169269897043705,916.7825850006193,None,None,None,,,,,,,13,21,female,13,2022_May_06_1258,Partial repeat,2021.2.3,59.90050532590536,
1,1,0,1,3,2,2,1,0,1,0,0,0,1,0,0,68,68,68,1,0,1,0,,,,,,,,,917.2405336014926,None,918.1355931013823,None,l,0,0.3667335994541645,918.1355931013823,None,918.5116669014096,None,,,,,,,13,21,female,13,2022_May_06_1258,Partial repeat,2021.2.3,59.90050532590536,
1,1,0,1,3,2,2,1,0,1,0,0,0,1,0,0,68,68,68,,,,,,,,,,,,,,,,,,,,,,,,,,,,,,13,21,female,13,2022_May_06_1258,Partial repeat,2021.2.3,59.90050532590536,
1,1,0,1,2,3,1,2,0,0,0,0,1,1,0,0,69,69,69,0,0,0,0,,,,,,,919.0239222999662,None,919.7419408001006,None,920.6234553009272,None,l,1,0.3748084008693695,920.6234553009272,None,None,None,,,,,,,13,21,female,13,2022_May_06_1258,Partial repeat,2021.2.3,59.90050532590536,
1,1,0,1,2,3,1,2,0,0,0,0,1,1,0,0,69,69,69,1,0,1,0,,,,,,,,,921.0169674009085,None,921.908593101427,None,l,1,0.37769229896366596,921.908593101427,None,None,None,,,,,,,13,21,female,13,2022_May_06_1258,Partial repeat,2021.2.3,59.90050532590536,
1,1,0,1,2,3,1,2,0,0,0,0,1,1,0,0,69,69,69,,,,,,,,,,,,,,,,,,,,,,,,,,,,,,13,21,female,13,2022_May_06_1258,Partial repeat,2021.2.3,59.90050532590536,
1,1,0,1,3,3,2,2,0,0,1,1,1,1,0,0,70,70,70,0,0,0,0,,,,,,,922.3042287006974,None,923.165276100859,None,924.1128370016813,None,l,1,0.4214908014982939,924.1128370016813,None,None,None,,,,,,,13,21,female,13,2022_May_06_1258,Partial repeat,2021.2.3,59.90050532590536,
1,1,0,1,3,3,2,2,0,0,1,1,1,1,0,0,70,70,70,1,0,1,0,,,,,,,,,924.5481780003756,None,925.4162752013654,None,l,1,0.42197079956531525,925.4162752013654,None,None,None,,,,,,,13,21,female,13,2022_May_06_1258,Partial repeat,2021.2.3,59.90050532590536,
1,1,0,1,3,3,2,2,0,0,1,1,1,1,0,0,70,70,70,,,,,,,,,,,,,,,,,,,,,,,,,,,,,,13,21,female,13,2022_May_06_1258,Partial repeat,2021.2.3,59.90050532590536,
1,1,0,1,2,2,2,2,1,0,1,1,0,1,0,0,71,71,71,0,0,0,0,,,,,,,925.85559300147,None,926.371475700289,None,927.2195001002401,None,s,1,0.4507924001663923,927.2195001002401,None,None,None,,,,,,,13,21,female,13,2022_May_06_1258,Partial repeat,2021.2.3,59.90050532590536,
1,1,0,1,2,2,2,2,1,0,1,1,0,1,0,0,71,71,71,1,0,1,0,,,,,,,,,927.6968336999416,None,928.571648100391,None,l,1,0.5386696998029947,928.571648100391,None,None,None,,,,,,,13,21,female,13,2022_May_06_1258,Partial repeat,2021.2.3,59.90050532590536,
1,1,0,1,2,2,2,2,1,0,1,1,0,1,0,0,71,71,71,,,,,,,,,,,,,,,,,,,,,,,,,,,,,,13,21,female,13,2022_May_06_1258,Partial repeat,2021.2.3,59.90050532590536,
1,1,0,1,3,2,2,2,1,1,0,1,1,1,0,0,72,72,72,0,0,0,0,,,,,,,929.1409261003137,None,929.8449112009257,None,930.70870350115,None,s,1,0.4496343992650509,930.70870350115,None,None,None,,,,,,,13,21,female,13,2022_May_06_1258,Partial repeat,2021.2.3,59.90050532590536,
1,1,0,1,3,2,2,2,1,1,0,1,1,1,0,0,72,72,72,1,0,1,0,,,,,,,,,931.1664660014212,None,931.9612401016057,None,s,1,0.4049782007932663,931.9612401016057,None,None,None,,,,,,,13,21,female,13,2022_May_06_1258,Partial repeat,2021.2.3,59.90050532590536,
1,1,0,1,3,2,2,2,1,1,0,1,1,1,0,0,72,72,72,,,,,,,,,,,,,,,,,,,,,,,,,,,,,,13,21,female,13,2022_May_06_1258,Partial repeat,2021.2.3,59.90050532590536,
1,1,0,1,2,3,1,1,1,0,0,1,0,1,0,0,73,73,73,0,0,0,0,,,,,,,932.3800734002143,None,932.9509661011398,None,933.8818134013563,None,s,1,0.3964552003890276,933.8818134013563,None,None,None,,,,,,,13,21,female,13,2022_May_06_1258,Partial repeat,2021.2.3,59.90050532590536,
1,1,0,1,2,3,1,1,1,0,0,1,0,1,0,0,73,73,73,1,0,1,0,,,,,,,,,934.2967365011573,None,935.1344427000731,None,l,1,0.4558126013725996,935.1344427000731,None,None,None,,,,,,,13,21,female,13,2022_May_06_1258,Partial repeat,2021.2.3,59.90050532590536,
1,1,0,1,2,3,1,1,1,0,0,1,0,1,0,0,73,73,73,,,,,,,,,,,,,,,,,,,,,,,,,,,,,,13,21,female,13,2022_May_06_1258,Partial repeat,2021.2.3,59.90050532590536,
1,1,0,1,3,3,2,1,1,1,1,0,1,1,0,0,74,74,74,0,0,0,0,,,,,,,935.617821900174,None,936.1071202009916,None,937.0889778006822,None,s,1,0.4853537008166313,937.0889778006822,None,None,None,,,,,,,13,21,female,13,2022_May_06_1258,Partial repeat,2021.2.3,59.90050532590536,
1,1,0,1,3,3,2,1,1,1,1,0,1,1,0,0,74,74,74,1,0,1,0,,,,,,,,,937.6008114013821,None,938.6243451014161,None,s,1,0.4699160009622574,938.6243451014161,None,None,None,,,,,,,13,21,female,13,2022_May_06_1258,Partial repeat,2021.2.3,59.90050532590536,
1,1,0,1,3,3,2,1,1,1,1,0,1,1,0,0,74,74,74,,,,,,,,,,,,,,,,,,,,,,,,,,,,,,13,21,female,13,2022_May_06_1258,Partial repeat,2021.2.3,59.90050532590536,
1,1,0,1,3,3,1,1,1,0,1,1,0,1,0,0,75,75,75,0,0,0,0,,,,,,,939.106043100357,None,939.5805431008339,None,940.4443649016321,None,s,1,0.41792949847877026,940.4443649016321,None,None,None,,,,,,,13,21,female,13,2022_May_06_1258,Partial repeat,2021.2.3,59.90050532590536,
1,1,0,1,3,3,1,1,1,0,1,1,0,1,0,0,75,75,75,1,0,1,0,,,,,,,,,940.8794889003038,None,941.6466705016792,None,l,1,0.4316054005175829,941.6466705016792,None,None,None,,,,,,,13,21,female,13,2022_May_06_1258,Partial repeat,2021.2.3,59.90050532590536,
1,1,0,1,3,3,1,1,1,0,1,1,0,1,0,0,75,75,75,,,,,,,,,,,,,,,,,,,,,,,,,,,,,,13,21,female,13,2022_May_06_1258,Partial repeat,2021.2.3,59.90050532590536,
1,1,0,1,2,3,1,2,0,1,0,0,0,1,0,0,76,76,76,0,0,0,0,,,,,,,942.1083055008203,None,942.6030999012291,None,943.5838252007961,None,l,1,0.4224343989044428,943.5838252007961,None,None,None,,,,,,,13,21,female,13,2022_May_06_1258,Partial repeat,2021.2.3,59.90050532590536,
1,1,0,1,2,3,1,2,0,1,0,0,0,1,0,0,76,76,76,1,0,1,0,,,,,,,,,944.0215742010623,None,945.0036620013416,None,s,1,0.578667901456356,945.0036620013416,None,None,None,,,,,,,13,21,female,13,2022_May_06_1258,Partial repeat,2021.2.3,59.90050532590536,
1,1,0,1,2,3,1,2,0,1,0,0,0,1,0,0,76,76,76,,,,,,,,,,,,,,,,,,,,,,,,,,,,,,13,21,female,13,2022_May_06_1258,Partial repeat,2021.2.3,59.90050532590536,
1,1,0,1,2,3,2,1,1,1,0,0,1,1,0,0,77,77,77,0,0,0,0,,,,,,,945.5936211999506,None,946.0931815002114,None,946.8403839003295,None,s,1,0.5978670995682478,946.8403839003295,None,None,None,,,,,,,13,21,female,13,2022_May_06_1258,Partial repeat,2021.2.3,59.90050532590536,
1,1,0,1,2,3,2,1,1,1,0,0,1,1,0,0,77,77,77,1,0,1,0,,,,,,,,,947.4661660008132,None,948.192778300494,None,s,1,0.565506199374795,948.192778300494,None,None,None,,,,,,,13,21,female,13,2022_May_06_1258,Partial repeat,2021.2.3,59.90050532590536,
1,1,0,1,2,3,2,1,1,1,0,0,1,1,0,0,77,77,77,,,,,,,,,,,,,,,,,,,,,,,,,,,,,,13,21,female,13,2022_May_06_1258,Partial repeat,2021.2.3,59.90050532590536,
1,1,0,1,2,2,2,1,0,1,1,0,0,1,0,0,78,78,78,0,0,0,0,,,,,,,948.7831720001996,None,949.2660990003496,None,950.2645422015339,None,l,1,0.4697366990149021,950.2645422015339,None,None,None,,,,,,,13,21,female,13,2022_May_06_1258,Partial repeat,2021.2.3,59.90050532590536,
1,1,0,1,2,2,2,1,0,1,1,0,0,1,0,0,78,78,78,1,0,1,0,,,,,,,,,950.7632713001221,None,951.6331047005951,None,s,1,0.5811957009136677,951.6331047005951,None,None,None,,,,,,,13,21,female,13,2022_May_06_1258,Partial repeat,2021.2.3,59.90050532590536,
1,1,0,1,2,2,2,1,0,1,1,0,0,1,0,0,78,78,78,,,,,,,,,,,,,,,,,,,,,,,,,,,,,,13,21,female,13,2022_May_06_1258,Partial repeat,2021.2.3,59.90050532590536,
1,1,0,1,3,3,1,1,1,1,1,1,1,1,0,0,79,79,79,0,0,0,0,,,,,,,952.2377955000848,None,952.655990799889,None,953.5725146010518,None,s,1,0.4017588999122381,953.5725146010518,None,None,None,,,,,,,13,21,female,13,2022_May_06_1258,Partial repeat,2021.2.3,59.90050532590536,
1,1,0,1,3,3,1,1,1,1,1,1,1,1,0,0,79,79,79,1,0,1,0,,,,,,,,,953.9894281011075,None,954.8232295010239,None,s,1,0.47103009931743145,954.8232295010239,None,None,None,,,,,,,13,21,female,13,2022_May_06_1258,Partial repeat,2021.2.3,59.90050532590536,
1,1,0,1,3,3,1,1,1,1,1,1,1,1,0,0,79,79,79,,,,,,,,,,,,,,,,,,,,,,,,,,,,,,13,21,female,13,2022_May_06_1258,Partial repeat,2021.2.3,59.90050532590536,
1,1,0,1,3,3,1,2,1,0,1,0,0,1,0,0,80,80,80,0,0,0,0,,,,,,,955.3245524000376,None,956.0124882999808,None,956.7594261001796,None,s,1,0.4948538988828659,956.7594261001796,None,None,None,,,,,,,13,21,female,13,2022_May_06_1258,Partial repeat,2021.2.3,59.90050532590536,
1,1,0,1,3,3,1,2,1,0,1,0,0,1,0,0,80,80,80,1,0,1,0,,,,,,,,,957.2766492012888,None,958.0638169012964,None,l,1,0.43047140166163445,958.0638169012964,None,None,None,,,,,,,13,21,female,13,2022_May_06_1258,Partial repeat,2021.2.3,59.90050532590536,
1,1,0,1,3,3,1,2,1,0,1,0,0,1,0,0,80,80,80,,,,,,,,,,,,,,,,,,,,,,,,,,,,,,13,21,female,13,2022_May_06_1258,Partial repeat,2021.2.3,59.90050532590536,
1,1,0,1,2,2,1,1,0,1,1,1,0,1,0,0,81,81,81,0,0,0,0,,,,,,,958.522586800158,None,959.0517573002726,None,960.0664633009583,None,l,1,0.4758195001631975,960.0664633009583,None,None,None,,,,,,,13,21,female,13,2022_May_06_1258,Partial repeat,2021.2.3,59.90050532590536,
1,1,0,1,2,2,1,1,0,1,1,1,0,1,0,0,81,81,81,1,0,1,0,,,,,,,,,960.5668424014002,None,961.5520743001252,None,s,1,0.4782094992697239,961.5520743001252,None,None,None,,,,,,,13,21,female,13,2022_May_06_1258,Partial repeat,2021.2.3,59.90050532590536,
1,1,0,1,2,2,1,1,0,1,1,1,0,1,0,0,81,81,81,,,,,,,,,,,,,,,,,,,,,,,,,,,,,,13,21,female,13,2022_May_06_1258,Partial repeat,2021.2.3,59.90050532590536,
1,1,0,1,2,2,2,2,0,0,1,1,1,1,0,0,82,82,82,0,0,0,0,,,,,,,962.0546008013189,None,962.6921788007021,None,963.4391856007278,None,l,1,0.46309470012784004,963.4391856007278,None,None,None,,,,,,,13,21,female,13,2022_May_06_1258,Partial repeat,2021.2.3,59.90050532590536,
1,1,0,1,2,2,2,2,0,0,1,1,1,1,0,0,82,82,82,1,0,1,0,,,,,,,,,963.917462900281,None,964.8919592015445,None,l,1,0.38644810020923615,964.8919592015445,None,None,None,,,,,,,13,21,female,13,2022_May_06_1258,Partial repeat,2021.2.3,59.90050532590536,
1,1,0,1,2,2,2,2,0,0,1,1,1,1,0,0,82,82,82,,,,,,,,,,,,,,,,,,,,,,,,,,,,,,13,21,female,13,2022_May_06_1258,Partial repeat,2021.2.3,59.90050532590536,
1,1,0,1,2,2,2,1,1,0,1,0,0,1,0,0,83,83,83,0,0,0,0,,,,,,,965.289445200935,None,965.8483196999878,None,966.6463466007262,None,s,1,0.47193160094320774,966.6463466007262,None,None,None,,,,,,,13,21,female,13,2022_May_06_1258,Partial repeat,2021.2.3,59.90050532590536,
1,1,0,1,2,2,2,1,1,0,1,0,0,1,0,0,83,83,83,1,0,1,0,,,,,,,,,967.1431366000324,None,968.031674399972,None,l,1,0.39060969837009907,968.031674399972,None,None,None,,,,,,,13,21,female,13,2022_May_06_1258,Partial repeat,2021.2.3,59.90050532590536,
1,1,0,1,2,2,2,1,1,0,1,0,0,1,0,0,83,83,83,,,,,,,,,,,,,,,,,,,,,,,,,,,,,,13,21,female,13,2022_May_06_1258,Partial repeat,2021.2.3,59.90050532590536,
1,1,0,1,2,2,1,2,0,1,1,0,0,1,0,0,84,84,84,0,0,0,0,,,,,,,968.4488115999848,None,968.8708670008928,None,969.8013825006783,None,l,1,0.5969482008367777,969.8013825006783,None,None,None,,,,,,,13,21,female,13,2022_May_06_1258,Partial repeat,2021.2.3,59.90050532590536,
1,1,0,1,2,2,1,2,0,1,1,0,0,1,0,0,84,84,84,1,0,1,0,,,,,,,,,970.4263299014419,None,971.2709906008095,None,s,1,0.4473688993602991,971.2709906008095,None,None,None,,,,,,,13,21,female,13,2022_May_06_1258,Partial repeat,2021.2.3,59.90050532590536,
1,1,0,1,2,2,1,2,0,1,1,0,0,1,0,0,84,84,84,,,,,,,,,,,,,,,,,,,,,,,,,,,,,,13,21,female,13,2022_May_06_1258,Partial repeat,2021.2.3,59.90050532590536,
1,1,0,1,3,3,1,1,0,1,1,1,0,1,0,0,85,85,85,0,0,0,0,,,,,,,971.7311348002404,None,972.3108610007912,None,973.141467500478,None,l,1,0.368817999958992,973.141467500478,None,None,None,,,,,,,13,21,female,13,2022_May_06_1258,Partial repeat,2021.2.3,59.90050532590536,
1,1,0,1,3,3,1,1,0,1,1,1,0,1,0,0,85,85,85,1,0,1,0,,,,,,,,,973.5307021010667,None,974.4104791004211,None,s,1,0.4597955998033285,974.4104791004211,None,None,None,,,,,,,13,21,female,13,2022_May_06_1258,Partial repeat,2021.2.3,59.90050532590536,
1,1,0,1,3,3,1,1,0,1,1,1,0,1,0,0,85,85,85,,,,,,,,,,,,,,,,,,,,,,,,,,,,,,13,21,female,13,2022_May_06_1258,Partial repeat,2021.2.3,59.90050532590536,
1,1,0,1,2,3,2,2,1,1,0,1,1,1,0,0,86,86,86,0,0,0,0,,,,,,,974.8938951008022,None,975.3499803002924,None,976.3648767005652,None,s,1,0.497393099591136,976.3648767005652,None,None,None,,,,,,,13,21,female,13,2022_May_06_1258,Partial repeat,2021.2.3,59.90050532590536,
1,1,0,1,2,3,2,2,1,1,0,1,1,1,0,0,86,86,86,1,0,1,0,,,,,,,,,976.8853673003614,None,977.7848994005471,None,s,1,0.3733839988708496,977.7848994005471,None,None,None,,,,,,,13,21,female,13,2022_May_06_1258,Partial repeat,2021.2.3,59.90050532590536,
1,1,0,1,2,3,2,2,1,1,0,1,1,1,0,0,86,86,86,,,,,,,,,,,,,,,,,,,,,,,,,,,,,,13,21,female,13,2022_May_06_1258,Partial repeat,2021.2.3,59.90050532590536,
1,1,0,1,3,2,2,2,0,0,0,1,1,1,0,0,87,87,87,0,0,0,0,,,,,,,978.1803371012211,None,978.6398448999971,None,979.3870673011988,None,l,1,0.43522829934954643,979.3870673011988,None,None,None,,,,,,,13,21,female,13,2022_May_06_1258,Partial repeat,2021.2.3,59.90050532590536,
1,1,0,1,3,2,2,2,0,0,0,1,1,1,0,0,87,87,87,1,0,1,0,,,,,,,,,979.8427841998637,None,980.6895631998777,None,l,1,0.3727186005562544,980.6895631998777,None,None,None,,,,,,,13,21,female,13,2022_May_06_1258,Partial repeat,2021.2.3,59.90050532590536,
1,1,0,1,3,2,2,2,0,0,0,1,1,1,0,0,87,87,87,,,,,,,,,,,,,,,,,,,,,,,,,,,,,,13,21,female,13,2022_May_06_1258,Partial repeat,2021.2.3,59.90050532590536,
1,1,0,1,3,3,1,2,0,1,1,0,0,1,0,0,88,88,88,0,0,0,0,,,,,,,981.0842313002795,None,981.6123371999711,None,982.4595786016434,None,l,1,0.41070920042693615,982.4595786016434,None,None,None,,,,,,,13,21,female,13,2022_May_06_1258,Partial repeat,2021.2.3,59.90050532590536,
1,1,0,1,3,3,1,2,0,1,1,0,0,1,0,0,88,88,88,1,0,1,0,,,,,,,,,982.8958276007324,None,983.7790057007223,None,s,1,0.499287499114871,983.7790057007223,None,None,None,,,,,,,13,21,female,13,2022_May_06_1258,Partial repeat,2021.2.3,59.90050532590536,
1,1,0,1,3,3,1,2,0,1,1,0,0,1,0,0,88,88,88,,,,,,,,,,,,,,,,,,,,,,,,,,,,,,13,21,female,13,2022_May_06_1258,Partial repeat,2021.2.3,59.90050532590536,
1,1,0,1,3,3,1,1,0,0,1,1,1,1,0,0,89,89,89,0,0,0,0,,,,,,,984.3035742007196,None,984.7350806016475,None,985.582154000178,None,l,1,0.36811690032482147,985.582154000178,None,None,None,,,,,,,13,21,female,13,2022_May_06_1258,Partial repeat,2021.2.3,59.90050532590536,
1,1,0,1,3,3,1,1,0,0,1,1,1,1,0,0,89,89,89,1,0,1,0,,,,,,,,,985.9721316006035,None,986.851344300434,None,l,1,0.39492989890277386,986.851344300434,None,None,None,,,,,,,13,21,female,13,2022_May_06_1258,Partial repeat,2021.2.3,59.90050532590536,
1,1,0,1,3,3,1,1,0,0,1,1,1,1,0,0,89,89,89,,,,,,,,,,,,,,,,,,,,,,,,,,,,,,13,21,female,13,2022_May_06_1258,Partial repeat,2021.2.3,59.90050532590536,
1,1,0,1,2,3,2,1,0,1,0,0,0,1,0,0,90,90,90,0,0,0,0,,,,,,,987.2696668002754,None,987.8077234011143,None,988.6892322003841,None,l,1,0.5010245013982058,988.6892322003841,None,None,None,,,,,,,13,21,female,13,2022_May_06_1258,Partial repeat,2021.2.3,59.90050532590536,
1,1,0,1,2,3,2,1,0,1,0,0,0,1,0,0,90,90,90,1,0,1,0,,,,,,,,,989.2114955000579,None,990.1247756015509,None,s,1,0.4255643002688885,990.1247756015509,None,None,None,,,,,,,13,21,female,13,2022_May_06_1258,Partial repeat,2021.2.3,59.90050532590536,
1,1,0,1,2,3,2,1,0,1,0,0,0,1,0,0,90,90,90,,,,,,,,,,,,,,,,,,,,,,,,,,,,,,13,21,female,13,2022_May_06_1258,Partial repeat,2021.2.3,59.90050532590536,
1,1,0,1,2,2,1,2,0,0,1,0,1,1,0,0,91,91,91,0,0,0,0,,,,,,,990.5607892014086,None,991.1976561006159,None,992.1449840012938,None,l,1,0.7253778018057346,992.1449840012938,None,None,None,,,,,,,13,21,female,13,2022_May_06_1258,Partial repeat,2021.2.3,59.90050532590536,
1,1,0,1,2,2,1,2,0,0,1,0,1,1,0,0,91,91,91,1,0,1,0,,,,,,,,,992.8983633015305,None,993.6815173998475,None,l,1,0.612771900370717,993.6815173998475,None,None,None,,,,,,,13,21,female,13,2022_May_06_1258,Partial repeat,2021.2.3,59.90050532590536,
1,1,0,1,2,2,1,2,0,0,1,0,1,1,0,0,91,91,91,,,,,,,,,,,,,,,,,,,,,,,,,,,,,,13,21,female,13,2022_May_06_1258,Partial repeat,2021.2.3,59.90050532590536,
1,1,0,1,3,2,2,1,0,0,0,0,1,1,0,0,92,92,92,0,0,0,0,,,,,,,994.3122987002134,None,995.3724221009761,None,996.1873629000038,None,l,1,0.5389236994087696,996.1873629000038,None,None,None,,,,,,,13,21,female,13,2022_May_06_1258,Partial repeat,2021.2.3,59.90050532590536,
1,1,0,1,3,2,2,1,0,0,0,0,1,1,0,0,92,92,92,1,0,1,0,,,,,,,,,996.7492414005101,None,997.5387483015656,None,l,1,0.5875384006649256,997.5387483015656,None,None,None,,,,,,,13,21,female,13,2022_May_06_1258,Partial repeat,2021.2.3,59.90050532590536,
1,1,0,1,3,2,2,1,0,0,0,0,1,1,0,0,92,92,92,,,,,,,,,,,,,,,,,,,,,,,,,,,,,,13,21,female,13,2022_May_06_1258,Partial repeat,2021.2.3,59.90050532590536,
1,1,0,1,3,2,1,2,0,1,0,0,0,1,0,0,93,93,93,0,0,0,0,,,,,,,998.1479130014777,None,998.9627613015473,None,999.7944910004735,None,l,1,0.49980250000953674,999.7944910004735,None,None,None,,,,,,,13,21,female,13,2022_May_06_1258,Partial repeat,2021.2.3,59.90050532590536,
1,1,0,1,3,2,1,2,0,1,0,0,0,1,0,0,93,93,93,1,0,1,0,,,,,,,,,1000.3147750012577,None,1001.2794152013958,None,s,1,0.5268654990941286,1001.2794152013958,None,None,None,,,,,,,13,21,female,13,2022_May_06_1258,Partial repeat,2021.2.3,59.90050532590536,
1,1,0,1,3,2,1,2,0,1,0,0,0,1,0,0,93,93,93,,,,,,,,,,,,,,,,,,,,,,,,,,,,,,13,21,female,13,2022_May_06_1258,Partial repeat,2021.2.3,59.90050532590536,
1,1,0,1,3,2,2,2,1,0,0,1,0,1,0,0,94,94,94,0,0,0,0,,,,,,,1001.8290529008955,None,1002.4862732011825,None,1003.2844420000911,None,s,1,0.4498597998172045,1003.2844420000911,None,None,None,,,,,,,13,21,female,13,2022_May_06_1258,Partial repeat,2021.2.3,59.90050532590536,
1,1,0,1,3,2,2,2,1,0,0,1,0,1,0,0,94,94,94,1,0,1,0,,,,,,,,,1003.7595356013626,None,1004.5359446015209,None,l,1,0.374320300295949,1004.5359446015209,None,None,None,,,,,,,13,21,female,13,2022_May_06_1258,Partial repeat,2021.2.3,59.90050532590536,
1,1,0,1,3,2,2,2,1,0,0,1,0,1,0,0,94,94,94,,,,,,,,,,,,,,,,,,,,,,,,,,,,,,13,21,female,13,2022_May_06_1258,Partial repeat,2021.2.3,59.90050532590536,
1,1,0,1,2,3,1,1,0,0,0,1,1,1,0,0,95,95,95,0,0,0,0,,,,,,,1004.9324834011495,None,1005.7092236001045,None,1006.5062263011932,None,l,1,0.49206910096108913,1006.5062263011932,None,None,None,,,,,,,13,21,female,13,2022_May_06_1258,Partial repeat,2021.2.3,59.90050532590536,
1,1,0,1,2,3,1,1,0,0,0,1,1,1,0,0,95,95,95,1,0,1,0,,,,,,,,,1007.0102101005614,None,1007.863234501332,None,l,1,0.41505520045757294,1007.863234501332,None,None,None,,,,,,,13,21,female,13,2022_May_06_1258,Partial repeat,2021.2.3,59.90050532590536,
1,1,0,1,2,3,1,1,0,0,0,1,1,1,0,0,95,95,95,,,,,,,,,,,,,,,,,,,,,,,,,,,,,,13,21,female,13,2022_May_06_1258,Partial repeat,2021.2.3,59.90050532590536,
1,1,0,1,2,3,2,1,1,0,0,0,0,1,0,0,96,96,96,0,0,0,0,,,,,,,1008.3003751002252,None,1008.9989587012678,None,1009.846199400723,None,s,1,0.45604339987039566,1009.846199400723,None,None,None,,,,,,,13,21,female,13,2022_May_06_1258,Partial repeat,2021.2.3,59.90050532590536,
1,1,0,1,2,3,2,1,1,0,0,0,0,1,0,0,96,96,96,1,0,1,0,,,,,,,,,1010.321626201272,None,1011.0820062998682,None,l,1,0.3802779000252485,1011.0820062998682,None,None,None,,,,,,,13,21,female,13,2022_May_06_1258,Partial repeat,2021.2.3,59.90050532590536,
1,1,0,1,2,3,2,1,1,0,0,0,0,1,0,0,96,96,96,,,,,,,,,,,,,,,,,,,,,,,,,,,,,,13,21,female,13,2022_May_06_1258,Partial repeat,2021.2.3,59.90050532590536,
1,1,0,1,3,3,1,2,0,0,1,0,1,1,0,0,97,97,97,0,0,0,0,,,,,,,1011.4785022009164,None,1013.3907872010022,None,1014.3549374006689,None,l,1,0.4753403998911381,1014.3549374006689,None,None,None,,,,,,,13,21,female,13,2022_May_06_1258,Partial repeat,2021.2.3,59.90050532590536,
1,1,0,1,3,3,1,2,0,0,1,0,1,1,0,0,97,97,97,1,0,1,0,,,,,,,,,1014.856235800311,None,1015.6075086016208,None,l,1,0.3667858000844717,1015.6075086016208,None,None,None,,,,,,,13,21,female,13,2022_May_06_1258,Partial repeat,2021.2.3,59.90050532590536,
1,1,0,1,3,3,1,2,0,0,1,0,1,1,0,0,97,97,97,,,,,,,,,,,,,,,,,,,,,,,,,,,,,,13,21,female,13,2022_May_06_1258,Partial repeat,2021.2.3,59.90050532590536,
1,1,0,1,3,2,2,2,0,1,0,1,0,1,0,0,98,98,98,0,0,0,0,,,,,,,1016.0030364003032,None,1016.7139203008264,None,1017.4443339016289,None,l,1,0.5059548001736403,1017.4443339016289,None,None,None,,,,,,,13,21,female,13,2022_May_06_1258,Partial repeat,2021.2.3,59.90050532590536,
1,1,0,1,3,2,2,2,0,1,0,1,0,1,0,0,98,98,98,1,0,1,0,,,,,,,,,1017.9667421001941,None,1018.8147260006517,None,s,1,0.38365199975669384,1018.8147260006517,None,None,None,,,,,,,13,21,female,13,2022_May_06_1258,Partial repeat,2021.2.3,59.90050532590536,
1,1,0,1,3,2,2,2,0,1,0,1,0,1,0,0,98,98,98,,,,,,,,,,,,,,,,,,,,,,,,,,,,,,13,21,female,13,2022_May_06_1258,Partial repeat,2021.2.3,59.90050532590536,
1,1,0,1,2,3,1,2,1,1,0,0,1,1,0,0,99,99,99,0,0,0,0,,,,,,,1019.2102807015181,None,1019.6864177007228,None,1020.4346372000873,None,s,1,0.37164679914712906,1020.4346372000873,None,None,None,,,,,,,13,21,female,13,2022_May_06_1258,Partial repeat,2021.2.3,59.90050532590536,
1,1,0,1,2,3,1,2,1,1,0,0,1,1,0,0,99,99,99,1,0,1,0,,,,,,,,,1020.8247482012957,None,1021.6036739014089,None,s,1,0.346672298386693,1021.6036739014089,None,None,None,,,,,,,13,21,female,13,2022_May_06_1258,Partial repeat,2021.2.3,59.90050532590536,
1,1,0,1,2,3,1,2,1,1,0,0,1,1,0,0,99,99,99,,,,,,,,,,,,,,,,,,,,,,,,,,,,,,13,21,female,13,2022_May_06_1258,Partial repeat,2021.2.3,59.90050532590536,
1,1,0,1,2,2,2,2,1,1,1,1,1,1,0,0,100,100,100,0,0,0,0,,,,,,,1021.9756896998733,None,1022.5420175008476,None,1023.4725232999772,None,s,1,0.43779359944164753,1023.4725232999772,None,None,None,,,,,,,13,21,female,13,2022_May_06_1258,Partial repeat,2021.2.3,59.90050532590536,
1,1,0,1,2,2,2,2,1,1,1,1,1,1,0,0,100,100,100,1,0,1,0,,,,,,,,,1023.9246966000646,None,1024.674996001646,None,s,1,0.4352941997349262,1024.674996001646,None,None,None,,,,,,,13,21,female,13,2022_May_06_1258,Partial repeat,2021.2.3,59.90050532590536,
1,1,0,1,2,2,2,2,1,1,1,1,1,1,0,0,100,100,100,,,,,,,,,,,,,,,,,,,,,,,,,,,,,,13,21,female,13,2022_May_06_1258,Partial repeat,2021.2.3,59.90050532590536,
1,1,0,1,3,3,2,2,1,0,1,1,0,1,0,0,101,101,101,0,0,0,0,,,,,,,1025.134022301063,None,1025.7315118014812,None,1026.7292174007744,None,s,1,0.33306559920310974,1026.7292174007744,None,None,None,,,,,,,13,21,female,13,2022_May_06_1258,Partial repeat,2021.2.3,59.90050532590536,
1,1,0,1,3,3,2,2,1,0,1,1,0,1,0,0,101,101,101,1,0,1,0,,,,,,,,,1027.0784947015345,None,1027.7977221999317,None,l,1,0.5285727996379137,1027.7977221999317,None,None,None,,,,,,,13,21,female,13,2022_May_06_1258,Partial repeat,2021.2.3,59.90050532590536,
1,1,0,1,3,3,2,2,1,0,1,1,0,1,0,0,101,101,101,,,,,,,,,,,,,,,,,,,,,,,,,,,,,,13,21,female,13,2022_May_06_1258,Partial repeat,2021.2.3,59.90050532590536,
1,1,0,1,3,2,1,2,0,0,0,0,1,1,0,0,102,102,102,0,0,0,0,,,,,,,1028.35287210159,None,1028.8542545009404,None,1029.8521474003792,None,l,1,0.5141439996659756,1029.8521474003792,None,None,None,,,,,,,13,21,female,13,2022_May_06_1258,Partial repeat,2021.2.3,59.90050532590536,
1,1,0,1,3,2,1,2,0,0,0,0,1,1,0,0,102,102,102,1,0,1,0,,,,,,,,,1030.3920490015298,None,1031.1877960003912,None,l,1,0.5224736984819174,1031.1877960003912,None,None,None,,,,,,,13,21,female,13,2022_May_06_1258,Partial repeat,2021.2.3,59.90050532590536,
1,1,0,1,3,2,1,2,0,0,0,0,1,1,0,0,102,102,102,,,,,,,,,,,,,,,,,,,,,,,,,,,,,,13,21,female,13,2022_May_06_1258,Partial repeat,2021.2.3,59.90050532590536,
1,1,0,1,2,2,2,2,0,1,1,1,0,1,0,0,103,103,103,0,0,0,0,,,,,,,1031.7370668016374,None,1032.194066701457,None,1033.1086229998618,None,l,1,0.4976903013885021,1033.1086229998618,None,None,None,,,,,,,13,21,female,13,2022_May_06_1258,Partial repeat,2021.2.3,59.90050532590536,
1,1,0,1,2,2,2,2,0,1,1,1,0,1,0,0,103,103,103,1,0,1,0,,,,,,,,,1033.627464801073,None,1034.3938884008676,None,s,1,0.4043995011597872,1034.3938884008676,None,None,None,,,,,,,13,21,female,13,2022_May_06_1258,Partial repeat,2021.2.3,59.90050532590536,
1,1,0,1,2,2,2,2,0,1,1,1,0,1,0,0,103,103,103,,,,,,,,,,,,,,,,,,,,,,,,,,,,,,13,21,female,13,2022_May_06_1258,Partial repeat,2021.2.3,59.90050532590536,
1,1,0,1,2,3,1,1,1,1,0,1,1,1,0,0,104,104,104,0,0,0,0,,,,,,,1034.8129271008074,None,1035.3669007010758,None,1036.2976514007896,None,s,1,0.5806085001677275,1036.2976514007896,None,None,None,,,,,,,13,21,female,13,2022_May_06_1258,Partial repeat,2021.2.3,59.90050532590536,
1,1,0,1,2,3,1,1,1,1,0,1,1,1,0,0,104,104,104,1,0,1,0,,,,,,,,,1036.9002049006522,None,1037.8840795010328,None,s,1,0.418273501098156,1037.8840795010328,None,None,None,,,,,,,13,21,female,13,2022_May_06_1258,Partial repeat,2021.2.3,59.90050532590536,
1,1,0,1,2,3,1,1,1,1,0,1,1,1,0,0,104,104,104,,,,,,,,,,,,,,,,,,,,,,,,,,,,,,13,21,female,13,2022_May_06_1258,Partial repeat,2021.2.3,59.90050532590536,
1,1,0,1,2,3,2,2,0,1,0,1,0,1,0,0,105,105,105,0,0,0,0,,,,,,,1038.3252070005983,None,1038.7401612009853,None,1039.570679500699,None,l,1,0.4356041010469198,1039.570679500699,None,None,None,,,,,,,13,21,female,13,2022_May_06_1258,Partial repeat,2021.2.3,59.90050532590536,
1,1,0,1,2,3,2,2,0,1,0,1,0,1,0,0,105,105,105,1,0,1,0,,,,,,,,,1040.0281954016536,None,1040.772940300405,None,s,1,0.41734910011291504,1040.772940300405,None,None,None,,,,,,,13,21,female,13,2022_May_06_1258,Partial repeat,2021.2.3,59.90050532590536,
1,1,0,1,2,3,2,2,0,1,0,1,0,1,0,0,105,105,105,,,,,,,,,,,,,,,,,,,,,,,,,,,,,,13,21,female,13,2022_May_06_1258,Partial repeat,2021.2.3,59.90050532590536,
1,1,0,1,3,3,2,1,0,1,1,0,0,1,0,0,106,106,106,0,0,0,0,,,,,,,1041.2131331004202,None,1041.8461886011064,None,1042.676923301071,None,l,1,0.46536249853670597,1042.676923301071,None,None,None,,,,,,,13,21,female,13,2022_May_06_1258,Partial repeat,2021.2.3,59.90050532590536,
1,1,0,1,3,3,2,1,0,1,1,0,0,1,0,0,106,106,106,1,0,1,0,,,,,,,,,1043.155699500814,None,1043.9457791000605,None,s,1,0.47648550011217594,1043.9457791000605,None,None,None,,,,,,,13,21,female,13,2022_May_06_1258,Partial repeat,2021.2.3,59.90050532590536,
1,1,0,1,3,3,2,1,0,1,1,0,0,1,0,0,106,106,106,,,,,,,,,,,,,,,,,,,,,,,,,,,,,,13,21,female,13,2022_May_06_1258,Partial repeat,2021.2.3,59.90050532590536,
1,1,0,1,2,2,2,1,1,1,1,0,1,1,0,0,107,107,107,0,0,0,0,,,,,,,1044.4508213009685,None,1044.8520357012749,None,1045.7335923016071,None,s,1,0.3527274001389742,1045.7335923016071,None,None,None,,,,,,,13,21,female,13,2022_May_06_1258,Partial repeat,2021.2.3,59.90050532590536,
1,1,0,1,2,2,2,1,1,1,1,0,1,1,0,0,107,107,107,1,0,1,0,,,,,,,,,1046.1057047005743,None,1047.0183931998909,None,s,1,0.31589600071310997,1047.0183931998909,None,None,None,,,,,,,13,21,female,13,2022_May_06_1258,Partial repeat,2021.2.3,59.90050532590536,
1,1,0,1,2,2,2,1,1,1,1,0,1,1,0,0,107,107,107,,,,,,,,,,,,,,,,,,,,,,,,,,,,,,13,21,female,13,2022_May_06_1258,Partial repeat,2021.2.3,59.90050532590536,
1,1,0,1,2,3,2,1,0,0,0,0,1,1,0,0,108,108,108,0,0,0,0,,,,,,,1047.3504317998886,None,1047.774411201477,None,1048.6718337014318,None,l,1,0.3825362008064985,1048.6718337014318,None,None,None,,,,,,,13,21,female,13,2022_May_06_1258,Partial repeat,2021.2.3,59.90050532590536,
1,1,0,1,2,3,2,1,0,0,0,0,1,1,0,0,108,108,108,1,0,1,0,,,,,,,,,1049.0655039008707,None,1049.857304500416,None,l,1,0.3889886997640133,1049.857304500416,None,None,None,,,,,,,13,21,female,13,2022_May_06_1258,Partial repeat,2021.2.3,59.90050532590536,
1,1,0,1,2,3,2,1,0,0,0,0,1,1,0,0,108,108,108,,,,,,,,,,,,,,,,,,,,,,,,,,,,,,13,21,female,13,2022_May_06_1258,Partial repeat,2021.2.3,59.90050532590536,
1,1,0,1,2,3,2,2,1,0,0,1,0,1,0,0,109,109,109,0,0,0,0,,,,,,,1050.2744107004255,None,1050.7301584016532,None,1051.5441714003682,None,s,1,0.4461431000381708,1051.5441714003682,None,None,None,,,,,,,13,21,female,13,2022_May_06_1258,Partial repeat,2021.2.3,59.90050532590536,
1,1,0,1,2,3,2,2,1,0,0,1,0,1,0,0,109,109,109,1,0,1,0,,,,,,,,,1051.9991162009537,None,1052.9466949999332,None,l,1,0.37157109938561916,1052.9466949999332,None,None,None,,,,,,,13,21,female,13,2022_May_06_1258,Partial repeat,2021.2.3,59.90050532590536,
1,1,0,1,2,3,2,2,1,0,0,1,0,1,0,0,109,109,109,,,,,,,,,,,,,,,,,,,,,,,,,,,,,,13,21,female,13,2022_May_06_1258,Partial repeat,2021.2.3,59.90050532590536,
1,1,0,1,3,2,2,1,1,0,0,0,0,1,0,0,110,110,110,0,0,0,0,,,,,,,1053.346898600459,None,1053.852957200259,None,1054.5998896006495,None,s,1,0.35836460068821907,1054.5998896006495,None,None,None,,,,,,,13,21,female,13,2022_May_06_1258,Partial repeat,2021.2.3,59.90050532590536,
1,1,0,1,3,2,2,1,1,0,0,0,0,1,0,0,110,110,110,1,0,1,0,,,,,,,,,1054.971500299871,None,1055.9871846009046,None,l,1,0.41910940036177635,1055.9871846009046,None,None,None,,,,,,,13,21,female,13,2022_May_06_1258,Partial repeat,2021.2.3,59.90050532590536,
1,1,0,1,3,2,2,1,1,0,0,0,0,1,0,0,110,110,110,,,,,,,,,,,,,,,,,,,,,,,,,,,,,,13,21,female,13,2022_May_06_1258,Partial repeat,2021.2.3,59.90050532590536,
1,1,0,1,2,3,1,2,1,0,0,0,0,1,0,0,111,111,111,0,0,0,0,,,,,,,1056.4250588007271,None,1057.2595271002501,None,1058.2414177004248,None,s,1,0.38886839896440506,1058.2414177004248,None,None,None,,,,,,,13,21,female,13,2022_May_06_1258,Partial repeat,2021.2.3,59.90050532590536,
1,1,0,1,2,3,1,2,1,0,0,0,0,1,0,0,111,111,111,1,0,1,0,,,,,,,,,1058.6551876012236,None,1059.5594652015716,None,l,1,0.4709045998752117,1059.5594652015716,None,None,None,,,,,,,13,21,female,13,2022_May_06_1258,Partial repeat,2021.2.3,59.90050532590536,
1,1,0,1,2,3,1,2,1,0,0,0,0,1,0,0,111,111,111,,,,,,,,,,,,,,,,,,,,,,,,,,,,,,13,21,female,13,2022_May_06_1258,Partial repeat,2021.2.3,59.90050532590536,
1,1,0,1,3,2,2,1,1,1,0,0,1,1,0,0,112,112,112,0,0,0,0,,,,,,,1060.0423270016909,None,1060.4824534002692,None,1061.3800039011985,None,s,1,0.36228789947927,1061.3800039011985,None,None,None,,,,,,,13,21,female,13,2022_May_06_1258,Partial repeat,2021.2.3,59.90050532590536,
1,1,0,1,3,2,2,1,1,1,0,0,1,1,0,0,112,112,112,1,0,1,0,,,,,,,,,1061.7559801004827,None,1062.6825204007328,None,s,1,0.45977249927818775,1062.6825204007328,None,None,None,,,,,,,13,21,female,13,2022_May_06_1258,Partial repeat,2021.2.3,59.90050532590536,
1,1,0,1,3,2,2,1,1,1,0,0,1,1,0,0,112,112,112,,,,,,,,,,,,,,,,,,,,,,,,,,,,,,13,21,female,13,2022_May_06_1258,Partial repeat,2021.2.3,59.90050532590536,
1,1,0,1,3,3,2,1,0,0,1,0,1,1,0,0,113,113,113,0,0,0,0,,,,,,,1063.1637612003833,None,1063.6719723008573,None,1064.5703625008464,None,l,1,0.4279594998806715,1064.5703625008464,None,None,None,,,,,,,13,21,female,13,2022_May_06_1258,Partial repeat,2021.2.3,59.90050532590536,
1,1,0,1,3,3,2,1,0,0,1,0,1,1,0,0,113,113,113,1,0,1,0,,,,,,,,,1065.0264993011951,None,1065.9896312002093,None,l,1,0.36066019907593727,1065.9896312002093,None,None,None,,,,,,,13,21,female,13,2022_May_06_1258,Partial repeat,2021.2.3,59.90050532590536,
1,1,0,1,3,3,2,1,0,0,1,0,1,1,0,0,113,113,113,,,,,,,,,,,,,,,,,,,,,,,,,,,,,,13,21,female,13,2022_May_06_1258,Partial repeat,2021.2.3,59.90050532590536,
1,1,0,1,3,2,1,2,1,1,0,0,1,1,0,0,114,114,114,0,0,0,0,,,,,,,1066.3661141004413,None,1066.9617532007396,None,1067.8927717003971,None,s,1,0.3615613989531994,1067.8927717003971,None,None,None,,,,,,,13,21,female,13,2022_May_06_1258,Partial repeat,2021.2.3,59.90050532590536,
1,1,0,1,3,2,1,2,1,1,0,0,1,1,0,0,114,114,114,1,0,1,0,,,,,,,,,1068.2822424005717,None,1069.2285520005971,None,s,1,0.36176370084285736,1069.2285520005971,None,None,None,,,,,,,13,21,female,13,2022_May_06_1258,Partial repeat,2021.2.3,59.90050532590536,
1,1,0,1,3,2,1,2,1,1,0,0,1,1,0,0,114,114,114,,,,,,,,,,,,,,,,,,,,,,,,,,,,,,13,21,female,13,2022_May_06_1258,Partial repeat,2021.2.3,59.90050532590536,
1,1,0,1,2,3,2,2,0,0,0,1,1,1,0,0,115,115,115,0,0,0,0,,,,,,,1069.6022859010845,None,1070.0511036999524,None,1070.8147364016622,None,l,1,0.4955094996839762,1070.8147364016622,None,None,None,,,,,,,13,21,female,13,2022_May_06_1258,Partial repeat,2021.2.3,59.90050532590536,
1,1,0,1,2,3,2,2,0,0,0,1,1,1,0,0,115,115,115,1,0,1,0,,,,,,,,,1071.3182975016534,None,1072.3176121003926,None,l,1,0.36064859852194786,1072.3176121003926,None,None,None,,,,,,,13,21,female,13,2022_May_06_1258,Partial repeat,2021.2.3,59.90050532590536,
1,1,0,1,2,3,2,2,0,0,0,1,1,1,0,0,115,115,115,,,,,,,,,,,,,,,,,,,,,,,,,,,,,,13,21,female,13,2022_May_06_1258,Partial repeat,2021.2.3,59.90050532590536,
1,1,0,1,3,3,2,2,0,1,1,1,0,1,0,0,116,116,116,0,0,0,0,,,,,,,1072.6931209005415,None,1073.157114000991,None,1074.021948300302,None,l,1,0.37634540162980556,1074.021948300302,None,None,None,,,,,,,13,21,female,13,2022_May_06_1258,Partial repeat,2021.2.3,59.90050532590536,
1,1,0,1,3,3,2,2,0,1,1,1,0,1,0,0,116,116,116,1,0,1,0,,,,,,,,,1074.4150823000818,None,1075.273631900549,None,s,1,0.4526592995971441,1075.273631900549,None,None,None,,,,,,,13,21,female,13,2022_May_06_1258,Partial repeat,2021.2.3,59.90050532590536,
1,1,0,1,3,3,2,2,0,1,1,1,0,1,0,0,116,116,116,,,,,,,,,,,,,,,,,,,,,,,,,,,,,,13,21,female,13,2022_May_06_1258,Partial repeat,2021.2.3,59.90050532590536,
1,1,0,1,3,3,2,2,1,1,1,1,1,1,0,0,117,117,117,0,0,0,0,,,,,,,1075.7545411009341,None,1076.9143123999238,None,1077.9121435005218,None,s,1,0.3741483986377716,1077.9121435005218,None,None,None,,,,,,,13,21,female,13,2022_May_06_1258,Partial repeat,2021.2.3,59.90050532590536,
1,1,0,1,3,3,2,2,1,1,1,1,1,1,0,0,117,117,117,1,0,1,0,,,,,,,,,1078.3068006001413,None,1079.1309290006757,None,s,1,0.32348980009555817,1079.1309290006757,None,None,None,,,,,,,13,21,female,13,2022_May_06_1258,Partial repeat,2021.2.3,59.90050532590536,
1,1,0,1,3,3,2,2,1,1,1,1,1,1,0,0,117,117,117,,,,,,,,,,,,,,,,,,,,,,,,,,,,,,13,21,female,13,2022_May_06_1258,Partial repeat,2021.2.3,59.90050532590536,
1,1,0,1,3,2,1,1,0,1,0,1,0,1,0,0,118,118,118,0,0,0,0,,,,,,,1079.4659128002822,None,1079.9703491013497,None,1080.9179043006152,None,l,1,0.42438239976763725,1080.9179043006152,None,None,None,,,,,,,13,21,female,13,2022_May_06_1258,Partial repeat,2021.2.3,59.90050532590536,
1,1,0,1,3,2,1,1,0,1,0,1,0,1,0,0,118,118,118,1,0,1,0,,,,,,,,,1081.3693884015083,None,1082.0869024004787,None,s,1,0.4393789004534483,1082.0869024004787,None,None,None,,,,,,,13,21,female,13,2022_May_06_1258,Partial repeat,2021.2.3,59.90050532590536,
1,1,0,1,3,2,1,1,0,1,0,1,0,1,0,0,118,118,118,,,,,,,,,,,,,,,,,,,,,,,,,,,,,,13,21,female,13,2022_May_06_1258,Partial repeat,2021.2.3,59.90050532590536,
1,1,0,1,2,2,1,1,1,1,1,1,1,1,0,0,119,119,119,0,0,0,0,,,,,,,1082.5503740012646,None,1082.9594883006066,None,1083.9238471016288,None,s,1,0.4025782998651266,1083.9238471016288,None,None,None,,,,,,,13,21,female,13,2022_May_06_1258,Partial repeat,2021.2.3,59.90050532590536,
1,1,0,1,2,2,1,1,1,1,1,1,1,1,0,0,119,119,119,1,0,1,0,,,,,,,,,1084.337492801249,None,1085.2428751010448,None,s,1,0.3794129993766546,1085.2428751010448,None,None,None,,,,,,,13,21,female,13,2022_May_06_1258,Partial repeat,2021.2.3,59.90050532590536,
1,1,0,1,2,2,1,1,1,1,1,1,1,1,0,0,119,119,119,,,,,,,,,,,,,,,,,,,,,,,,,,,,,,13,21,female,13,2022_May_06_1258,Partial repeat,2021.2.3,59.90050532590536,
1,1,0,1,2,2,1,2,1,1,1,0,1,1,0,0,120,120,120,0,0,0,0,,,,,,,1085.646056400612,None,1086.0822625998408,None,1086.9129825010896,None,l,0,0.32530529983341694,1086.9129825010896,None,1087.2584768012166,None,,,,,,,13,21,female,13,2022_May_06_1258,Partial repeat,2021.2.3,59.90050532590536,
1,1,0,1,2,2,1,2,1,1,1,0,1,1,0,0,120,120,120,1,0,1,0,,,,,,,,,1087.7688707001507,None,1088.6327482014894,None,s,1,0.4936046004295349,1088.6327482014894,None,None,None,,,,,,,13,21,female,13,2022_May_06_1258,Partial repeat,2021.2.3,59.90050532590536,
1,1,0,1,2,2,1,2,1,1,1,0,1,1,0,0,120,120,120,,,,,,,,,,,,,,,,,,,,,,,,,,,,,,13,21,female,13,2022_May_06_1258,Partial repeat,2021.2.3,59.90050532590536,
1,1,0,1,3,2,1,2,1,0,0,0,0,1,0,0,121,121,121,0,0,0,0,,,,,,,1089.1575416009873,None,1090.1233159005642,None,1091.1053796000779,None,s,1,0.3169486001133919,1091.1053796000779,None,None,None,,,,,,,13,21,female,13,2022_May_06_1258,Partial repeat,2021.2.3,59.90050532590536,
1,1,0,1,3,2,1,2,1,0,0,0,0,1,0,0,121,121,121,1,0,1,0,,,,,,,,,1091.4333644006401,None,1092.1732524000108,None,l,1,0.47307270020246506,1092.1732524000108,None,None,None,,,,,,,13,21,female,13,2022_May_06_1258,Partial repeat,2021.2.3,59.90050532590536,
1,1,0,1,3,2,1,2,1,0,0,0,0,1,0,0,121,121,121,,,,,,,,,,,,,,,,,,,,,,,,,,,,,,13,21,female,13,2022_May_06_1258,Partial repeat,2021.2.3,59.90050532590536,
1,1,0,1,2,2,2,1,0,0,1,0,1,1,0,0,122,122,122,0,0,0,0,,,,,,,1092.6608236003667,None,1093.2462094016373,None,1094.1271241009235,None,l,1,0.42316429875791073,1094.1271241009235,None,None,None,,,,,,,13,21,female,13,2022_May_06_1258,Partial repeat,2021.2.3,59.90050532590536,
1,1,0,1,2,2,2,1,0,0,1,0,1,1,0,0,122,122,122,1,0,1,0,,,,,,,,,1094.5629644002765,None,1095.3290629014373,None,l,1,0.39722929894924164,1095.3290629014373,None,None,None,,,,,,,13,21,female,13,2022_May_06_1258,Partial repeat,2021.2.3,59.90050532590536,
1,1,0,1,2,2,2,1,0,0,1,0,1,1,0,0,122,122,122,,,,,,,,,,,,,,,,,,,,,,,,,,,,,,13,21,female,13,2022_May_06_1258,Partial repeat,2021.2.3,59.90050532590536,
1,1,0,1,3,3,1,2,1,1,1,0,1,1,0,0,123,123,123,0,0,0,0,,,,,,,1095.7462153006345,None,1096.3856095001101,None,1097.2665581014007,None,s,1,0.5477332007139921,1097.2665581014007,None,None,None,,,,,,,13,21,female,13,2022_May_06_1258,Partial repeat,2021.2.3,59.90050532590536,
1,1,0,1,3,3,1,2,1,1,1,0,1,1,0,0,123,123,123,1,0,1,0,,,,,,,,,1097.8311438001692,None,1098.5859955009073,None,s,1,0.468427000567317,1098.5859955009073,None,None,None,,,,,,,13,21,female,13,2022_May_06_1258,Partial repeat,2021.2.3,59.90050532590536,
1,1,0,1,3,3,1,2,1,1,1,0,1,1,0,0,123,123,123,,,,,,,,,,,,,,,,,,,,,,,,,,,,,,13,21,female,13,2022_May_06_1258,Partial repeat,2021.2.3,59.90050532590536,
1,1,0,1,3,3,2,1,1,0,1,0,0,1,0,0,124,124,124,0,0,0,0,,,,,,,1099.0674293003976,None,1099.5751966014504,None,1100.3063732013106,None,s,1,0.3639195002615452,1100.3063732013106,None,None,None,,,,,,,13,21,female,13,2022_May_06_1258,Partial repeat,2021.2.3,59.90050532590536,
1,1,0,1,3,3,2,1,1,0,1,0,0,1,0,0,124,124,124,1,0,1,0,,,,,,,,,1100.6973800007254,None,1101.625272700563,None,s,0,0.3170896004885435,1101.625272700563,None,1101.95355129987,None,,,,,,,13,21,female,13,2022_May_06_1258,Partial repeat,2021.2.3,59.90050532590536,
1,1,0,1,3,3,2,1,1,0,1,0,0,1,0,0,124,124,124,,,,,,,,,,,,,,,,,,,,,,,,,,,,,,13,21,female,13,2022_May_06_1258,Partial repeat,2021.2.3,59.90050532590536,
1,1,0,1,2,2,1,1,0,0,1,1,1,1,0,0,125,125,125,0,0,0,0,,,,,,,1102.464204000309,None,1102.8816481009126,None,1103.6452872008085,None,l,1,0.6810371000319719,1103.6452872008085,None,None,None,,,,,,,13,21,female,13,2022_May_06_1258,Partial repeat,2021.2.3,59.90050532590536,
1,1,0,1,2,2,1,1,0,0,1,1,1,1,0,0,125,125,125,1,0,1,0,,,,,,,,,1104.338475400582,None,1105.0647523999214,None,l,1,0.35749039985239506,1105.0647523999214,None,None,None,,,,,,,13,21,female,13,2022_May_06_1258,Partial repeat,2021.2.3,59.90050532590536,
1,1,0,1,2,2,1,1,0,0,1,1,1,1,0,0,125,125,125,,,,,,,,,,,,,,,,,,,,,,,,,,,,,,13,21,female,13,2022_May_06_1258,Partial repeat,2021.2.3,59.90050532590536,
1,1,0,1,3,2,1,1,0,0,0,1,1,1,0,0,126,126,126,0,0,0,0,,,,,,,1105.4458256009966,None,1105.9375698007643,None,1106.9520085006952,None,l,1,0.39828060008585453,1106.9520085006952,None,None,None,,,,,,,13,21,female,13,2022_May_06_1258,Partial repeat,2021.2.3,59.90050532590536,
1,1,0,1,3,2,1,1,0,0,0,1,1,1,0,0,126,126,126,1,0,1,0,,,,,,,,,1107.3679878003895,None,1108.2375774011016,None,l,1,0.3447147998958826,1108.2375774011016,None,None,None,,,,,,,13,21,female,13,2022_May_06_1258,Partial repeat,2021.2.3,59.90050532590536,
1,1,0,1,3,2,1,1,0,0,0,1,1,1,0,0,126,126,126,,,,,,,,,,,,,,,,,,,,,,,,,,,,,,13,21,female,13,2022_May_06_1258,Partial repeat,2021.2.3,59.90050532590536,
1,1,0,1,2,2,1,1,1,0,1,1,0,1,0,0,127,127,127,0,0,0,0,,,,,,,1108.6102694012225,None,1109.1104370001704,None,1109.8749451003969,None,s,1,0.45937740057706833,1109.8749451003969,None,None,None,,,,,,,13,21,female,13,2022_May_06_1258,Partial repeat,2021.2.3,59.90050532590536,
1,1,0,1,2,2,1,1,1,0,1,1,0,1,0,0,127,127,127,1,0,1,0,,,,,,,,,1110.3518809005618,None,1111.260332699865,None,l,1,0.393953999504447,1111.260332699865,None,None,None,,,,,,,13,21,female,13,2022_May_06_1258,Partial repeat,2021.2.3,59.90050532590536,
1,1,0,1,2,2,1,1,1,0,1,1,0,1,0,0,127,127,127,,,,,,,,,,,,,,,,,,,,,,,,,,,,,,13,21,female,13,2022_May_06_1258,Partial repeat,2021.2.3,59.90050532590536,
1,3,0,1,3,2,1,2,1,1,0,0,1,0,0,0,128,128,128,0,0,0,0,,,,,,,1115.6611993014812,None,1118.5955036003143,None,1119.3425962999463,None,s,1,0.5517269000411034,1119.3425962999463,None,None,None,,,,,,,13,21,female,13,2022_May_06_1258,Partial repeat,2021.2.3,59.90050532590536,
1,3,0,1,3,2,1,2,1,1,0,0,1,0,0,0,128,128,128,1,0,1,0,,,,,,,,,1119.9079980999231,None,1120.6626922003925,None,s,1,0.7676138002425432,1120.6626922003925,None,None,None,,,,,,,13,21,female,13,2022_May_06_1258,Partial repeat,2021.2.3,59.90050532590536,
1,3,0,1,3,2,1,2,1,1,0,0,1,0,0,0,128,128,128,,,,,,,,,,,,,,,,,,,,,,,,,,,,,,13,21,female,13,2022_May_06_1258,Partial repeat,2021.2.3,59.90050532590536,
7,6,0,1,2,2,1,2,1,1,1,0,1,0,0,0,129,129,129,0,0,0,0,,,,,,,1121.4451406002045,None,1122.6701528001577,None,1123.617631200701,None,s,1,0.4846847988665104,1123.617631200701,None,None,None,,,,,,,13,21,female,13,2022_May_06_1258,Partial repeat,2021.2.3,59.90050532590536,
7,6,0,1,2,2,1,2,1,1,1,0,1,0,0,0,129,129,129,1,0,1,0,,,,,,,,,1124.1163997016847,None,1125.0538975000381,None,s,1,0.5043956004083157,1125.0538975000381,None,None,None,,,,,,,13,21,female,13,2022_May_06_1258,Partial repeat,2021.2.3,59.90050532590536,
7,6,0,1,2,2,1,2,1,1,1,0,1,0,0,0,129,129,129,,,,,,,,,,,,,,,,,,,,,,,,,,,,,,13,21,female,13,2022_May_06_1258,Partial repeat,2021.2.3,59.90050532590536,
3,7,0,1,2,2,2,2,0,1,1,1,0,0,0,0,130,130,130,0,0,0,0,,,,,,,1125.5791639015079,None,1125.9932855013758,None,1126.7574772015214,None,l,1,0.4967912994325161,1126.7574772015214,None,None,None,,,,,,,13,21,female,13,2022_May_06_1258,Partial repeat,2021.2.3,59.90050532590536,
3,7,0,1,2,2,2,2,0,1,1,1,0,0,0,0,130,130,130,1,0,1,0,,,,,,,,,1127.2764192000031,None,1128.2599512003362,None,s,1,0.37033459916710854,1128.2599512003362,None,None,None,,,,,,,13,21,female,13,2022_May_06_1258,Partial repeat,2021.2.3,59.90050532590536,
3,7,0,1,2,2,2,2,0,1,1,1,0,0,0,0,130,130,130,,,,,,,,,,,,,,,,,,,,,,,,,,,,,,13,21,female,13,2022_May_06_1258,Partial repeat,2021.2.3,59.90050532590536,
3,1,0,1,2,3,2,1,1,1,0,0,1,0,0,0,131,131,131,0,0,0,0,,,,,,,1128.658852700144,None,1129.065876301378,None,1129.8131001014262,None,s,1,0.6332351993769407,1129.8131001014262,None,None,None,,,,,,,13,21,female,13,2022_May_06_1258,Partial repeat,2021.2.3,59.90050532590536,
3,1,0,1,2,3,2,1,1,1,0,0,1,0,0,0,131,131,131,1,0,1,0,,,,,,,,,1130.463395100087,None,1131.3511039000005,None,l,0,0.4151707999408245,1131.3511039000005,None,1131.7897747009993,None,,,,,,,13,21,female,13,2022_May_06_1258,Partial repeat,2021.2.3,59.90050532590536,
3,1,0,1,2,3,2,1,1,1,0,0,1,0,0,0,131,131,131,,,,,,,,,,,,,,,,,,,,,,,,,,,,,,13,21,female,13,2022_May_06_1258,Partial repeat,2021.2.3,59.90050532590536,
7,2,0,1,2,2,1,1,0,0,1,1,1,0,0,0,132,132,132,0,0,0,0,,,,,,,1132.288822401315,None,1132.7063734009862,None,1133.4533139001578,None,s,0,0.3369277995079756,1133.4533139001578,None,1133.8059210013598,None,,,,,,,13,21,female,13,2022_May_06_1258,Partial repeat,2021.2.3,59.90050532590536,
7,2,0,1,2,2,1,1,0,0,1,1,1,0,0,0,132,132,132,1,0,1,0,,,,,,,,,1134.309301700443,None,1135.0395984016359,None,l,1,0.44665370136499405,1135.0395984016359,None,None,None,,,,,,,13,21,female,13,2022_May_06_1258,Partial repeat,2021.2.3,59.90050532590536,
7,2,0,1,2,2,1,1,0,0,1,1,1,0,0,0,132,132,132,,,,,,,,,,,,,,,,,,,,,,,,,,,,,,13,21,female,13,2022_May_06_1258,Partial repeat,2021.2.3,59.90050532590536,
4,2,0,1,2,3,1,1,1,0,0,1,0,0,0,0,133,133,133,0,0,0,0,,,,,,,1135.4977609012276,None,1137.114923801273,None,1138.0287847016007,None,s,1,0.481478800997138,1138.0287847016007,None,None,None,,,,,,,13,21,female,13,2022_May_06_1258,Partial repeat,2021.2.3,59.90050532590536,
4,2,0,1,2,3,1,1,1,0,0,1,0,0,0,0,133,133,133,1,0,1,0,,,,,,,,,1138.522353200242,None,1139.3826264999807,None,l,1,0.511863999068737,1139.3826264999807,None,None,None,,,,,,,13,21,female,13,2022_May_06_1258,Partial repeat,2021.2.3,59.90050532590536,
4,2,0,1,2,3,1,1,1,0,0,1,0,0,0,0,133,133,133,,,,,,,,,,,,,,,,,,,,,,,,,,,,,,13,21,female,13,2022_May_06_1258,Partial repeat,2021.2.3,59.90050532590536,
4,4,0,1,2,3,2,2,1,0,0,1,0,0,0,0,134,134,134,0,0,0,0,,,,,,,1139.9062627013773,None,1140.471403600648,None,1141.2528788000345,None,s,1,0.5134114008396864,1141.2528788000345,None,None,None,,,,,,,13,21,female,13,2022_May_06_1258,Partial repeat,2021.2.3,59.90050532590536,
4,4,0,1,2,3,2,2,1,0,0,1,0,0,0,0,134,134,134,1,0,1,0,,,,,,,,,1141.7923532016575,None,1142.721452601254,None,l,1,0.5488437991589308,1142.721452601254,None,None,None,,,,,,,13,21,female,13,2022_May_06_1258,Partial repeat,2021.2.3,59.90050532590536,
4,4,0,1,2,3,2,2,1,0,0,1,0,0,0,0,134,134,134,,,,,,,,,,,,,,,,,,,,,,,,,,,,,,13,21,female,13,2022_May_06_1258,Partial repeat,2021.2.3,59.90050532590536,
7,7,0,1,2,3,1,2,1,1,0,0,1,0,0,0,135,135,135,0,0,0,0,,,,,,,1143.2884151004255,None,1143.744456000626,None,1144.5581395011395,None,s,1,0.3921904992312193,1144.5581395011395,None,None,None,,,,,,,13,21,female,13,2022_May_06_1258,Partial repeat,2021.2.3,59.90050532590536,
7,7,0,1,2,3,1,2,1,1,0,0,1,0,0,0,135,135,135,1,0,1,0,,,,,,,,,1144.9736376013607,None,1145.8775569014251,None,s,1,0.37673990055918694,1145.8775569014251,None,None,None,,,,,,,13,21,female,13,2022_May_06_1258,Partial repeat,2021.2.3,59.90050532590536,
7,7,0,1,2,3,1,2,1,1,0,0,1,0,0,0,135,135,135,,,,,,,,,,,,,,,,,,,,,,,,,,,,,,13,21,female,13,2022_May_06_1258,Partial repeat,2021.2.3,59.90050532590536,
2,5,0,1,2,2,2,1,1,0,1,0,0,0,0,0,136,136,136,0,0,0,0,,,,,,,1146.2781091015786,None,1146.8171383012086,None,1147.6812573000789,None,l,0,0.5170455984771252,1147.6812573000789,None,1148.22432509996,None,,,,,,,13,21,female,13,2022_May_06_1258,Partial repeat,2021.2.3,59.90050532590536,
2,5,0,1,2,2,2,1,1,0,1,0,0,0,0,0,136,136,136,1,0,1,0,,,,,,,,,1148.737502001226,None,1149.5358822010458,None,l,1,0.686387199908495,1149.5358822010458,None,None,None,,,,,,,13,21,female,13,2022_May_06_1258,Partial repeat,2021.2.3,59.90050532590536,
2,5,0,1,2,2,2,1,1,0,1,0,0,0,0,0,136,136,136,,,,,,,,,,,,,,,,,,,,,,,,,,,,,,13,21,female,13,2022_May_06_1258,Partial repeat,2021.2.3,59.90050532590536,
5,8,0,1,3,3,1,2,1,0,1,0,0,0,0,0,137,137,137,0,0,0,0,,,,,,,1150.2500892002136,None,1150.8249094001949,None,1151.6386243999004,None,s,1,0.383679399266839,1151.6386243999004,None,None,None,,,,,,,13,21,female,13,2022_May_06_1258,Partial repeat,2021.2.3,59.90050532590536,
5,8,0,1,3,3,1,2,1,0,1,0,0,0,0,0,137,137,137,1,0,1,0,,,,,,,,,1152.0523304007947,None,1152.941084401682,None,l,1,0.6891878992319107,1152.941084401682,None,None,None,,,,,,,13,21,female,13,2022_May_06_1258,Partial repeat,2021.2.3,59.90050532590536,
5,8,0,1,3,3,1,2,1,0,1,0,0,0,0,0,137,137,137,,,,,,,,,,,,,,,,,,,,,,,,,,,,,,13,21,female,13,2022_May_06_1258,Partial repeat,2021.2.3,59.90050532590536,
6,4,0,1,2,2,1,1,1,0,1,1,0,0,0,0,138,138,138,0,0,0,0,,,,,,,1153.6606555003673,None,1154.2649439014494,None,1155.1958776004612,None,s,1,0.4104174990206957,1155.1958776004612,None,None,None,,,,,,,13,21,female,13,2022_May_06_1258,Partial repeat,2021.2.3,59.90050532590536,
6,4,0,1,2,2,1,1,1,0,1,1,0,0,0,0,138,138,138,1,0,1,0,,,,,,,,,1155.6265981011093,None,1156.4145801011473,None,l,1,0.48772980086505413,1156.4145801011473,None,None,None,,,,,,,13,21,female,13,2022_May_06_1258,Partial repeat,2021.2.3,59.90050532590536,
6,4,0,1,2,2,1,1,1,0,1,1,0,0,0,0,138,138,138,,,,,,,,,,,,,,,,,,,,,,,,,,,,,,13,21,female,13,2022_May_06_1258,Partial repeat,2021.2.3,59.90050532590536,
4,1,0,1,3,3,2,1,1,1,1,0,1,0,0,0,139,139,139,0,0,0,0,,,,,,,1156.916419800371,None,1157.4211428016424,None,1158.2850638013333,None,s,1,0.6491935010999441,1158.2850638013333,None,None,None,,,,,,,13,21,female,13,2022_May_06_1258,Partial repeat,2021.2.3,59.90050532590536,
4,1,0,1,3,3,2,1,1,1,1,0,1,0,0,0,139,139,139,1,0,1,0,,,,,,,,,1158.9549835007638,None,1159.9381645005196,None,s,1,0.5241608992218971,1159.9381645005196,None,None,None,,,,,,,13,21,female,13,2022_May_06_1258,Partial repeat,2021.2.3,59.90050532590536,
4,1,0,1,3,3,2,1,1,1,1,0,1,0,0,0,139,139,139,,,,,,,,,,,,,,,,,,,,,,,,,,,,,,13,21,female,13,2022_May_06_1258,Partial repeat,2021.2.3,59.90050532590536,
8,3,0,1,2,3,1,1,0,0,0,1,1,0,0,0,140,140,140,0,0,0,0,,,,,,,1160.4808316007257,None,1160.911248801276,None,1161.725210800767,None,l,1,0.5211167000234127,1161.725210800767,None,None,None,,,,,,,13,21,female,13,2022_May_06_1258,Partial repeat,2021.2.3,59.90050532590536,
8,3,0,1,2,3,1,1,0,0,0,1,1,0,0,0,140,140,140,1,0,1,0,,,,,,,,,1162.2698167003691,None,1163.062105299905,None,l,1,0.640225799754262,1163.062105299905,None,None,None,,,,,,,13,21,female,13,2022_May_06_1258,Partial repeat,2021.2.3,59.90050532590536,
8,3,0,1,2,3,1,1,0,0,0,1,1,0,0,0,140,140,140,,,,,,,,,,,,,,,,,,,,,,,,,,,,,,13,21,female,13,2022_May_06_1258,Partial repeat,2021.2.3,59.90050532590536,
3,4,0,1,3,2,2,2,1,0,0,1,0,0,0,0,141,141,141,0,0,0,0,,,,,,,1163.7126119006425,None,1164.1174683012068,None,1165.0492609012872,None,s,1,0.5889991000294685,1165.0492609012872,None,None,None,,,,,,,13,21,female,13,2022_May_06_1258,Partial repeat,2021.2.3,59.90050532590536,
3,4,0,1,3,2,2,2,1,0,0,1,0,0,0,0,141,141,141,1,0,1,0,,,,,,,,,1165.654552301392,None,1166.5179769005626,None,l,1,0.5443133004009724,1166.5179769005626,None,None,None,,,,,,,13,21,female,13,2022_May_06_1258,Partial repeat,2021.2.3,59.90050532590536,
3,4,0,1,3,2,2,2,1,0,0,1,0,0,0,0,141,141,141,,,,,,,,,,,,,,,,,,,,,,,,,,,,,,13,21,female,13,2022_May_06_1258,Partial repeat,2021.2.3,59.90050532590536,
6,1,0,1,2,3,1,2,0,1,0,0,0,0,0,0,142,142,142,0,0,0,0,,,,,,,1167.084422999993,None,1167.507346700877,None,1168.25543930009,None,l,1,0.7188198007643223,1168.25543930009,None,None,None,,,,,,,13,21,female,13,2022_May_06_1258,Partial repeat,2021.2.3,59.90050532590536,
6,1,0,1,2,3,1,2,0,1,0,0,0,0,0,0,142,142,142,1,0,1,0,,,,,,,,,1168.9872868005186,None,1169.741884900257,None,s,1,0.4643810000270605,1169.741884900257,None,None,None,,,,,,,13,21,female,13,2022_May_06_1258,Partial repeat,2021.2.3,59.90050532590536,
6,1,0,1,2,3,1,2,0,1,0,0,0,0,0,0,142,142,142,,,,,,,,,,,,,,,,,,,,,,,,,,,,,,13,21,female,13,2022_May_06_1258,Partial repeat,2021.2.3,59.90050532590536,
3,8,0,1,3,3,1,1,1,1,1,1,1,0,0,0,143,143,143,0,0,0,0,,,,,,,1170.22208170034,None,1170.6300748009235,None,1171.427137101069,None,s,1,0.4351742994040251,1171.427137101069,None,None,None,,,,,,,13,21,female,13,2022_May_06_1258,Partial repeat,2021.2.3,59.90050532590536,
3,8,0,1,3,3,1,1,1,1,1,1,1,0,0,0,143,143,143,1,0,1,0,,,,,,,,,1171.8862031009048,None,1172.6128083001822,None,s,1,0.37748390063643456,1172.6128083001822,None,None,None,,,,,,,13,21,female,13,2022_May_06_1258,Partial repeat,2021.2.3,59.90050532590536,
3,8,0,1,3,3,1,1,1,1,1,1,1,0,0,0,143,143,143,,,,,,,,,,,,,,,,,,,,,,,,,,,,,,13,21,female,13,2022_May_06_1258,Partial repeat,2021.2.3,59.90050532590536,
4,8,0,1,3,3,2,2,1,0,1,1,0,0,0,0,144,144,144,0,0,0,0,,,,,,,1173.0136104002595,None,1173.4856873005629,None,1174.4164004009217,None,s,1,0.4218942001461983,1174.4164004009217,None,None,None,,,,,,,13,21,female,13,2022_May_06_1258,Partial repeat,2021.2.3,59.90050532590536,
4,8,0,1,3,3,2,2,1,0,1,1,0,0,0,0,144,144,144,1,0,1,0,,,,,,,,,1174.8550582006574,None,1175.6523921005428,None,l,1,0.457947900518775,1175.6523921005428,None,None,None,,,,,,,13,21,female,13,2022_May_06_1258,Partial repeat,2021.2.3,59.90050532590536,
4,8,0,1,3,3,2,2,1,0,1,1,0,0,0,0,144,144,144,,,,,,,,,,,,,,,,,,,,,,,,,,,,,,13,21,female,13,2022_May_06_1258,Partial repeat,2021.2.3,59.90050532590536,
7,3,0,1,3,2,1,1,1,1,0,1,1,0,0,0,145,145,145,0,0,0,0,,,,,,,1176.1388539001346,None,1176.725305100903,None,1177.6226293016225,None,s,1,0.3437320999801159,1177.6226293016225,None,None,None,,,,,,,13,21,female,13,2022_May_06_1258,Partial repeat,2021.2.3,59.90050532590536,
7,3,0,1,3,2,1,1,1,1,0,1,1,0,0,0,145,145,145,1,0,1,0,,,,,,,,,1177.993171799928,None,1178.9085018001497,None,l,0,0.4017885010689497,1178.9085018001497,None,1179.3291723001748,None,,,,,,,13,21,female,13,2022_May_06_1258,Partial repeat,2021.2.3,59.90050532590536,
7,3,0,1,3,2,1,1,1,1,0,1,1,0,0,0,145,145,145,,,,,,,,,,,,,,,,,,,,,,,,,,,,,,13,21,female,13,2022_May_06_1258,Partial repeat,2021.2.3,59.90050532590536,
1,7,0,1,3,2,2,2,0,1,0,1,0,0,0,0,146,146,146,0,0,0,0,,,,,,,1179.831397600472,None,1180.0484593007714,None,1180.962628500536,None,s,0,0.42767149955034256,1180.962628500536,None,1181.4165644012392,None,,,,,,,13,21,female,13,2022_May_06_1258,Partial repeat,2021.2.3,59.90050532590536,
1,7,0,1,3,2,2,2,0,1,0,1,0,0,0,0,146,146,146,1,0,1,0,,,,,,,,,1181.9187352005392,None,1182.715932700783,None,s,1,0.6983588989824057,1182.715932700783,None,None,None,,,,,,,13,21,female,13,2022_May_06_1258,Partial repeat,2021.2.3,59.90050532590536,
1,7,0,1,3,2,2,2,0,1,0,1,0,0,0,0,146,146,146,,,,,,,,,,,,,,,,,,,,,,,,,,,,,,13,21,female,13,2022_May_06_1258,Partial repeat,2021.2.3,59.90050532590536,
1,2,0,1,2,2,1,1,0,1,1,1,0,0,0,0,147,147,147,0,0,0,0,,,,,,,1183.4333558008075,None,1184.0729203000665,None,1184.9544092006981,None,l,1,0.5398638006299734,1184.9544092006981,None,None,None,,,,,,,13,21,female,13,2022_May_06_1258,Partial repeat,2021.2.3,59.90050532590536,
1,2,0,1,2,2,1,1,0,1,1,1,0,0,0,0,147,147,147,1,0,1,0,,,,,,,,,1185.5186328012496,None,1186.5066913999617,None,l,0,0.3875968996435404,1186.5066913999617,None,1186.9224498998374,None,,,,,,,13,21,female,13,2022_May_06_1258,Partial repeat,2021.2.3,59.90050532590536,
1,2,0,1,2,2,1,1,0,1,1,1,0,0,0,0,147,147,147,,,,,,,,,,,,,,,,,,,,,,,,,,,,,,13,21,female,13,2022_May_06_1258,Partial repeat,2021.2.3,59.90050532590536,
7,8,0,1,3,3,1,2,1,1,1,0,1,0,0,0,148,148,148,0,0,0,0,,,,,,,1187.4295393005013,None,1188.4314664006233,None,1189.1949029006064,None,s,1,0.3794001005589962,1189.1949029006064,None,None,None,,,,,,,13,21,female,13,2022_May_06_1258,Partial repeat,2021.2.3,59.90050532590536,
7,8,0,1,3,3,1,2,1,1,1,0,1,0,0,0,148,148,148,1,0,1,0,,,,,,,,,1189.5890715010464,None,1190.3141727000475,None,s,1,0.6281182002276182,1190.3141727000475,None,None,None,,,,,,,13,21,female,13,2022_May_06_1258,Partial repeat,2021.2.3,59.90050532590536,
7,8,0,1,3,3,1,2,1,1,1,0,1,0,0,0,148,148,148,,,,,,,,,,,,,,,,,,,,,,,,,,,,,,13,21,female,13,2022_May_06_1258,Partial repeat,2021.2.3,59.90050532590536,
7,4,0,1,3,2,1,2,0,1,0,0,0,0,0,0,149,149,149,0,0,0,0,,,,,,,1190.9652955010533,None,1191.8380515016615,None,1192.6353707015514,None,s,0,0.36300409957766533,1192.6353707015514,None,1193.0092791002244,None,,,,,,,13,21,female,13,2022_May_06_1258,Partial repeat,2021.2.3,59.90050532590536,
7,4,0,1,3,2,1,2,0,1,0,0,0,0,0,0,149,149,149,1,0,1,0,,,,,,,,,1193.5246584005654,None,1194.4570269007236,None,s,1,0.49332510121166706,1194.4570269007236,None,None,None,,,,,,,13,21,female,13,2022_May_06_1258,Partial repeat,2021.2.3,59.90050532590536,
7,4,0,1,3,2,1,2,0,1,0,0,0,0,0,0,149,149,149,,,,,,,,,,,,,,,,,,,,,,,,,,,,,,13,21,female,13,2022_May_06_1258,Partial repeat,2021.2.3,59.90050532590536,
5,1,0,1,2,2,2,1,1,1,1,0,1,0,0,0,150,150,150,0,0,0,0,,,,,,,1194.9606222007424,None,1195.4951304011047,None,1196.4094447009265,None,s,1,0.4048819001764059,1196.4094447009265,None,None,None,,,,,,,13,21,female,13,2022_May_06_1258,Partial repeat,2021.2.3,59.90050532590536,
5,1,0,1,2,2,2,1,1,1,1,0,1,0,0,0,150,150,150,1,0,1,0,,,,,,,,,1196.8420017007738,None,1197.6622182000428,None,s,1,0.46417259983718395,1197.6622182000428,None,None,None,,,,,,,13,21,female,13,2022_May_06_1258,Partial repeat,2021.2.3,59.90050532590536,
5,1,0,1,2,2,2,1,1,1,1,0,1,0,0,0,150,150,150,,,,,,,,,,,,,,,,,,,,,,,,,,,,,,13,21,female,13,2022_May_06_1258,Partial repeat,2021.2.3,59.90050532590536,
