prime_tar_pos,probe_tar_pos,dimension,tar_color,prime_dist_color,probe_dist_color,prime_dist_shape,probe_dist_shape,prime_tar_dot_pos,probe_tar_dot_pos,col_rep,shape_rep,resp_rep,pos_fixed,sparse,MainLoop.thisRepN,MainLoop.thisTrialN,MainLoop.thisN,MainLoop.thisIndex,PrimeProbe.thisRepN,PrimeProbe.thisTrialN,PrimeProbe.thisN,PrimeProbe.thisIndex,Instruction.started,Instruction.stopped,instruction_key.keys,instruction_key.rt,instruction_key.started,instruction_key.stopped,PairStartText.started,PairStartText.stopped,FixCross.started,FixCross.stopped,SearchFixCross.started,SearchFixCross.stopped,key_resp.keys,key_resp.corr,key_resp.rt,key_resp.started,key_resp.stopped,feedback_text.started,feedback_text.stopped,text_finish.started,text_finish.stopped,finish_key.keys,finish_key.rt,finish_key.started,finish_key.stopped,participant,age,gender,group,date,expName,psychopyVersion,frameRate,
,,,,,,,,,,,,,,,,,,,,,,,502.488164300099,None,space,26.45680660009384,502.488164300099,None,,,,,,,,,,,,,,,,,,,,14,20,female,14,2022_May_06_1258,Partial repeat,2021.2.3,59.871563241552245,
6,6,0,1,2,2,1,1,0,0,1,1,1,1,0,0,0,0,0,0,0,0,0,,,,,,,529.0587788000703,None,533.4420931003988,None,534.1728776004165,None,s,0,5.147783700376749,534.1728776004165,None,539.3498426005244,None,,,,,,,14,20,female,14,2022_May_06_1258,Partial repeat,2021.2.3,59.871563241552245,
6,6,0,1,2,2,1,1,0,0,1,1,1,1,0,0,0,0,0,1,0,1,0,,,,,,,,,539.8546312004328,None,540.6852224990726,None,l,1,4.923404300585389,540.6852224990726,None,None,None,,,,,,,14,20,female,14,2022_May_06_1258,Partial repeat,2021.2.3,59.871563241552245,
6,6,0,1,2,2,1,1,0,0,1,1,1,1,0,0,0,0,0,,,,,,,,,,,,,,,,,,,,,,,,,,,,,,14,20,female,14,2022_May_06_1258,Partial repeat,2021.2.3,59.871563241552245,
6,6,0,1,2,3,1,1,1,1,0,1,1,1,0,0,1,1,1,0,0,0,0,,,,,,,545.6368090994656,None,548.0538817998022,None,548.8011175002903,None,s,1,1.7355107013136148,548.8011175002903,None,None,None,,,,,,,14,20,female,14,2022_May_06_1258,Partial repeat,2021.2.3,59.871563241552245,
6,6,0,1,2,3,1,1,1,1,0,1,1,1,0,0,1,1,1,1,0,1,0,,,,,,,,,550.5607903990895,None,551.3560357987881,None,s,1,1.1405687984079123,551.3560357987881,None,None,None,,,,,,,14,20,female,14,2022_May_06_1258,Partial repeat,2021.2.3,59.871563241552245,
6,6,0,1,2,3,1,1,1,1,0,1,1,1,0,0,1,1,1,,,,,,,,,,,,,,,,,,,,,,,,,,,,,,14,20,female,14,2022_May_06_1258,Partial repeat,2021.2.3,59.871563241552245,
6,6,0,1,3,2,2,1,1,0,0,0,0,1,0,0,2,2,2,0,0,0,0,,,,,,,552.5072588995099,None,556.1028717998415,None,556.9835231993347,None,s,1,1.4651129003614187,556.9835231993347,None,None,None,,,,,,,14,20,female,14,2022_May_06_1258,Partial repeat,2021.2.3,59.871563241552245,
6,6,0,1,3,2,2,1,1,0,0,0,0,1,0,0,2,2,2,1,0,1,0,,,,,,,,,558.4602684993297,None,559.2544344998896,None,l,1,1.226163499057293,559.2544344998896,None,None,None,,,,,,,14,20,female,14,2022_May_06_1258,Partial repeat,2021.2.3,59.871563241552245,
6,6,0,1,3,2,2,1,1,0,0,0,0,1,0,0,2,2,2,,,,,,,,,,,,,,,,,,,,,,,,,,,,,,14,20,female,14,2022_May_06_1258,Partial repeat,2021.2.3,59.871563241552245,
6,6,0,1,3,2,2,2,1,0,0,1,0,1,0,0,3,3,3,0,0,0,0,,,,,,,560.4953479003161,None,561.7137841004878,None,562.5107271987945,None,s,1,0.9539593011140823,562.5107271987945,None,None,None,,,,,,,14,20,female,14,2022_May_06_1258,Partial repeat,2021.2.3,59.871563241552245,
6,6,0,1,3,2,2,2,1,0,0,1,0,1,0,0,3,3,3,1,0,1,0,,,,,,,,,563.4741354994476,None,564.3810318000615,None,l,1,1.3156119994819164,564.3810318000615,None,None,None,,,,,,,14,20,female,14,2022_May_06_1258,Partial repeat,2021.2.3,59.871563241552245,
6,6,0,1,3,2,2,2,1,0,0,1,0,1,0,0,3,3,3,,,,,,,,,,,,,,,,,,,,,,,,,,,,,,14,20,female,14,2022_May_06_1258,Partial repeat,2021.2.3,59.871563241552245,
6,6,0,1,3,2,2,1,1,1,0,0,1,1,0,0,4,4,4,0,0,0,0,,,,,,,565.7159550003707,None,568.9946324992925,None,569.8921117000282,None,s,1,0.9644897002726793,569.8921117000282,None,None,None,,,,,,,14,20,female,14,2022_May_06_1258,Partial repeat,2021.2.3,59.871563241552245,
6,6,0,1,3,2,2,1,1,1,0,0,1,1,0,0,4,4,4,1,0,1,0,,,,,,,,,570.8799299001694,None,571.6786008998752,None,s,1,0.9700164999812841,571.6786008998752,None,None,None,,,,,,,14,20,female,14,2022_May_06_1258,Partial repeat,2021.2.3,59.871563241552245,
6,6,0,1,3,2,2,1,1,1,0,0,1,1,0,0,4,4,4,,,,,,,,,,,,,,,,,,,,,,,,,,,,,,14,20,female,14,2022_May_06_1258,Partial repeat,2021.2.3,59.871563241552245,
6,6,0,1,3,2,1,2,0,0,0,0,1,1,0,0,5,5,5,0,0,0,0,,,,,,,572.6744606997818,None,574.0711922999471,None,574.9850168991834,None,l,1,1.231633698567748,574.9850168991834,None,None,None,,,,,,,14,20,female,14,2022_May_06_1258,Partial repeat,2021.2.3,59.871563241552245,
6,6,0,1,3,2,1,2,0,0,0,0,1,1,0,0,5,5,5,1,0,1,0,,,,,,,,,576.2420693989843,None,577.0892836991698,None,l,1,0.8793659005314112,577.0892836991698,None,None,None,,,,,,,14,20,female,14,2022_May_06_1258,Partial repeat,2021.2.3,59.871563241552245,
6,6,0,1,3,2,1,2,0,0,0,0,1,1,0,0,5,5,5,,,,,,,,,,,,,,,,,,,,,,,,,,,,,,14,20,female,14,2022_May_06_1258,Partial repeat,2021.2.3,59.871563241552245,
6,6,0,1,3,3,1,2,0,0,1,0,1,1,0,0,6,6,6,0,0,0,0,,,,,,,577.9884941000491,None,578.6799835991114,None,579.5618494991213,None,l,1,0.8307790998369455,579.5618494991213,None,None,None,,,,,,,14,20,female,14,2022_May_06_1258,Partial repeat,2021.2.3,59.871563241552245,
6,6,0,1,3,3,1,2,0,0,1,0,1,1,0,0,6,6,6,1,0,1,0,,,,,,,,,580.4009491987526,None,581.1640825998038,None,l,1,0.7645737994462252,581.1640825998038,None,None,None,,,,,,,14,20,female,14,2022_May_06_1258,Partial repeat,2021.2.3,59.871563241552245,
6,6,0,1,3,3,1,2,0,0,1,0,1,1,0,0,6,6,6,,,,,,,,,,,,,,,,,,,,,,,,,,,,,,14,20,female,14,2022_May_06_1258,Partial repeat,2021.2.3,59.871563241552245,
6,6,0,1,3,3,1,1,0,1,1,1,0,1,0,0,7,7,7,0,0,0,0,,,,,,,581.9494936987758,None,582.8716269992292,None,583.7861235998571,None,l,1,0.8624990992248058,583.7861235998571,None,None,None,,,,,,,14,20,female,14,2022_May_06_1258,Partial repeat,2021.2.3,59.871563241552245,
6,6,0,1,3,3,1,1,0,1,1,1,0,1,0,0,7,7,7,1,0,1,0,,,,,,,,,584.6659187991172,None,585.3888626992702,None,s,1,0.9157934989780188,585.3888626992702,None,None,None,,,,,,,14,20,female,14,2022_May_06_1258,Partial repeat,2021.2.3,59.871563241552245,
6,6,0,1,3,3,1,1,0,1,1,1,0,1,0,0,7,7,7,,,,,,,,,,,,,,,,,,,,,,,,,,,,,,14,20,female,14,2022_May_06_1258,Partial repeat,2021.2.3,59.871563241552245,
6,6,0,1,3,3,1,1,1,0,1,1,0,1,0,0,8,8,8,0,0,0,0,,,,,,,586.3206877987832,None,587.2635395992547,None,588.0437857992947,None,s,1,0.9648812003433704,588.0437857992947,None,None,None,,,,,,,14,20,female,14,2022_May_06_1258,Partial repeat,2021.2.3,59.871563241552245,
6,6,0,1,3,3,1,1,1,0,1,1,0,1,0,0,8,8,8,1,0,1,0,,,,,,,,,589.0356817990541,None,590.0313085000962,None,l,1,0.9533182010054588,590.0313085000962,None,None,None,,,,,,,14,20,female,14,2022_May_06_1258,Partial repeat,2021.2.3,59.871563241552245,
6,6,0,1,3,3,1,1,1,0,1,1,0,1,0,0,8,8,8,,,,,,,,,,,,,,,,,,,,,,,,,,,,,,14,20,female,14,2022_May_06_1258,Partial repeat,2021.2.3,59.871563241552245,
6,6,0,1,3,2,1,1,1,1,0,1,1,1,0,0,9,9,9,0,0,0,0,,,,,,,591.0048452001065,None,592.5571062993258,None,593.4387037996203,None,s,1,0.9859378002583981,593.4387037996203,None,None,None,,,,,,,14,20,female,14,2022_May_06_1258,Partial repeat,2021.2.3,59.871563241552245,
6,6,0,1,3,2,1,1,1,1,0,1,1,1,0,0,9,9,9,1,0,1,0,,,,,,,,,594.4533191993833,None,595.1912644989789,None,s,1,0.6654651015996933,595.1912644989789,None,None,None,,,,,,,14,20,female,14,2022_May_06_1258,Partial repeat,2021.2.3,59.871563241552245,
6,6,0,1,3,2,1,1,1,1,0,1,1,1,0,0,9,9,9,,,,,,,,,,,,,,,,,,,,,,,,,,,,,,14,20,female,14,2022_May_06_1258,Partial repeat,2021.2.3,59.871563241552245,
6,6,0,1,2,3,2,2,1,0,0,1,0,1,0,0,10,10,10,0,0,0,0,,,,,,,595.8831431996077,None,597.9676201995462,None,598.915514299646,None,s,1,0.9011053014546633,598.915514299646,None,None,None,,,,,,,14,20,female,14,2022_May_06_1258,Partial repeat,2021.2.3,59.871563241552245,
6,6,0,1,2,3,2,2,1,0,0,1,0,1,0,0,10,10,10,1,0,1,0,,,,,,,,,599.8368191998452,None,600.7857888005674,None,l,1,0.9588596988469362,600.7857888005674,None,None,None,,,,,,,14,20,female,14,2022_May_06_1258,Partial repeat,2021.2.3,59.871563241552245,
6,6,0,1,2,3,2,2,1,0,0,1,0,1,0,0,10,10,10,,,,,,,,,,,,,,,,,,,,,,,,,,,,,,14,20,female,14,2022_May_06_1258,Partial repeat,2021.2.3,59.871563241552245,
6,6,0,1,2,2,1,1,1,0,1,1,0,1,0,0,11,11,11,0,0,0,0,,,,,,,601.7617723997682,None,603.5117358993739,None,604.3591970987618,None,s,1,0.4974194001406431,604.3591970987618,None,None,None,,,,,,,14,20,female,14,2022_May_06_1258,Partial repeat,2021.2.3,59.871563241552245,
6,6,0,1,2,2,1,1,1,0,1,1,0,1,0,0,11,11,11,1,0,1,0,,,,,,,,,604.8837716002017,None,605.8795388992876,None,l,1,0.529110599309206,605.8795388992876,None,None,None,,,,,,,14,20,female,14,2022_May_06_1258,Partial repeat,2021.2.3,59.871563241552245,
6,6,0,1,2,2,1,1,1,0,1,1,0,1,0,0,11,11,11,,,,,,,,,,,,,,,,,,,,,,,,,,,,,,14,20,female,14,2022_May_06_1258,Partial repeat,2021.2.3,59.871563241552245,
6,6,0,1,3,2,2,1,0,0,0,0,1,1,0,0,12,12,12,0,0,0,0,,,,,,,606.4255587998778,None,607.3359131999314,None,608.2834155987948,None,l,1,0.6211204007267952,608.2834155987948,None,None,None,,,,,,,14,20,female,14,2022_May_06_1258,Partial repeat,2021.2.3,59.871563241552245,
6,6,0,1,3,2,2,1,0,0,0,0,1,1,0,0,12,12,12,1,0,1,0,,,,,,,,,608.9221864994615,None,609.685953900218,None,l,1,0.3307425007224083,609.685953900218,None,None,None,,,,,,,14,20,female,14,2022_May_06_1258,Partial repeat,2021.2.3,59.871563241552245,
6,6,0,1,3,2,2,1,0,0,0,0,1,1,0,0,12,12,12,,,,,,,,,,,,,,,,,,,,,,,,,,,,,,14,20,female,14,2022_May_06_1258,Partial repeat,2021.2.3,59.871563241552245,
6,6,0,1,2,2,2,2,0,0,1,1,1,1,0,0,13,13,13,0,0,0,0,,,,,,,610.0391584001482,None,610.725843500346,None,611.6565582994372,None,l,1,0.488111300393939,611.6565582994372,None,None,None,,,,,,,14,20,female,14,2022_May_06_1258,Partial repeat,2021.2.3,59.871563241552245,
6,6,0,1,2,2,2,2,0,0,1,1,1,1,0,0,13,13,13,1,0,1,0,,,,,,,,,612.1707381997257,None,613.1436203997582,None,l,1,0.3371593002229929,613.1436203997582,None,None,None,,,,,,,14,20,female,14,2022_May_06_1258,Partial repeat,2021.2.3,59.871563241552245,
6,6,0,1,2,2,2,2,0,0,1,1,1,1,0,0,13,13,13,,,,,,,,,,,,,,,,,,,,,,,,,,,,,,14,20,female,14,2022_May_06_1258,Partial repeat,2021.2.3,59.871563241552245,
6,6,0,1,3,2,1,2,0,1,0,0,0,1,0,0,14,14,14,0,0,0,0,,,,,,,613.4950421005487,None,615.0509143006057,None,615.9319116994739,None,l,1,0.37267580069601536,615.9319116994739,None,None,None,,,,,,,14,20,female,14,2022_May_06_1258,Partial repeat,2021.2.3,59.871563241552245,
6,6,0,1,3,2,1,2,0,1,0,0,0,1,0,0,14,14,14,1,0,1,0,,,,,,,,,616.3216069992632,None,617.2508696988225,None,s,1,0.5657761003822088,617.2508696988225,None,None,None,,,,,,,14,20,female,14,2022_May_06_1258,Partial repeat,2021.2.3,59.871563241552245,
6,6,0,1,3,2,1,2,0,1,0,0,0,1,0,0,14,14,14,,,,,,,,,,,,,,,,,,,,,,,,,,,,,,14,20,female,14,2022_May_06_1258,Partial repeat,2021.2.3,59.871563241552245,
6,6,0,1,3,2,1,1,0,0,0,1,1,1,0,0,15,15,15,0,0,0,0,,,,,,,617.8416574001312,None,618.6412468999624,None,619.4561390001327,None,l,1,0.888714199885726,619.4561390001327,None,None,None,,,,,,,14,20,female,14,2022_May_06_1258,Partial repeat,2021.2.3,59.871563241552245,
6,6,0,1,3,2,1,1,0,0,0,1,1,1,0,0,15,15,15,1,0,1,0,,,,,,,,,620.3564154002815,None,621.275315599516,None,l,1,0.4054645001888275,621.275315599516,None,None,None,,,,,,,14,20,female,14,2022_May_06_1258,Partial repeat,2021.2.3,59.871563241552245,
6,6,0,1,3,2,1,1,0,0,0,1,1,1,0,0,15,15,15,,,,,,,,,,,,,,,,,,,,,,,,,,,,,,14,20,female,14,2022_May_06_1258,Partial repeat,2021.2.3,59.871563241552245,
6,6,0,1,3,3,1,2,1,1,1,0,1,1,0,0,16,16,16,0,0,0,0,,,,,,,621.6935894005001,None,622.3484329991043,None,623.2458679005504,None,s,1,0.4908312000334263,623.2458679005504,None,None,None,,,,,,,14,20,female,14,2022_May_06_1258,Partial repeat,2021.2.3,59.871563241552245,
6,6,0,1,3,3,1,2,1,1,1,0,1,1,0,0,16,16,16,1,0,1,0,,,,,,,,,623.7649865988642,None,624.7488515004516,None,s,1,0.36378709971904755,624.7488515004516,None,None,None,,,,,,,14,20,female,14,2022_May_06_1258,Partial repeat,2021.2.3,59.871563241552245,
6,6,0,1,3,3,1,2,1,1,1,0,1,1,0,0,16,16,16,,,,,,,,,,,,,,,,,,,,,,,,,,,,,,14,20,female,14,2022_May_06_1258,Partial repeat,2021.2.3,59.871563241552245,
6,6,0,1,3,2,1,1,0,1,0,1,0,1,0,0,17,17,17,0,0,0,0,,,,,,,625.128184299916,None,625.7717956993729,None,626.753541899845,None,l,1,0.41507080011069775,626.753541899845,None,None,None,,,,,,,14,20,female,14,2022_May_06_1258,Partial repeat,2021.2.3,59.871563241552245,
6,6,0,1,3,2,1,1,0,1,0,1,0,1,0,0,17,17,17,1,0,1,0,,,,,,,,,627.1862447988242,None,628.0383998993784,None,s,1,0.4022472985088825,628.0383998993784,None,None,None,,,,,,,14,20,female,14,2022_May_06_1258,Partial repeat,2021.2.3,59.871563241552245,
6,6,0,1,3,2,1,1,0,1,0,1,0,1,0,0,17,17,17,,,,,,,,,,,,,,,,,,,,,,,,,,,,,,14,20,female,14,2022_May_06_1258,Partial repeat,2021.2.3,59.871563241552245,
6,6,0,1,3,2,2,2,0,1,0,1,0,1,0,0,18,18,18,0,0,0,0,,,,,,,628.4559527989477,None,629.1282602995634,None,629.8590847998857,None,l,1,0.49356479942798615,629.8590847998857,None,None,None,,,,,,,14,20,female,14,2022_May_06_1258,Partial repeat,2021.2.3,59.871563241552245,
6,6,0,1,3,2,2,2,0,1,0,1,0,1,0,0,18,18,18,1,0,1,0,,,,,,,,,630.3753526993096,None,631.228853000328,None,s,1,0.4597940016537905,631.228853000328,None,None,None,,,,,,,14,20,female,14,2022_May_06_1258,Partial repeat,2021.2.3,59.871563241552245,
6,6,0,1,3,2,2,2,0,1,0,1,0,1,0,0,18,18,18,,,,,,,,,,,,,,,,,,,,,,,,,,,,,,14,20,female,14,2022_May_06_1258,Partial repeat,2021.2.3,59.871563241552245,
6,6,0,1,2,2,1,2,1,0,1,0,0,1,0,0,19,19,19,0,0,0,0,,,,,,,631.7119573000818,None,632.6517740003765,None,633.483093900606,None,s,1,0.5095578003674746,633.483093900606,None,None,None,,,,,,,14,20,female,14,2022_May_06_1258,Partial repeat,2021.2.3,59.871563241552245,
6,6,0,1,2,2,1,2,1,0,1,0,0,1,0,0,19,19,19,1,0,1,0,,,,,,,,,634.0010854993016,None,634.9018041994423,None,l,1,0.4908476993441582,634.9018041994423,None,None,None,,,,,,,14,20,female,14,2022_May_06_1258,Partial repeat,2021.2.3,59.871563241552245,
6,6,0,1,2,2,1,2,1,0,1,0,0,1,0,0,19,19,19,,,,,,,,,,,,,,,,,,,,,,,,,,,,,,14,20,female,14,2022_May_06_1258,Partial repeat,2021.2.3,59.871563241552245,
6,6,0,1,3,3,2,2,0,1,1,1,0,1,0,0,20,20,20,0,0,0,0,,,,,,,635.423362499103,None,636.1753358002752,None,636.9072078000754,None,l,1,0.5095740985125303,636.9072078000754,None,None,None,,,,,,,14,20,female,14,2022_May_06_1258,Partial repeat,2021.2.3,59.871563241552245,
6,6,0,1,3,3,2,2,0,1,1,1,0,1,0,0,20,20,20,1,0,1,0,,,,,,,,,637.4273188002408,None,638.1914208997041,None,s,1,0.44119500182569027,638.1914208997041,None,None,None,,,,,,,14,20,female,14,2022_May_06_1258,Partial repeat,2021.2.3,59.871563241552245,
6,6,0,1,3,3,2,2,0,1,1,1,0,1,0,0,20,20,20,,,,,,,,,,,,,,,,,,,,,,,,,,,,,,14,20,female,14,2022_May_06_1258,Partial repeat,2021.2.3,59.871563241552245,
6,6,0,1,2,2,2,1,0,0,1,0,1,1,0,0,21,21,21,0,0,0,0,,,,,,,638.6533048991114,None,639.2646542005241,None,640.0811735000461,None,l,1,0.4955371990799904,640.0811735000461,None,None,None,,,,,,,14,20,female,14,2022_May_06_1258,Partial repeat,2021.2.3,59.871563241552245,
6,6,0,1,2,2,2,1,0,0,1,0,1,1,0,0,21,21,21,1,0,1,0,,,,,,,,,640.6044653002173,None,641.331930000335,None,l,1,0.4606843013316393,641.331930000335,None,None,None,,,,,,,14,20,female,14,2022_May_06_1258,Partial repeat,2021.2.3,59.871563241552245,
6,6,0,1,2,2,2,1,0,0,1,0,1,1,0,0,21,21,21,,,,,,,,,,,,,,,,,,,,,,,,,,,,,,14,20,female,14,2022_May_06_1258,Partial repeat,2021.2.3,59.871563241552245,
6,6,0,1,3,2,1,1,1,0,0,1,0,1,0,0,22,22,22,0,0,0,0,,,,,,,641.8122025001794,None,642.6045466996729,None,643.568701999262,None,s,1,0.44802930019795895,643.568701999262,None,None,None,,,,,,,14,20,female,14,2022_May_06_1258,Partial repeat,2021.2.3,59.871563241552245,
6,6,0,1,3,2,1,1,1,0,0,1,0,1,0,0,22,22,22,1,0,1,0,,,,,,,,,644.028653299436,None,644.8210351001471,None,l,1,0.39556150138378143,644.8210351001471,None,None,None,,,,,,,14,20,female,14,2022_May_06_1258,Partial repeat,2021.2.3,59.871563241552245,
6,6,0,1,3,2,1,1,1,0,0,1,0,1,0,0,22,22,22,,,,,,,,,,,,,,,,,,,,,,,,,,,,,,14,20,female,14,2022_May_06_1258,Partial repeat,2021.2.3,59.871563241552245,
6,6,0,1,2,2,2,1,1,0,1,0,0,1,0,0,23,23,23,0,0,0,0,,,,,,,645.2400543987751,None,645.994392098859,None,646.8084714002907,None,s,1,0.5521576013416052,646.8084714002907,None,None,None,,,,,,,14,20,female,14,2022_May_06_1258,Partial repeat,2021.2.3,59.871563241552245,
6,6,0,1,2,2,2,1,1,0,1,0,0,1,0,0,23,23,23,1,0,1,0,,,,,,,,,647.3877115994692,None,648.3780217990279,None,l,1,0.4145561996847391,648.3780217990279,None,None,None,,,,,,,14,20,female,14,2022_May_06_1258,Partial repeat,2021.2.3,59.871563241552245,
6,6,0,1,2,2,2,1,1,0,1,0,0,1,0,0,23,23,23,,,,,,,,,,,,,,,,,,,,,,,,,,,,,,14,20,female,14,2022_May_06_1258,Partial repeat,2021.2.3,59.871563241552245,
6,6,0,1,2,3,2,1,0,0,0,0,1,1,0,0,24,24,24,0,0,0,0,,,,,,,648.8145971000195,None,649.284128298983,None,650.2653269004077,None,l,1,0.5752787999808788,650.2653269004077,None,None,None,,,,,,,14,20,female,14,2022_May_06_1258,Partial repeat,2021.2.3,59.871563241552245,
6,6,0,1,2,3,2,1,0,0,0,0,1,1,0,0,24,24,24,1,0,1,0,,,,,,,,,650.8489902000874,None,651.8513126987964,None,l,1,0.8533413987606764,651.8513126987964,None,None,None,,,,,,,14,20,female,14,2022_May_06_1258,Partial repeat,2021.2.3,59.871563241552245,
6,6,0,1,2,3,2,1,0,0,0,0,1,1,0,0,24,24,24,,,,,,,,,,,,,,,,,,,,,,,,,,,,,,14,20,female,14,2022_May_06_1258,Partial repeat,2021.2.3,59.871563241552245,
6,6,0,1,2,2,2,1,0,1,1,0,0,1,0,0,25,25,25,0,0,0,0,,,,,,,652.7188930995762,None,653.4255359005183,None,654.3227669000626,None,l,1,0.5499434992671013,654.3227669000626,None,None,None,,,,,,,14,20,female,14,2022_May_06_1258,Partial repeat,2021.2.3,59.871563241552245,
6,6,0,1,2,2,2,1,0,1,1,0,0,1,0,0,25,25,25,1,0,1,0,,,,,,,,,654.8808514997363,None,655.8433467000723,None,s,1,1.1412733998149633,655.8433467000723,None,None,None,,,,,,,14,20,female,14,2022_May_06_1258,Partial repeat,2021.2.3,59.871563241552245,
6,6,0,1,2,2,2,1,0,1,1,0,0,1,0,0,25,25,25,,,,,,,,,,,,,,,,,,,,,,,,,,,,,,14,20,female,14,2022_May_06_1258,Partial repeat,2021.2.3,59.871563241552245,
6,6,0,1,3,3,2,1,0,0,1,0,1,1,0,0,26,26,26,0,0,0,0,,,,,,,657.008920699358,None,657.5669400002807,None,658.4808009006083,None,l,1,0.6957991998642683,658.4808009006083,None,None,None,,,,,,,14,20,female,14,2022_May_06_1258,Partial repeat,2021.2.3,59.871563241552245,
6,6,0,1,3,3,2,1,0,0,1,0,1,1,0,0,26,26,26,1,0,1,0,,,,,,,,,659.1916976999491,None,659.9839407000691,None,l,1,0.41674410179257393,659.9839407000691,None,None,None,,,,,,,14,20,female,14,2022_May_06_1258,Partial repeat,2021.2.3,59.871563241552245,
6,6,0,1,3,3,2,1,0,0,1,0,1,1,0,0,26,26,26,,,,,,,,,,,,,,,,,,,,,,,,,,,,,,14,20,female,14,2022_May_06_1258,Partial repeat,2021.2.3,59.871563241552245,
6,6,0,1,2,2,1,2,1,1,1,0,1,1,0,0,27,27,27,0,0,0,0,,,,,,,660.4205274991691,None,661.0404193997383,None,661.8385675996542,None,s,1,0.4741438999772072,661.8385675996542,None,None,None,,,,,,,14,20,female,14,2022_May_06_1258,Partial repeat,2021.2.3,59.871563241552245,
6,6,0,1,2,2,1,2,1,1,1,0,1,1,0,0,27,27,27,1,0,1,0,,,,,,,,,662.3210789002478,None,663.3240735996515,None,s,1,1.276570100337267,663.3240735996515,None,None,None,,,,,,,14,20,female,14,2022_May_06_1258,Partial repeat,2021.2.3,59.871563241552245,
6,6,0,1,2,2,1,2,1,1,1,0,1,1,0,0,27,27,27,,,,,,,,,,,,,,,,,,,,,,,,,,,,,,14,20,female,14,2022_May_06_1258,Partial repeat,2021.2.3,59.871563241552245,
6,6,0,1,3,3,2,1,1,0,1,0,0,1,0,0,28,28,28,0,0,0,0,,,,,,,664.6269591003656,None,665.0648963991553,None,665.8120364993811,None,s,1,0.5565929003059864,665.8120364993811,None,None,None,,,,,,,14,20,female,14,2022_May_06_1258,Partial repeat,2021.2.3,59.871563241552245,
6,6,0,1,3,3,2,1,1,0,1,0,0,1,0,0,28,28,28,1,0,1,0,,,,,,,,,666.3975680992007,None,667.4150986000896,None,l,1,0.4735350999981165,667.4150986000896,None,None,None,,,,,,,14,20,female,14,2022_May_06_1258,Partial repeat,2021.2.3,59.871563241552245,
6,6,0,1,3,3,2,1,1,0,1,0,0,1,0,0,28,28,28,,,,,,,,,,,,,,,,,,,,,,,,,,,,,,14,20,female,14,2022_May_06_1258,Partial repeat,2021.2.3,59.871563241552245,
6,6,0,1,2,3,2,2,0,1,0,1,0,1,0,0,29,29,29,0,0,0,0,,,,,,,667.8994414005429,None,668.3212438989431,None,669.1024079993367,None,l,1,0.4981877990067005,669.1024079993367,None,None,None,,,,,,,14,20,female,14,2022_May_06_1258,Partial repeat,2021.2.3,59.871563241552245,
6,6,0,1,2,3,2,2,0,1,0,1,0,1,0,0,29,29,29,1,0,1,0,,,,,,,,,669.6225471999496,None,670.5377275999635,None,s,1,0.4148835986852646,670.5377275999635,None,None,None,,,,,,,14,20,female,14,2022_May_06_1258,Partial repeat,2021.2.3,59.871563241552245,
6,6,0,1,2,3,2,2,0,1,0,1,0,1,0,0,29,29,29,,,,,,,,,,,,,,,,,,,,,,,,,,,,,,14,20,female,14,2022_May_06_1258,Partial repeat,2021.2.3,59.871563241552245,
6,6,0,1,2,3,1,2,1,0,0,0,0,1,0,0,30,30,30,0,0,0,0,,,,,,,670.9752440992743,None,671.4272415991873,None,672.2578809000552,None,s,1,0.5188063010573387,672.2578809000552,None,None,None,,,,,,,14,20,female,14,2022_May_06_1258,Partial repeat,2021.2.3,59.871563241552245,
6,6,0,1,2,3,1,2,1,0,0,0,0,1,0,0,30,30,30,1,0,1,0,,,,,,,,,672.7963398005813,None,673.5780704990029,None,l,1,1.422572199255228,673.5780704990029,None,None,None,,,,,,,14,20,female,14,2022_May_06_1258,Partial repeat,2021.2.3,59.871563241552245,
6,6,0,1,2,3,1,2,1,0,0,0,0,1,0,0,30,30,30,,,,,,,,,,,,,,,,,,,,,,,,,,,,,,14,20,female,14,2022_May_06_1258,Partial repeat,2021.2.3,59.871563241552245,
6,6,0,1,3,3,1,2,1,0,1,0,0,1,0,0,31,31,31,0,0,0,0,,,,,,,675.0217962991446,None,675.75233989954,None,676.500336099416,None,s,1,0.6042576991021633,676.500336099416,None,None,None,,,,,,,14,20,female,14,2022_May_06_1258,Partial repeat,2021.2.3,59.871563241552245,
6,6,0,1,3,3,1,2,1,0,1,0,0,1,0,0,31,31,31,1,0,1,0,,,,,,,,,677.1295705996454,None,677.9023788999766,None,l,1,0.5142135992646217,677.9023788999766,None,None,None,,,,,,,14,20,female,14,2022_May_06_1258,Partial repeat,2021.2.3,59.871563241552245,
6,6,0,1,3,3,1,2,1,0,1,0,0,1,0,0,31,31,31,,,,,,,,,,,,,,,,,,,,,,,,,,,,,,14,20,female,14,2022_May_06_1258,Partial repeat,2021.2.3,59.871563241552245,
6,6,0,1,3,3,2,2,1,0,1,1,0,1,0,0,32,32,32,0,0,0,0,,,,,,,678.4282309990376,None,678.9753067996353,None,679.8557516001165,None,s,1,0.5528588984161615,679.8557516001165,None,None,None,,,,,,,14,20,female,14,2022_May_06_1258,Partial repeat,2021.2.3,59.871563241552245,
6,6,0,1,3,3,2,2,1,0,1,1,0,1,0,0,32,32,32,1,0,1,0,,,,,,,,,680.4375583995134,None,681.2272250000387,None,l,1,0.47741209901869297,681.2272250000387,None,None,None,,,,,,,14,20,female,14,2022_May_06_1258,Partial repeat,2021.2.3,59.871563241552245,
6,6,0,1,3,3,2,2,1,0,1,1,0,1,0,0,32,32,32,,,,,,,,,,,,,,,,,,,,,,,,,,,,,,14,20,female,14,2022_May_06_1258,Partial repeat,2021.2.3,59.871563241552245,
6,6,0,1,2,2,2,1,1,1,1,0,1,1,0,0,33,33,33,0,0,0,0,,,,,,,681.7308127004653,None,682.2149343993515,None,683.145768199116,None,s,1,0.5110692009329796,683.145768199116,None,None,None,,,,,,,14,20,female,14,2022_May_06_1258,Partial repeat,2021.2.3,59.871563241552245,
6,6,0,1,2,2,2,1,1,1,1,0,1,1,0,0,33,33,33,1,0,1,0,,,,,,,,,683.6661757994443,None,684.6654640994966,None,s,1,0.39919430017471313,684.6654640994966,None,None,None,,,,,,,14,20,female,14,2022_May_06_1258,Partial repeat,2021.2.3,59.871563241552245,
6,6,0,1,2,2,2,1,1,1,1,0,1,1,0,0,33,33,33,,,,,,,,,,,,,,,,,,,,,,,,,,,,,,14,20,female,14,2022_May_06_1258,Partial repeat,2021.2.3,59.871563241552245,
6,6,0,1,2,3,2,1,1,1,0,0,1,1,0,0,34,34,34,0,0,0,0,,,,,,,685.0864812992513,None,685.5046791993082,None,686.284888099879,None,s,1,0.46771879866719246,686.284888099879,None,None,None,,,,,,,14,20,female,14,2022_May_06_1258,Partial repeat,2021.2.3,59.871563241552245,
6,6,0,1,2,3,2,1,1,1,0,0,1,1,0,0,34,34,34,1,0,1,0,,,,,,,,,686.7672343999147,None,687.6545804999769,None,s,1,0.42605610005557537,687.6545804999769,None,None,None,,,,,,,14,20,female,14,2022_May_06_1258,Partial repeat,2021.2.3,59.871563241552245,
6,6,0,1,2,3,2,1,1,1,0,0,1,1,0,0,34,34,34,,,,,,,,,,,,,,,,,,,,,,,,,,,,,,14,20,female,14,2022_May_06_1258,Partial repeat,2021.2.3,59.871563241552245,
6,6,0,1,3,2,2,1,0,1,0,0,0,1,0,0,35,35,35,0,0,0,0,,,,,,,688.1086929999292,None,688.5105167999864,None,689.4413008000702,None,l,1,0.607336800545454,689.4413008000702,None,None,None,,,,,,,14,20,female,14,2022_May_06_1258,Partial repeat,2021.2.3,59.871563241552245,
6,6,0,1,3,2,2,1,0,1,0,0,0,1,0,0,35,35,35,1,0,1,0,,,,,,,,,690.0704682003707,None,691.0445009991527,None,s,1,0.5400981996208429,691.0445009991527,None,None,None,,,,,,,14,20,female,14,2022_May_06_1258,Partial repeat,2021.2.3,59.871563241552245,
6,6,0,1,3,2,2,1,0,1,0,0,0,1,0,0,35,35,35,,,,,,,,,,,,,,,,,,,,,,,,,,,,,,14,20,female,14,2022_May_06_1258,Partial repeat,2021.2.3,59.871563241552245,
6,6,0,1,3,3,1,1,1,1,1,1,1,1,0,0,36,36,36,0,0,0,0,,,,,,,691.6093418002129,None,692.1342546995729,None,693.1149960998446,None,s,1,0.5416058991104364,693.1149960998446,None,None,None,,,,,,,14,20,female,14,2022_May_06_1258,Partial repeat,2021.2.3,59.871563241552245,
6,6,0,1,3,3,1,1,1,1,1,1,1,1,0,0,36,36,36,1,0,1,0,,,,,,,,,693.6753988992423,None,694.4174262005836,None,s,1,0.4552106000483036,694.4174262005836,None,None,None,,,,,,,14,20,female,14,2022_May_06_1258,Partial repeat,2021.2.3,59.871563241552245,
6,6,0,1,3,3,1,1,1,1,1,1,1,1,0,0,36,36,36,,,,,,,,,,,,,,,,,,,,,,,,,,,,,,14,20,female,14,2022_May_06_1258,Partial repeat,2021.2.3,59.871563241552245,
6,6,0,1,2,3,1,1,1,0,0,1,0,1,0,0,37,37,37,0,0,0,0,,,,,,,694.9013311993331,None,695.3905349001288,None,696.2882610987872,None,s,1,0.5604031011462212,696.2882610987872,None,None,None,,,,,,,14,20,female,14,2022_May_06_1258,Partial repeat,2021.2.3,59.871563241552245,
6,6,0,1,2,3,1,1,1,0,0,1,0,1,0,0,37,37,37,1,0,1,0,,,,,,,,,696.8601341992617,None,697.8574960995466,None,l,1,0.551264701411128,697.8574960995466,None,None,None,,,,,,,14,20,female,14,2022_May_06_1258,Partial repeat,2021.2.3,59.871563241552245,
6,6,0,1,2,3,1,1,1,0,0,1,0,1,0,0,37,37,37,,,,,,,,,,,,,,,,,,,,,,,,,,,,,,14,20,female,14,2022_May_06_1258,Partial repeat,2021.2.3,59.871563241552245,
6,6,0,1,3,2,1,2,1,0,0,0,0,1,0,0,38,38,38,0,0,0,0,,,,,,,698.4206229988486,None,699.1143974997103,None,700.062979798764,None,s,1,0.58568200096488,700.062979798764,None,None,None,,,,,,,14,20,female,14,2022_May_06_1258,Partial repeat,2021.2.3,59.871563241552245,
6,6,0,1,3,2,1,2,1,0,0,0,0,1,0,0,38,38,38,1,0,1,0,,,,,,,,,700.6760093998164,None,701.4482978992164,None,l,1,0.4963524006307125,701.4482978992164,None,None,None,,,,,,,14,20,female,14,2022_May_06_1258,Partial repeat,2021.2.3,59.871563241552245,
6,6,0,1,3,2,1,2,1,0,0,0,0,1,0,0,38,38,38,,,,,,,,,,,,,,,,,,,,,,,,,,,,,,14,20,female,14,2022_May_06_1258,Partial repeat,2021.2.3,59.871563241552245,
6,6,0,1,3,3,2,1,1,1,1,0,1,1,0,0,39,39,39,0,0,0,0,,,,,,,701.9737806990743,None,702.4876915998757,None,703.435291999951,None,s,1,0.6293602008372545,703.435291999951,None,None,None,,,,,,,14,20,female,14,2022_May_06_1258,Partial repeat,2021.2.3,59.871563241552245,
6,6,0,1,3,3,2,1,1,1,1,0,1,1,0,0,39,39,39,1,0,1,0,,,,,,,,,704.0789831988513,None,704.8380497992039,None,s,1,0.41067670099437237,704.8380497992039,None,None,None,,,,,,,14,20,female,14,2022_May_06_1258,Partial repeat,2021.2.3,59.871563241552245,
6,6,0,1,3,3,2,1,1,1,1,0,1,1,0,0,39,39,39,,,,,,,,,,,,,,,,,,,,,,,,,,,,,,14,20,female,14,2022_May_06_1258,Partial repeat,2021.2.3,59.871563241552245,
6,6,0,1,2,2,1,2,0,1,1,0,0,1,0,0,40,40,40,0,0,0,0,,,,,,,705.2778356000781,None,705.660518700257,None,706.658210799098,None,l,1,0.41442800126969814,706.658210799098,None,None,None,,,,,,,14,20,female,14,2022_May_06_1258,Partial repeat,2021.2.3,59.871563241552245,
6,6,0,1,2,2,1,2,0,1,1,0,0,1,0,0,40,40,40,1,0,1,0,,,,,,,,,707.0935798995197,None,707.8937221001834,None,s,1,0.4349258001893759,707.8937221001834,None,None,None,,,,,,,14,20,female,14,2022_May_06_1258,Partial repeat,2021.2.3,59.871563241552245,
6,6,0,1,2,2,1,2,0,1,1,0,0,1,0,0,40,40,40,,,,,,,,,,,,,,,,,,,,,,,,,,,,,,14,20,female,14,2022_May_06_1258,Partial repeat,2021.2.3,59.871563241552245,
6,6,0,1,2,3,2,2,0,0,0,1,1,1,0,0,41,41,41,0,0,0,0,,,,,,,708.3580281995237,None,708.816706199199,None,709.6136892996728,None,l,1,0.8589315004646778,709.6136892996728,None,None,None,,,,,,,14,20,female,14,2022_May_06_1258,Partial repeat,2021.2.3,59.871563241552245,
6,6,0,1,2,3,2,2,0,0,0,1,1,1,0,0,41,41,41,1,0,1,0,,,,,,,,,710.4955797996372,None,711.4506582003087,None,l,1,0.3979900013655424,711.4506582003087,None,None,None,,,,,,,14,20,female,14,2022_May_06_1258,Partial repeat,2021.2.3,59.871563241552245,
6,6,0,1,2,3,2,2,0,0,0,1,1,1,0,0,41,41,41,,,,,,,,,,,,,,,,,,,,,,,,,,,,,,14,20,female,14,2022_May_06_1258,Partial repeat,2021.2.3,59.871563241552245,
6,6,0,1,2,3,1,2,1,1,0,0,1,1,0,0,42,42,42,0,0,0,0,,,,,,,711.8671269994229,None,714.945293199271,None,715.7102582994848,None,s,1,0.9863635003566742,715.7102582994848,None,None,None,,,,,,,14,20,female,14,2022_May_06_1258,Partial repeat,2021.2.3,59.871563241552245,
6,6,0,1,2,3,1,2,1,1,0,0,1,1,0,0,42,42,42,1,0,1,0,,,,,,,,,716.7239947002381,None,717.4794587995857,None,s,1,0.5050969999283552,717.4794587995857,None,None,None,,,,,,,14,20,female,14,2022_May_06_1258,Partial repeat,2021.2.3,59.871563241552245,
6,6,0,1,2,3,1,2,1,1,0,0,1,1,0,0,42,42,42,,,,,,,,,,,,,,,,,,,,,,,,,,,,,,14,20,female,14,2022_May_06_1258,Partial repeat,2021.2.3,59.871563241552245,
6,6,0,1,3,3,2,2,1,1,1,1,1,1,0,0,43,43,43,0,0,0,0,,,,,,,718.0037080999464,None,718.452162200585,None,719.2327081002295,None,s,1,0.5521336011588573,719.2327081002295,None,None,None,,,,,,,14,20,female,14,2022_May_06_1258,Partial repeat,2021.2.3,59.871563241552245,
6,6,0,1,3,3,2,2,1,1,1,1,1,1,0,0,43,43,43,1,0,1,0,,,,,,,,,719.7961276005954,None,720.6030573993921,None,s,1,0.4215855002403259,720.6030573993921,None,None,None,,,,,,,14,20,female,14,2022_May_06_1258,Partial repeat,2021.2.3,59.871563241552245,
6,6,0,1,3,3,2,2,1,1,1,1,1,1,0,0,43,43,43,,,,,,,,,,,,,,,,,,,,,,,,,,,,,,14,20,female,14,2022_May_06_1258,Partial repeat,2021.2.3,59.871563241552245,
6,6,0,1,2,3,2,1,1,0,0,0,0,1,0,0,44,44,44,0,0,0,0,,,,,,,721.0788182001561,None,721.5748420003802,None,722.3398023992777,None,s,1,0.6048284005373716,722.3398023992777,None,None,None,,,,,,,14,20,female,14,2022_May_06_1258,Partial repeat,2021.2.3,59.871563241552245,
6,6,0,1,2,3,2,1,1,0,0,0,0,1,0,0,44,44,44,1,0,1,0,,,,,,,,,722.9647364988923,None,723.8916947990656,None,l,1,0.5409360993653536,723.8916947990656,None,None,None,,,,,,,14,20,female,14,2022_May_06_1258,Partial repeat,2021.2.3,59.871563241552245,
6,6,0,1,2,3,2,1,1,0,0,0,0,1,0,0,44,44,44,,,,,,,,,,,,,,,,,,,,,,,,,,,,,,14,20,female,14,2022_May_06_1258,Partial repeat,2021.2.3,59.871563241552245,
6,6,0,1,2,2,2,2,1,0,1,1,0,1,0,0,45,45,45,0,0,0,0,,,,,,,724.4594611003995,None,724.931367399171,None,725.7787902001292,None,s,1,0.8858887013047934,725.7787902001292,None,None,None,,,,,,,14,20,female,14,2022_May_06_1258,Partial repeat,2021.2.3,59.871563241552245,
6,6,0,1,2,2,2,2,1,0,1,1,0,1,0,0,45,45,45,1,0,1,0,,,,,,,,,726.6821503993124,None,727.4656505994499,None,l,1,0.5029131006449461,727.4656505994499,None,None,None,,,,,,,14,20,female,14,2022_May_06_1258,Partial repeat,2021.2.3,59.871563241552245,
6,6,0,1,2,2,2,2,1,0,1,1,0,1,0,0,45,45,45,,,,,,,,,,,,,,,,,,,,,,,,,,,,,,14,20,female,14,2022_May_06_1258,Partial repeat,2021.2.3,59.871563241552245,
6,6,0,1,2,2,1,1,0,1,1,1,0,1,0,0,46,46,46,0,0,0,0,,,,,,,727.9932730998844,None,728.3713840991259,None,729.269832899794,None,l,1,0.45879469998180866,729.269832899794,None,None,None,,,,,,,14,20,female,14,2022_May_06_1258,Partial repeat,2021.2.3,59.871563241552245,
6,6,0,1,2,2,1,1,0,1,1,1,0,1,0,0,46,46,46,1,0,1,0,,,,,,,,,729.7487304005772,None,730.5546521004289,None,s,1,0.461981900036335,730.5546521004289,None,None,None,,,,,,,14,20,female,14,2022_May_06_1258,Partial repeat,2021.2.3,59.871563241552245,
6,6,0,1,2,2,1,1,0,1,1,1,0,1,0,0,46,46,46,,,,,,,,,,,,,,,,,,,,,,,,,,,,,,14,20,female,14,2022_May_06_1258,Partial repeat,2021.2.3,59.871563241552245,
6,6,0,1,3,3,2,1,0,1,1,0,0,1,0,0,47,47,47,0,0,0,0,,,,,,,731.0354484003037,None,731.4273444004357,None,732.2077600993216,None,l,1,0.5288753993809223,732.2077600993216,None,None,None,,,,,,,14,20,female,14,2022_May_06_1258,Partial repeat,2021.2.3,59.871563241552245,
6,6,0,1,3,3,2,1,0,1,1,0,0,1,0,0,47,47,47,1,0,1,0,,,,,,,,,732.7530799005181,None,733.7443355992436,None,s,1,0.4003624003380537,733.7443355992436,None,None,None,,,,,,,14,20,female,14,2022_May_06_1258,Partial repeat,2021.2.3,59.871563241552245,
6,6,0,1,3,3,2,1,0,1,1,0,0,1,0,0,47,47,47,,,,,,,,,,,,,,,,,,,,,,,,,,,,,,14,20,female,14,2022_May_06_1258,Partial repeat,2021.2.3,59.871563241552245,
6,6,0,1,2,2,1,1,1,1,1,1,1,1,0,0,48,48,48,0,0,0,0,,,,,,,734.1608234997839,None,734.6001382991672,None,735.5648990999907,None,s,1,0.5716733001172543,735.5648990999907,None,None,None,,,,,,,14,20,female,14,2022_May_06_1258,Partial repeat,2021.2.3,59.871563241552245,
6,6,0,1,2,2,1,1,1,1,1,1,1,1,0,0,48,48,48,1,0,1,0,,,,,,,,,736.1542748995125,None,737.1007874999195,None,s,1,0.5398660004138947,737.1007874999195,None,None,None,,,,,,,14,20,female,14,2022_May_06_1258,Partial repeat,2021.2.3,59.871563241552245,
6,6,0,1,2,2,1,1,1,1,1,1,1,1,0,0,48,48,48,,,,,,,,,,,,,,,,,,,,,,,,,,,,,,14,20,female,14,2022_May_06_1258,Partial repeat,2021.2.3,59.871563241552245,
6,6,0,1,3,2,1,2,1,1,0,0,1,1,0,0,49,49,49,0,0,0,0,,,,,,,737.6727702002972,None,738.106864599511,None,738.8375218994915,None,s,1,0.4591084998100996,738.8375218994915,None,None,None,,,,,,,14,20,female,14,2022_May_06_1258,Partial repeat,2021.2.3,59.871563241552245,
6,6,0,1,3,2,1,2,1,1,0,0,1,1,0,0,49,49,49,1,0,1,0,,,,,,,,,739.3183219004422,None,740.2412273995578,None,s,1,0.4873540997505188,740.2412273995578,None,None,None,,,,,,,14,20,female,14,2022_May_06_1258,Partial repeat,2021.2.3,59.871563241552245,
6,6,0,1,3,2,1,2,1,1,0,0,1,1,0,0,49,49,49,,,,,,,,,,,,,,,,,,,,,,,,,,,,,,14,20,female,14,2022_May_06_1258,Partial repeat,2021.2.3,59.871563241552245,
6,6,0,1,2,3,1,1,0,0,0,1,1,1,0,0,50,50,50,0,0,0,0,,,,,,,740.7400723993778,None,741.7474362999201,None,742.6113341003656,None,l,1,0.5252481009811163,742.6113341003656,None,None,None,,,,,,,14,20,female,14,2022_May_06_1258,Partial repeat,2021.2.3,59.871563241552245,
6,6,0,1,2,3,1,1,0,0,0,1,1,1,0,0,50,50,50,1,0,1,0,,,,,,,,,743.1567532997578,None,743.9306700993329,None,l,1,0.365989001467824,743.9306700993329,None,None,None,,,,,,,14,20,female,14,2022_May_06_1258,Partial repeat,2021.2.3,59.871563241552245,
6,6,0,1,2,3,1,1,0,0,0,1,1,1,0,0,50,50,50,,,,,,,,,,,,,,,,,,,,,,,,,,,,,,14,20,female,14,2022_May_06_1258,Partial repeat,2021.2.3,59.871563241552245,
6,6,0,1,3,3,1,2,0,1,1,0,0,1,0,0,51,51,51,0,0,0,0,,,,,,,744.3282207995653,None,744.6196797005832,None,745.3334077000618,None,l,1,0.4352653995156288,745.3334077000618,None,None,None,,,,,,,14,20,female,14,2022_May_06_1258,Partial repeat,2021.2.3,59.871563241552245,
6,6,0,1,3,3,1,2,0,1,1,0,0,1,0,0,51,51,51,1,0,1,0,,,,,,,,,745.7887709997594,None,746.6693900004029,None,s,1,0.46724759973585606,746.6693900004029,None,None,None,,,,,,,14,20,female,14,2022_May_06_1258,Partial repeat,2021.2.3,59.871563241552245,
6,6,0,1,3,3,1,2,0,1,1,0,0,1,0,0,51,51,51,,,,,,,,,,,,,,,,,,,,,,,,,,,,,,14,20,female,14,2022_May_06_1258,Partial repeat,2021.2.3,59.871563241552245,
6,6,0,1,3,3,1,1,0,0,1,1,1,1,0,0,52,52,52,0,0,0,0,,,,,,,747.1558654997498,None,747.5086598992348,None,748.43934440054,None,l,1,0.48126070015132427,748.43934440054,None,None,None,,,,,,,14,20,female,14,2022_May_06_1258,Partial repeat,2021.2.3,59.871563241552245,
6,6,0,1,3,3,1,1,0,0,1,1,1,1,0,0,52,52,52,1,0,1,0,,,,,,,,,748.9406515005976,None,749.8757058996707,None,l,1,0.4128680005669594,749.8757058996707,None,None,None,,,,,,,14,20,female,14,2022_May_06_1258,Partial repeat,2021.2.3,59.871563241552245,
6,6,0,1,3,3,1,1,0,0,1,1,1,1,0,0,52,52,52,,,,,,,,,,,,,,,,,,,,,,,,,,,,,,14,20,female,14,2022_May_06_1258,Partial repeat,2021.2.3,59.871563241552245,
6,6,0,1,2,3,1,2,0,0,0,0,1,1,0,0,53,53,53,0,0,0,0,,,,,,,750.3144466988742,None,750.7482679001987,None,751.62896049954,None,l,1,0.35562280006706715,751.62896049954,None,None,None,,,,,,,14,20,female,14,2022_May_06_1258,Partial repeat,2021.2.3,59.871563241552245,
6,6,0,1,2,3,1,2,0,0,0,0,1,1,0,0,53,53,53,1,0,1,0,,,,,,,,,752.0003488995135,None,752.7312931995839,None,l,1,0.3253458999097347,752.7312931995839,None,None,None,,,,,,,14,20,female,14,2022_May_06_1258,Partial repeat,2021.2.3,59.871563241552245,
6,6,0,1,2,3,1,2,0,0,0,0,1,1,0,0,53,53,53,,,,,,,,,,,,,,,,,,,,,,,,,,,,,,14,20,female,14,2022_May_06_1258,Partial repeat,2021.2.3,59.871563241552245,
6,6,0,1,2,3,2,2,1,1,0,1,1,1,0,0,54,54,54,0,0,0,0,,,,,,,753.0881097000092,None,753.6705441996455,None,754.6846056990325,None,s,1,0.46003179997205734,754.6846056990325,None,None,None,,,,,,,14,20,female,14,2022_May_06_1258,Partial repeat,2021.2.3,59.871563241552245,
6,6,0,1,2,3,2,2,1,1,0,1,1,1,0,0,54,54,54,1,0,1,0,,,,,,,,,755.1645068991929,None,756.1375714000314,None,s,1,0.37500130012631416,756.1375714000314,None,None,None,,,,,,,14,20,female,14,2022_May_06_1258,Partial repeat,2021.2.3,59.871563241552245,
6,6,0,1,2,3,2,2,1,1,0,1,1,1,0,0,54,54,54,,,,,,,,,,,,,,,,,,,,,,,,,,,,,,14,20,female,14,2022_May_06_1258,Partial repeat,2021.2.3,59.871563241552245,
6,6,0,1,3,2,2,2,1,1,0,1,1,1,0,0,55,55,55,0,0,0,0,,,,,,,756.5338604990393,None,756.9269897993654,None,757.7743203993887,None,s,1,0.49029989913105965,757.7743203993887,None,None,None,,,,,,,14,20,female,14,2022_May_06_1258,Partial repeat,2021.2.3,59.871563241552245,
6,6,0,1,3,2,2,2,1,1,0,1,1,1,0,0,55,55,55,1,0,1,0,,,,,,,,,758.2739728000015,None,759.0933676995337,None,s,1,0.6832362990826368,759.0933676995337,None,None,None,,,,,,,14,20,female,14,2022_May_06_1258,Partial repeat,2021.2.3,59.871563241552245,
6,6,0,1,3,2,2,2,1,1,0,1,1,1,0,0,55,55,55,,,,,,,,,,,,,,,,,,,,,,,,,,,,,,14,20,female,14,2022_May_06_1258,Partial repeat,2021.2.3,59.871563241552245,
6,6,0,1,3,2,2,2,0,0,0,1,1,1,0,0,56,56,56,0,0,0,0,,,,,,,759.7910961993039,None,760.1332074999809,None,761.0646892990917,None,s,0,0.4479393009096384,761.0646892990917,None,761.5225038994104,None,,,,,,,14,20,female,14,2022_May_06_1258,Partial repeat,2021.2.3,59.871563241552245,
6,6,0,1,3,2,2,2,0,0,0,1,1,1,0,0,56,56,56,1,0,1,0,,,,,,,,,762.0368494987488,None,762.7842039000243,None,l,1,0.8884114008396864,762.7842039000243,None,None,None,,,,,,,14,20,female,14,2022_May_06_1258,Partial repeat,2021.2.3,59.871563241552245,
6,6,0,1,3,2,2,2,0,0,0,1,1,1,0,0,56,56,56,,,,,,,,,,,,,,,,,,,,,,,,,,,,,,14,20,female,14,2022_May_06_1258,Partial repeat,2021.2.3,59.871563241552245,
6,6,0,1,2,2,2,2,0,1,1,1,0,1,0,0,57,57,57,0,0,0,0,,,,,,,763.6923625990748,None,764.0073847994208,None,764.8714419994503,None,l,1,0.5211411993950605,764.8714419994503,None,None,None,,,,,,,14,20,female,14,2022_May_06_1258,Partial repeat,2021.2.3,59.871563241552245,
6,6,0,1,2,2,2,2,0,1,1,1,0,1,0,0,57,57,57,1,0,1,0,,,,,,,,,765.4106772989035,None,766.2238151989877,None,s,1,0.5127482004463673,766.2238151989877,None,None,None,,,,,,,14,20,female,14,2022_May_06_1258,Partial repeat,2021.2.3,59.871563241552245,
6,6,0,1,2,2,2,2,0,1,1,1,0,1,0,0,57,57,57,,,,,,,,,,,,,,,,,,,,,,,,,,,,,,14,20,female,14,2022_May_06_1258,Partial repeat,2021.2.3,59.871563241552245,
6,6,0,1,3,3,2,2,0,0,1,1,1,1,0,0,58,58,58,0,0,0,0,,,,,,,766.748249899596,None,767.1468390002847,None,767.9771621990949,None,l,1,0.44747789949178696,767.9771621990949,None,None,None,,,,,,,14,20,female,14,2022_May_06_1258,Partial repeat,2021.2.3,59.871563241552245,
6,6,0,1,3,3,2,2,0,0,1,1,1,1,0,0,58,58,58,1,0,1,0,,,,,,,,,768.4328074995428,None,769.3632612992078,None,l,1,0.38129440136253834,769.3632612992078,None,None,None,,,,,,,14,20,female,14,2022_May_06_1258,Partial repeat,2021.2.3,59.871563241552245,
6,6,0,1,3,3,2,2,0,0,1,1,1,1,0,0,58,58,58,,,,,,,,,,,,,,,,,,,,,,,,,,,,,,14,20,female,14,2022_May_06_1258,Partial repeat,2021.2.3,59.871563241552245,
6,6,0,1,2,2,2,2,1,1,1,1,1,1,0,0,59,59,59,0,0,0,0,,,,,,,769.7585051003844,None,770.2194606997073,None,771.2339613996446,None,s,1,0.47867059893906116,771.2339613996446,None,None,None,,,,,,,14,20,female,14,2022_May_06_1258,Partial repeat,2021.2.3,59.871563241552245,
6,6,0,1,2,2,2,2,1,1,1,1,1,1,0,0,59,59,59,1,0,1,0,,,,,,,,,771.7350711990148,None,772.6197287999094,None,s,1,0.5008905995637178,772.6197287999094,None,None,None,,,,,,,14,20,female,14,2022_May_06_1258,Partial repeat,2021.2.3,59.871563241552245,
6,6,0,1,2,2,2,2,1,1,1,1,1,1,0,0,59,59,59,,,,,,,,,,,,,,,,,,,,,,,,,,,,,,14,20,female,14,2022_May_06_1258,Partial repeat,2021.2.3,59.871563241552245,
6,6,0,1,2,3,1,2,0,1,0,0,0,1,0,0,60,60,60,0,0,0,0,,,,,,,773.1449117995799,None,773.459036199376,None,774.4074007999152,None,l,1,0.4172261003404856,774.4074007999152,None,None,None,,,,,,,14,20,female,14,2022_May_06_1258,Partial repeat,2021.2.3,59.871563241552245,
6,6,0,1,2,3,1,2,0,1,0,0,0,1,0,0,60,60,60,1,0,1,0,,,,,,,,,774.8433998990804,None,775.626888198778,None,s,1,0.47771240025758743,775.626888198778,None,None,None,,,,,,,14,20,female,14,2022_May_06_1258,Partial repeat,2021.2.3,59.871563241552245,
6,6,0,1,2,3,1,2,0,1,0,0,0,1,0,0,60,60,60,,,,,,,,,,,,,,,,,,,,,,,,,,,,,,14,20,female,14,2022_May_06_1258,Partial repeat,2021.2.3,59.871563241552245,
6,6,0,1,2,2,1,2,0,0,1,0,1,1,0,0,61,61,61,0,0,0,0,,,,,,,776.1293854005635,None,776.481662299484,None,777.2800335995853,None,l,1,0.5445814002305269,777.2800335995853,None,None,None,,,,,,,14,20,female,14,2022_May_06_1258,Partial repeat,2021.2.3,59.871563241552245,
6,6,0,1,2,2,1,2,0,0,1,0,1,1,0,0,61,61,61,1,0,1,0,,,,,,,,,777.840936800465,None,778.7814996000379,None,l,1,0.47512730024755,778.7814996000379,None,None,None,,,,,,,14,20,female,14,2022_May_06_1258,Partial repeat,2021.2.3,59.871563241552245,
6,6,0,1,2,2,1,2,0,0,1,0,1,1,0,0,61,61,61,,,,,,,,,,,,,,,,,,,,,,,,,,,,,,14,20,female,14,2022_May_06_1258,Partial repeat,2021.2.3,59.871563241552245,
6,6,0,1,2,3,2,1,0,1,0,0,0,1,0,0,62,62,62,0,0,0,0,,,,,,,779.2840276993811,None,779.6044228002429,None,780.4696353990585,None,l,1,0.40316490083932877,780.4696353990585,None,None,None,,,,,,,14,20,female,14,2022_May_06_1258,Partial repeat,2021.2.3,59.871563241552245,
6,6,0,1,2,3,2,1,0,1,0,0,0,1,0,0,62,62,62,1,0,1,0,,,,,,,,,780.8832798991352,None,781.8544027004391,None,s,1,0.4102377016097307,781.8544027004391,None,None,None,,,,,,,14,20,female,14,2022_May_06_1258,Partial repeat,2021.2.3,59.871563241552245,
6,6,0,1,2,3,2,1,0,1,0,0,0,1,0,0,62,62,62,,,,,,,,,,,,,,,,,,,,,,,,,,,,,,14,20,female,14,2022_May_06_1258,Partial repeat,2021.2.3,59.871563241552245,
6,6,0,1,2,3,1,1,0,1,0,1,0,1,0,0,63,63,63,0,0,0,0,,,,,,,782.2924146987498,None,782.6770865991712,None,783.6412669997662,None,l,1,0.4713636003434658,783.6412669997662,None,None,None,,,,,,,14,20,female,14,2022_May_06_1258,Partial repeat,2021.2.3,59.871563241552245,
6,6,0,1,2,3,1,1,0,1,0,1,0,1,0,0,63,63,63,1,0,1,0,,,,,,,,,784.1349685005844,None,785.0771508999169,None,s,1,0.5155248995870352,785.0771508999169,None,None,None,,,,,,,14,20,female,14,2022_May_06_1258,Partial repeat,2021.2.3,59.871563241552245,
6,6,0,1,2,3,1,1,0,1,0,1,0,1,0,0,63,63,63,,,,,,,,,,,,,,,,,,,,,,,,,,,,,,14,20,female,14,2022_May_06_1258,Partial repeat,2021.2.3,59.871563241552245,
3,2,0,1,3,2,1,2,0,1,0,0,0,0,0,0,64,64,64,0,0,0,0,,,,,,,785.9116607997566,None,788.5051025990397,None,789.319745099172,None,l,1,2.376861099153757,789.319745099172,None,None,None,,,,,,,14,20,female,14,2022_May_06_1258,Partial repeat,2021.2.3,59.871563241552245,
3,2,0,1,3,2,1,2,0,1,0,0,0,0,0,0,64,64,64,1,0,1,0,,,,,,,,,791.7057313993573,None,792.4585742987692,None,s,1,0.99809779971838,792.4585742987692,None,None,None,,,,,,,14,20,female,14,2022_May_06_1258,Partial repeat,2021.2.3,59.871563241552245,
3,2,0,1,3,2,1,2,0,1,0,0,0,0,0,0,64,64,64,,,,,,,,,,,,,,,,,,,,,,,,,,,,,,14,20,female,14,2022_May_06_1258,Partial repeat,2021.2.3,59.871563241552245,
8,4,0,1,3,3,1,2,0,0,1,0,1,0,0,0,65,65,65,0,0,0,0,,,,,,,793.4755712002516,None,793.8487659003586,None,794.7126037999988,None,l,1,0.7840841002762318,794.7126037999988,None,None,None,,,,,,,14,20,female,14,2022_May_06_1258,Partial repeat,2021.2.3,59.871563241552245,
8,4,0,1,3,3,1,2,0,0,1,0,1,0,0,0,65,65,65,1,0,1,0,,,,,,,,,795.5067999996245,None,796.516371300444,None,l,1,0.6201616991311312,796.516371300444,None,None,None,,,,,,,14,20,female,14,2022_May_06_1258,Partial repeat,2021.2.3,59.871563241552245,
8,4,0,1,3,3,1,2,0,0,1,0,1,0,0,0,65,65,65,,,,,,,,,,,,,,,,,,,,,,,,,,,,,,14,20,female,14,2022_May_06_1258,Partial repeat,2021.2.3,59.871563241552245,
4,2,0,1,3,2,1,1,1,1,0,1,1,0,0,0,66,66,66,0,0,0,0,,,,,,,797.1484310999513,None,797.5058526005596,None,798.5210111998022,None,s,1,0.6636407990008593,798.5210111998022,None,None,None,,,,,,,14,20,female,14,2022_May_06_1258,Partial repeat,2021.2.3,59.871563241552245,
4,2,0,1,3,2,1,1,1,1,0,1,1,0,0,0,66,66,66,1,0,1,0,,,,,,,,,799.1952069997787,None,799.9728153999895,None,s,1,0.7398109994828701,799.9728153999895,None,None,None,,,,,,,14,20,female,14,2022_May_06_1258,Partial repeat,2021.2.3,59.871563241552245,
4,2,0,1,3,2,1,1,1,1,0,1,1,0,0,0,66,66,66,,,,,,,,,,,,,,,,,,,,,,,,,,,,,,14,20,female,14,2022_May_06_1258,Partial repeat,2021.2.3,59.871563241552245,
6,7,0,1,2,2,2,2,1,0,1,1,0,0,0,0,67,67,67,0,0,0,0,,,,,,,800.7285507004708,None,801.1129537988454,None,801.8432877995074,None,s,1,0.7573550995439291,801.8432877995074,None,None,None,,,,,,,14,20,female,14,2022_May_06_1258,Partial repeat,2021.2.3,59.871563241552245,
6,7,0,1,2,2,2,2,1,0,1,1,0,0,0,0,67,67,67,1,0,1,0,,,,,,,,,802.6222801990807,None,803.4965831004083,None,l,1,0.5760227013379335,803.4965831004083,None,None,None,,,,,,,14,20,female,14,2022_May_06_1258,Partial repeat,2021.2.3,59.871563241552245,
6,7,0,1,2,2,2,2,1,0,1,1,0,0,0,0,67,67,67,,,,,,,,,,,,,,,,,,,,,,,,,,,,,,14,20,female,14,2022_May_06_1258,Partial repeat,2021.2.3,59.871563241552245,
2,8,0,1,3,2,1,1,0,0,0,1,1,0,0,0,68,68,68,0,0,0,0,,,,,,,804.0838839989156,None,804.3859445005655,None,805.2511941995472,None,l,1,0.5975329000502825,805.2511941995472,None,None,None,,,,,,,14,20,female,14,2022_May_06_1258,Partial repeat,2021.2.3,59.871563241552245,
2,8,0,1,3,2,1,1,0,0,0,1,1,0,0,0,68,68,68,1,0,1,0,,,,,,,,,805.8592207990587,None,806.6026038005948,None,l,1,0.6860825009644032,806.6026038005948,None,None,None,,,,,,,14,20,female,14,2022_May_06_1258,Partial repeat,2021.2.3,59.871563241552245,
2,8,0,1,3,2,1,1,0,0,0,1,1,0,0,0,68,68,68,,,,,,,,,,,,,,,,,,,,,,,,,,,,,,14,20,female,14,2022_May_06_1258,Partial repeat,2021.2.3,59.871563241552245,
6,6,0,1,2,2,1,2,0,1,1,0,0,0,0,0,69,69,69,0,0,0,0,,,,,,,807.3005490992218,None,807.5588194001466,None,808.5230579003692,None,l,1,0.5895012989640236,808.5230579003692,None,None,None,,,,,,,14,20,female,14,2022_May_06_1258,Partial repeat,2021.2.3,59.871563241552245,
6,6,0,1,2,2,1,2,0,1,1,0,0,0,0,0,69,69,69,1,0,1,0,,,,,,,,,809.1256416998804,None,810.1090759001672,None,s,1,0.6515143997967243,810.1090759001672,None,None,None,,,,,,,14,20,female,14,2022_May_06_1258,Partial repeat,2021.2.3,59.871563241552245,
6,6,0,1,2,2,1,2,0,1,1,0,0,0,0,0,69,69,69,,,,,,,,,,,,,,,,,,,,,,,,,,,,,,14,20,female,14,2022_May_06_1258,Partial repeat,2021.2.3,59.871563241552245,
6,8,0,1,3,3,1,1,1,0,1,1,0,0,0,0,70,70,70,0,0,0,0,,,,,,,810.7784269992262,None,811.0823379997164,None,811.9961996991187,None,s,1,0.5485036000609398,811.9961996991187,None,None,None,,,,,,,14,20,female,14,2022_May_06_1258,Partial repeat,2021.2.3,59.871563241552245,
6,8,0,1,3,3,1,1,1,0,1,1,0,0,0,0,70,70,70,1,0,1,0,,,,,,,,,812.5556939002126,None,813.5327837001532,None,l,1,0.5878014005720615,813.5327837001532,None,None,None,,,,,,,14,20,female,14,2022_May_06_1258,Partial repeat,2021.2.3,59.871563241552245,
6,8,0,1,3,3,1,1,1,0,1,1,0,0,0,0,70,70,70,,,,,,,,,,,,,,,,,,,,,,,,,,,,,,14,20,female,14,2022_May_06_1258,Partial repeat,2021.2.3,59.871563241552245,
3,4,0,1,3,2,1,2,1,0,0,0,0,0,0,0,71,71,71,0,0,0,0,,,,,,,814.1452449988574,None,814.5390776004642,None,815.3194024991244,None,s,1,0.7452312000095844,815.3194024991244,None,None,None,,,,,,,14,20,female,14,2022_May_06_1258,Partial repeat,2021.2.3,59.871563241552245,
3,4,0,1,3,2,1,2,1,0,0,0,0,0,0,0,71,71,71,1,0,1,0,,,,,,,,,816.0934341996908,None,816.9059829004109,None,l,1,0.5746060013771057,816.9059829004109,None,None,None,,,,,,,14,20,female,14,2022_May_06_1258,Partial repeat,2021.2.3,59.871563241552245,
3,4,0,1,3,2,1,2,1,0,0,0,0,0,0,0,71,71,71,,,,,,,,,,,,,,,,,,,,,,,,,,,,,,14,20,female,14,2022_May_06_1258,Partial repeat,2021.2.3,59.871563241552245,
8,3,0,1,2,3,1,1,0,1,0,1,0,0,0,0,72,72,72,0,0,0,0,,,,,,,817.495230300352,None,817.7618415988982,None,818.6762306988239,None,l,1,0.5324322003871202,818.6762306988239,None,None,None,,,,,,,14,20,female,14,2022_May_06_1258,Partial repeat,2021.2.3,59.871563241552245,
8,3,0,1,2,3,1,1,0,1,0,1,0,0,0,0,72,72,72,1,0,1,0,,,,,,,,,819.2167690005153,None,820.0631421990693,None,s,1,0.681530399248004,820.0631421990693,None,None,None,,,,,,,14,20,female,14,2022_May_06_1258,Partial repeat,2021.2.3,59.871563241552245,
8,3,0,1,2,3,1,1,0,1,0,1,0,0,0,0,72,72,72,,,,,,,,,,,,,,,,,,,,,,,,,,,,,,14,20,female,14,2022_May_06_1258,Partial repeat,2021.2.3,59.871563241552245,
8,7,0,1,2,3,1,1,1,1,0,1,1,0,0,0,73,73,73,0,0,0,0,,,,,,,820.7738007996231,None,821.0015654992312,None,821.88223499991,None,l,0,0.6785205993801355,821.88223499991,None,822.5719223003834,None,,,,,,,14,20,female,14,2022_May_06_1258,Partial repeat,2021.2.3,59.871563241552245,
8,7,0,1,2,3,1,1,1,1,0,1,1,0,0,0,73,73,73,1,0,1,0,,,,,,,,,823.0722904987633,None,823.8024973999709,None,s,1,1.3020831011235714,823.8024973999709,None,None,None,,,,,,,14,20,female,14,2022_May_06_1258,Partial repeat,2021.2.3,59.871563241552245,
8,7,0,1,2,3,1,1,1,1,0,1,1,0,0,0,73,73,73,,,,,,,,,,,,,,,,,,,,,,,,,,,,,,14,20,female,14,2022_May_06_1258,Partial repeat,2021.2.3,59.871563241552245,
5,6,0,1,3,3,1,2,1,1,1,0,1,0,0,0,74,74,74,0,0,0,0,,,,,,,825.1212948989123,None,825.7942947000265,None,826.7423040997237,None,s,1,0.8423165995627642,826.7423040997237,None,None,None,,,,,,,14,20,female,14,2022_May_06_1258,Partial repeat,2021.2.3,59.871563241552245,
5,6,0,1,3,3,1,2,1,1,1,0,1,0,0,0,74,74,74,1,0,1,0,,,,,,,,,827.6052110996097,None,828.6119235996157,None,s,1,0.6766667999327183,828.6119235996157,None,None,None,,,,,,,14,20,female,14,2022_May_06_1258,Partial repeat,2021.2.3,59.871563241552245,
5,6,0,1,3,3,1,2,1,1,1,0,1,0,0,0,74,74,74,,,,,,,,,,,,,,,,,,,,,,,,,,,,,,14,20,female,14,2022_May_06_1258,Partial repeat,2021.2.3,59.871563241552245,
4,1,0,1,3,3,1,1,0,0,1,1,1,0,0,0,75,75,75,0,0,0,0,,,,,,,829.312368100509,None,829.9858138989657,None,830.7994828987867,None,l,1,0.9290896002203226,830.7994828987867,None,None,None,,,,,,,14,20,female,14,2022_May_06_1258,Partial repeat,2021.2.3,59.871563241552245,
4,1,0,1,3,3,1,1,0,0,1,1,1,0,0,0,75,75,75,1,0,1,0,,,,,,,,,831.7427276987582,None,832.470704998821,None,l,1,0.577997799962759,832.470704998821,None,None,None,,,,,,,14,20,female,14,2022_May_06_1258,Partial repeat,2021.2.3,59.871563241552245,
4,1,0,1,3,3,1,1,0,0,1,1,1,0,0,0,75,75,75,,,,,,,,,,,,,,,,,,,,,,,,,,,,,,14,20,female,14,2022_May_06_1258,Partial repeat,2021.2.3,59.871563241552245,
1,1,0,1,3,3,2,2,0,1,1,1,0,0,0,0,76,76,76,0,0,0,0,,,,,,,833.0783219002187,None,833.3590111006051,None,834.3733139988035,None,l,1,0.45935190096497536,834.3733139988035,None,None,None,,,,,,,14,20,female,14,2022_May_06_1258,Partial repeat,2021.2.3,59.871563241552245,
1,1,0,1,3,3,2,2,0,1,1,1,0,0,0,0,76,76,76,1,0,1,0,,,,,,,,,834.8520793989301,None,835.7424017991871,None,s,1,0.610282501205802,835.7424017991871,None,None,None,,,,,,,14,20,female,14,2022_May_06_1258,Partial repeat,2021.2.3,59.871563241552245,
1,1,0,1,3,3,2,2,0,1,1,1,0,0,0,0,76,76,76,,,,,,,,,,,,,,,,,,,,,,,,,,,,,,14,20,female,14,2022_May_06_1258,Partial repeat,2021.2.3,59.871563241552245,
1,2,0,1,2,3,2,2,0,1,0,1,0,0,0,0,77,77,77,0,0,0,0,,,,,,,836.3746344000101,None,836.7155620995909,None,837.4794034995139,None,s,0,0.6972626000642776,837.4794034995139,None,838.1947972998023,None,,,,,,,14,20,female,14,2022_May_06_1258,Partial repeat,2021.2.3,59.871563241552245,
1,2,0,1,2,3,2,2,0,1,0,1,0,0,0,0,77,77,77,1,0,1,0,,,,,,,,,838.7027221992612,None,839.7002390995622,None,s,1,0.7643221989274025,839.7002390995622,None,None,None,,,,,,,14,20,female,14,2022_May_06_1258,Partial repeat,2021.2.3,59.871563241552245,
1,2,0,1,2,3,2,2,0,1,0,1,0,0,0,0,77,77,77,,,,,,,,,,,,,,,,,,,,,,,,,,,,,,14,20,female,14,2022_May_06_1258,Partial repeat,2021.2.3,59.871563241552245,
4,3,0,1,3,2,1,1,0,1,0,1,0,0,0,0,78,78,78,0,0,0,0,,,,,,,840.4902814999223,None,840.8735036998987,None,841.8379218000919,None,l,1,0.8026503007858992,841.8379218000919,None,None,None,,,,,,,14,20,female,14,2022_May_06_1258,Partial repeat,2021.2.3,59.871563241552245,
4,3,0,1,3,2,1,1,0,1,0,1,0,0,0,0,78,78,78,1,0,1,0,,,,,,,,,842.6616941988468,None,843.426016099751,None,s,1,0.7025951016694307,843.426016099751,None,None,None,,,,,,,14,20,female,14,2022_May_06_1258,Partial repeat,2021.2.3,59.871563241552245,
4,3,0,1,3,2,1,1,0,1,0,1,0,0,0,0,78,78,78,,,,,,,,,,,,,,,,,,,,,,,,,,,,,,14,20,female,14,2022_May_06_1258,Partial repeat,2021.2.3,59.871563241552245,
6,4,0,1,2,3,1,1,1,0,0,1,0,0,0,0,79,79,79,0,0,0,0,,,,,,,844.1433163993061,None,844.5307403989136,None,845.4449486993253,None,s,1,0.9476402997970581,845.4449486993253,None,None,None,,,,,,,14,20,female,14,2022_May_06_1258,Partial repeat,2021.2.3,59.871563241552245,
6,4,0,1,2,3,1,1,1,0,0,1,0,0,0,0,79,79,79,1,0,1,0,,,,,,,,,846.4091583006084,None,847.348613999784,None,l,1,0.6441420000046492,847.348613999784,None,None,None,,,,,,,14,20,female,14,2022_May_06_1258,Partial repeat,2021.2.3,59.871563241552245,
6,4,0,1,2,3,1,1,1,0,0,1,0,0,0,0,79,79,79,,,,,,,,,,,,,,,,,,,,,,,,,,,,,,14,20,female,14,2022_May_06_1258,Partial repeat,2021.2.3,59.871563241552245,
7,4,0,1,2,2,2,2,0,1,1,1,0,0,0,0,80,80,80,0,0,0,0,,,,,,,848.0047887992114,None,848.4717383999377,None,849.268774298951,None,l,1,0.8517974000424147,849.268774298951,None,None,None,,,,,,,14,20,female,14,2022_May_06_1258,Partial repeat,2021.2.3,59.871563241552245,
7,4,0,1,2,2,2,2,0,1,1,1,0,0,0,0,80,80,80,1,0,1,0,,,,,,,,,850.1319728996605,None,850.9556940998882,None,s,1,0.7009690999984741,850.9556940998882,None,None,None,,,,,,,14,20,female,14,2022_May_06_1258,Partial repeat,2021.2.3,59.871563241552245,
7,4,0,1,2,2,2,2,0,1,1,1,0,0,0,0,80,80,80,,,,,,,,,,,,,,,,,,,,,,,,,,,,,,14,20,female,14,2022_May_06_1258,Partial repeat,2021.2.3,59.871563241552245,
4,4,0,1,3,3,1,1,0,1,1,1,0,0,0,0,81,81,81,0,0,0,0,,,,,,,851.6784306000918,None,852.1288731005043,None,852.9435456003994,None,l,1,0.6010159999132156,852.9435456003994,None,None,None,,,,,,,14,20,female,14,2022_May_06_1258,Partial repeat,2021.2.3,59.871563241552245,
4,4,0,1,3,3,1,1,0,1,1,1,0,0,0,0,81,81,81,1,0,1,0,,,,,,,,,853.5675935000181,None,854.3620744999498,None,s,1,0.6065775994211435,854.3620744999498,None,None,None,,,,,,,14,20,female,14,2022_May_06_1258,Partial repeat,2021.2.3,59.871563241552245,
4,4,0,1,3,3,1,1,0,1,1,1,0,0,0,0,81,81,81,,,,,,,,,,,,,,,,,,,,,,,,,,,,,,14,20,female,14,2022_May_06_1258,Partial repeat,2021.2.3,59.871563241552245,
1,4,0,1,3,2,1,2,0,0,0,0,1,0,0,0,82,82,82,0,0,0,0,,,,,,,854.978864800185,None,855.3684828989208,None,856.1991854999214,None,l,1,0.625357499346137,856.1991854999214,None,None,None,,,,,,,14,20,female,14,2022_May_06_1258,Partial repeat,2021.2.3,59.871563241552245,
1,4,0,1,3,2,1,2,0,0,0,0,1,0,0,0,82,82,82,1,0,1,0,,,,,,,,,856.8464634995908,None,857.6854129992425,None,l,1,0.5793619006872177,857.6854129992425,None,None,None,,,,,,,14,20,female,14,2022_May_06_1258,Partial repeat,2021.2.3,59.871563241552245,
1,4,0,1,3,2,1,2,0,0,0,0,1,0,0,0,82,82,82,,,,,,,,,,,,,,,,,,,,,,,,,,,,,,14,20,female,14,2022_May_06_1258,Partial repeat,2021.2.3,59.871563241552245,
3,3,0,1,2,2,1,1,0,1,1,1,0,0,0,0,83,83,83,0,0,0,0,,,,,,,858.2756401989609,None,858.7416772004217,None,859.5555849000812,None,l,1,0.5570417009294033,859.5555849000812,None,None,None,,,,,,,14,20,female,14,2022_May_06_1258,Partial repeat,2021.2.3,59.871563241552245,
3,3,0,1,2,2,1,1,0,1,1,1,0,0,0,0,83,83,83,1,0,1,0,,,,,,,,,860.1380126997828,None,860.8746668994427,None,s,1,0.7419432997703552,860.8746668994427,None,None,None,,,,,,,14,20,female,14,2022_May_06_1258,Partial repeat,2021.2.3,59.871563241552245,
3,3,0,1,2,2,1,1,0,1,1,1,0,0,0,0,83,83,83,,,,,,,,,,,,,,,,,,,,,,,,,,,,,,14,20,female,14,2022_May_06_1258,Partial repeat,2021.2.3,59.871563241552245,
7,5,0,1,2,2,2,2,1,1,1,1,1,0,0,0,84,84,84,0,0,0,0,,,,,,,861.6395225990564,None,862.465652199462,None,863.1958157997578,None,s,1,0.5967680010944605,863.1958157997578,None,None,None,,,,,,,14,20,female,14,2022_May_06_1258,Partial repeat,2021.2.3,59.871563241552245,
7,5,0,1,2,2,2,2,1,1,1,1,1,0,0,0,84,84,84,1,0,1,0,,,,,,,,,863.8047000989318,None,864.5323814991862,None,s,1,0.6202082000672817,864.5323814991862,None,None,None,,,,,,,14,20,female,14,2022_May_06_1258,Partial repeat,2021.2.3,59.871563241552245,
7,5,0,1,2,2,2,2,1,1,1,1,1,0,0,0,84,84,84,,,,,,,,,,,,,,,,,,,,,,,,,,,,,,14,20,female,14,2022_May_06_1258,Partial repeat,2021.2.3,59.871563241552245,
2,1,0,1,2,2,1,1,1,1,1,1,1,0,0,0,85,85,85,0,0,0,0,,,,,,,865.1828760001808,None,865.6550094988197,None,866.4205776993185,None,s,1,0.6200306005775928,866.4205776993185,None,None,None,,,,,,,14,20,female,14,2022_May_06_1258,Partial repeat,2021.2.3,59.871563241552245,
2,1,0,1,2,2,1,1,1,1,1,1,1,0,0,0,85,85,85,1,0,1,0,,,,,,,,,867.0526493005455,None,867.9737148992717,None,s,1,0.5388666000217199,867.9737148992717,None,None,None,,,,,,,14,20,female,14,2022_May_06_1258,Partial repeat,2021.2.3,59.871563241552245,
2,1,0,1,2,2,1,1,1,1,1,1,1,0,0,0,85,85,85,,,,,,,,,,,,,,,,,,,,,,,,,,,,,,14,20,female,14,2022_May_06_1258,Partial repeat,2021.2.3,59.871563241552245,
8,6,0,1,3,3,2,1,0,1,1,0,0,0,0,0,86,86,86,0,0,0,0,,,,,,,868.5409730989486,None,871.366234799847,None,872.1135213002563,None,l,1,0.6231136992573738,872.1135213002563,None,None,None,,,,,,,14,20,female,14,2022_May_06_1258,Partial repeat,2021.2.3,59.871563241552245,
8,6,0,1,3,3,2,1,0,1,1,0,0,0,0,0,86,86,86,1,0,1,0,,,,,,,,,872.7603833992034,None,873.53282789886,None,s,1,0.5397266000509262,873.53282789886,None,None,None,,,,,,,14,20,female,14,2022_May_06_1258,Partial repeat,2021.2.3,59.871563241552245,
8,6,0,1,3,3,2,1,0,1,1,0,0,0,0,0,86,86,86,,,,,,,,,,,,,,,,,,,,,,,,,,,,,,14,20,female,14,2022_May_06_1258,Partial repeat,2021.2.3,59.871563241552245,
5,1,0,1,2,2,1,2,1,1,1,0,1,0,0,0,87,87,87,0,0,0,0,,,,,,,874.0971399992704,None,874.4556466992944,None,875.470854299143,None,s,1,0.6657590009272099,875.470854299143,None,None,None,,,,,,,14,20,female,14,2022_May_06_1258,Partial repeat,2021.2.3,59.871563241552245,
5,1,0,1,2,2,1,2,1,1,1,0,1,0,0,0,87,87,87,1,0,1,0,,,,,,,,,876.1610139999539,None,876.8895222991705,None,s,1,0.5991635005921125,876.8895222991705,None,None,None,,,,,,,14,20,female,14,2022_May_06_1258,Partial repeat,2021.2.3,59.871563241552245,
5,1,0,1,2,2,1,2,1,1,1,0,1,0,0,0,87,87,87,,,,,,,,,,,,,,,,,,,,,,,,,,,,,,14,20,female,14,2022_May_06_1258,Partial repeat,2021.2.3,59.871563241552245,
7,1,0,1,3,2,1,1,1,0,0,1,0,0,0,0,88,88,88,0,0,0,0,,,,,,,877.5020042993128,None,877.8956608995795,None,878.8765334002674,None,s,1,0.5800823997706175,878.8765334002674,None,None,None,,,,,,,14,20,female,14,2022_May_06_1258,Partial repeat,2021.2.3,59.871563241552245,
7,1,0,1,3,2,1,1,1,0,0,1,0,0,0,0,88,88,88,1,0,1,0,,,,,,,,,879.4857237003744,None,880.2623749002814,None,l,1,0.4901409987360239,880.2623749002814,None,None,None,,,,,,,14,20,female,14,2022_May_06_1258,Partial repeat,2021.2.3,59.871563241552245,
7,1,0,1,3,2,1,1,1,0,0,1,0,0,0,0,88,88,88,,,,,,,,,,,,,,,,,,,,,,,,,,,,,,14,20,female,14,2022_May_06_1258,Partial repeat,2021.2.3,59.871563241552245,
2,2,0,1,2,3,2,1,0,1,0,0,0,0,0,0,89,89,89,0,0,0,0,,,,,,,880.7713159006089,None,881.0351256001741,None,881.9993249997497,None,l,1,0.48935320042073727,881.9993249997497,None,None,None,,,,,,,14,20,female,14,2022_May_06_1258,Partial repeat,2021.2.3,59.871563241552245,
2,2,0,1,2,3,2,1,0,1,0,0,0,0,0,0,89,89,89,1,0,1,0,,,,,,,,,882.4970385003835,None,883.3363946992904,None,s,1,0.5602647997438908,883.3363946992904,None,None,None,,,,,,,14,20,female,14,2022_May_06_1258,Partial repeat,2021.2.3,59.871563241552245,
2,2,0,1,2,3,2,1,0,1,0,0,0,0,0,0,89,89,89,,,,,,,,,,,,,,,,,,,,,,,,,,,,,,14,20,female,14,2022_May_06_1258,Partial repeat,2021.2.3,59.871563241552245,
1,3,0,1,3,3,2,1,1,1,1,0,1,0,0,0,90,90,90,0,0,0,0,,,,,,,883.9209393989295,None,884.1076921001077,None,885.039259199053,None,s,1,0.5373574998229742,885.039259199053,None,None,None,,,,,,,14,20,female,14,2022_May_06_1258,Partial repeat,2021.2.3,59.871563241552245,
1,3,0,1,3,3,2,1,1,1,1,0,1,0,0,0,90,90,90,1,0,1,0,,,,,,,,,885.6024035997689,None,886.5245155002922,None,s,1,0.6680618990212679,886.5245155002922,None,None,None,,,,,,,14,20,female,14,2022_May_06_1258,Partial repeat,2021.2.3,59.871563241552245,
1,3,0,1,3,3,2,1,1,1,1,0,1,0,0,0,90,90,90,,,,,,,,,,,,,,,,,,,,,,,,,,,,,,14,20,female,14,2022_May_06_1258,Partial repeat,2021.2.3,59.871563241552245,
1,8,0,1,2,3,1,2,0,0,0,0,1,0,0,0,91,91,91,0,0,0,0,,,,,,,887.2188112996519,None,887.6646360997111,None,888.6289581991732,None,l,1,0.8196852002292871,888.6289581991732,None,None,None,,,,,,,14,20,female,14,2022_May_06_1258,Partial repeat,2021.2.3,59.871563241552245,
1,8,0,1,2,3,1,2,0,0,0,0,1,0,0,0,91,91,91,1,0,1,0,,,,,,,,,889.459772400558,None,890.4656955003738,None,l,1,0.574898099526763,890.4656955003738,None,None,None,,,,,,,14,20,female,14,2022_May_06_1258,Partial repeat,2021.2.3,59.871563241552245,
1,8,0,1,2,3,1,2,0,0,0,0,1,0,0,0,91,91,91,,,,,,,,,,,,,,,,,,,,,,,,,,,,,,14,20,female,14,2022_May_06_1258,Partial repeat,2021.2.3,59.871563241552245,
6,1,0,1,2,3,1,2,1,0,0,0,0,0,0,0,92,92,92,0,0,0,0,,,,,,,891.0546697992831,None,893.6095142997801,None,894.440902499482,None,s,1,0.6958191990852356,894.440902499482,None,None,None,,,,,,,14,20,female,14,2022_May_06_1258,Partial repeat,2021.2.3,59.871563241552245,
6,1,0,1,2,3,1,2,1,0,0,0,0,0,0,0,92,92,92,1,0,1,0,,,,,,,,,895.1476195994765,None,895.9429452996701,None,l,1,0.47363329865038395,895.9429452996701,None,None,None,,,,,,,14,20,female,14,2022_May_06_1258,Partial repeat,2021.2.3,59.871563241552245,
6,1,0,1,2,3,1,2,1,0,0,0,0,0,0,0,92,92,92,,,,,,,,,,,,,,,,,,,,,,,,,,,,,,14,20,female,14,2022_May_06_1258,Partial repeat,2021.2.3,59.871563241552245,
1,6,0,1,3,3,2,2,0,0,1,1,1,0,0,0,93,93,93,0,0,0,0,,,,,,,896.4432005994022,None,896.7657318003476,None,897.6962816994637,None,l,1,0.6483281012624502,897.6962816994637,None,None,None,,,,,,,14,20,female,14,2022_May_06_1258,Partial repeat,2021.2.3,59.871563241552245,
1,6,0,1,3,3,2,2,0,0,1,1,1,0,0,0,93,93,93,1,0,1,0,,,,,,,,,898.3607010990381,None,899.2993689998984,None,l,1,0.6052494011819363,899.2993689998984,None,None,None,,,,,,,14,20,female,14,2022_May_06_1258,Partial repeat,2021.2.3,59.871563241552245,
1,6,0,1,3,3,2,2,0,0,1,1,1,0,0,0,93,93,93,,,,,,,,,,,,,,,,,,,,,,,,,,,,,,14,20,female,14,2022_May_06_1258,Partial repeat,2021.2.3,59.871563241552245,
6,2,0,1,3,2,2,2,1,1,0,1,1,0,0,0,94,94,94,0,0,0,0,,,,,,,899.9315579999238,None,900.2056999001652,None,901.0360920988023,None,s,1,0.47650779969990253,901.0360920988023,None,None,None,,,,,,,14,20,female,14,2022_May_06_1258,Partial repeat,2021.2.3,59.871563241552245,
6,2,0,1,3,2,2,2,1,1,0,1,1,0,0,0,94,94,94,1,0,1,0,,,,,,,,,901.534076699987,None,902.3386464994401,None,s,1,0.6619504988193512,902.3386464994401,None,None,None,,,,,,,14,20,female,14,2022_May_06_1258,Partial repeat,2021.2.3,59.871563241552245,
6,2,0,1,3,2,2,2,1,1,0,1,1,0,0,0,94,94,94,,,,,,,,,,,,,,,,,,,,,,,,,,,,,,14,20,female,14,2022_May_06_1258,Partial repeat,2021.2.3,59.871563241552245,
4,7,0,1,2,3,2,1,1,0,0,0,0,0,0,0,95,95,95,0,0,0,0,,,,,,,903.0159603003412,None,903.2783730998635,None,904.0930717997253,None,s,1,1.1635219994932413,904.0930717997253,None,None,None,,,,,,,14,20,female,14,2022_May_06_1258,Partial repeat,2021.2.3,59.871563241552245,
4,7,0,1,2,3,2,1,1,0,0,0,0,0,0,0,95,95,95,1,0,1,0,,,,,,,,,905.2719163000584,None,906.0293195992708,None,l,1,0.675340199843049,906.0293195992708,None,None,None,,,,,,,14,20,female,14,2022_May_06_1258,Partial repeat,2021.2.3,59.871563241552245,
4,7,0,1,2,3,2,1,1,0,0,0,0,0,0,0,95,95,95,,,,,,,,,,,,,,,,,,,,,,,,,,,,,,14,20,female,14,2022_May_06_1258,Partial repeat,2021.2.3,59.871563241552245,
5,5,0,1,2,2,2,1,0,0,1,0,1,0,0,0,96,96,96,0,0,0,0,,,,,,,906.7236253004521,None,907.0022928994149,None,907.9663025997579,None,l,1,1.0823160000145435,907.9663025997579,None,None,None,,,,,,,14,20,female,14,2022_May_06_1258,Partial repeat,2021.2.3,59.871563241552245,
5,5,0,1,2,2,2,1,0,0,1,0,1,0,0,0,96,96,96,1,0,1,0,,,,,,,,,909.0577167998999,None,909.7865297999233,None,l,1,0.5580797996371984,909.7865297999233,None,None,None,,,,,,,14,20,female,14,2022_May_06_1258,Partial repeat,2021.2.3,59.871563241552245,
5,5,0,1,2,2,2,1,0,0,1,0,1,0,0,0,96,96,96,,,,,,,,,,,,,,,,,,,,,,,,,,,,,,14,20,female,14,2022_May_06_1258,Partial repeat,2021.2.3,59.871563241552245,
6,5,0,1,2,2,1,1,0,0,1,1,1,0,0,0,97,97,97,0,0,0,0,,,,,,,910.359052600339,None,911.4609676990658,None,912.1926645990461,None,l,1,0.6959167998284101,912.1926645990461,None,None,None,,,,,,,14,20,female,14,2022_May_06_1258,Partial repeat,2021.2.3,59.871563241552245,
6,5,0,1,2,2,1,1,0,0,1,1,1,0,0,0,97,97,97,1,0,1,0,,,,,,,,,912.905609799549,None,913.8948538992554,None,l,1,0.5217599999159575,913.8948538992554,None,None,None,,,,,,,14,20,female,14,2022_May_06_1258,Partial repeat,2021.2.3,59.871563241552245,
6,5,0,1,2,2,1,1,0,0,1,1,1,0,0,0,97,97,97,,,,,,,,,,,,,,,,,,,,,,,,,,,,,,14,20,female,14,2022_May_06_1258,Partial repeat,2021.2.3,59.871563241552245,
3,6,0,1,2,3,1,2,0,1,0,0,0,0,0,0,98,98,98,0,0,0,0,,,,,,,914.4391849003732,None,914.8341559004039,None,915.7817298993468,None,l,1,0.5628302004188299,915.7817298993468,None,None,None,,,,,,,14,20,female,14,2022_May_06_1258,Partial repeat,2021.2.3,59.871563241552245,
3,6,0,1,2,3,1,2,0,1,0,0,0,0,0,0,98,98,98,1,0,1,0,,,,,,,,,916.3676624000072,None,917.2182311993092,None,s,1,0.7023412007838488,917.2182311993092,None,None,None,,,,,,,14,20,female,14,2022_May_06_1258,Partial repeat,2021.2.3,59.871563241552245,
3,6,0,1,2,3,1,2,0,1,0,0,0,0,0,0,98,98,98,,,,,,,,,,,,,,,,,,,,,,,,,,,,,,14,20,female,14,2022_May_06_1258,Partial repeat,2021.2.3,59.871563241552245,
2,4,0,1,3,2,2,1,1,0,0,0,0,0,0,0,99,99,99,0,0,0,0,,,,,,,917.9348331987858,None,918.2909471988678,None,919.1058779004961,None,s,1,0.5988274998962879,919.1058779004961,None,None,None,,,,,,,14,20,female,14,2022_May_06_1258,Partial repeat,2021.2.3,59.871563241552245,
2,4,0,1,3,2,2,1,1,0,0,0,0,0,0,0,99,99,99,1,0,1,0,,,,,,,,,919.7324704993516,None,920.7244731988758,None,l,1,0.6841750983148813,920.7244731988758,None,None,None,,,,,,,14,20,female,14,2022_May_06_1258,Partial repeat,2021.2.3,59.871563241552245,
2,4,0,1,3,2,2,1,1,0,0,0,0,0,0,0,99,99,99,,,,,,,,,,,,,,,,,,,,,,,,,,,,,,14,20,female,14,2022_May_06_1258,Partial repeat,2021.2.3,59.871563241552245,
7,2,0,1,2,3,2,2,1,0,0,1,0,0,0,0,100,100,100,0,0,0,0,,,,,,,921.4400999005884,None,921.69754649885,None,922.6451538000256,None,s,1,0.7714514005929232,922.6451538000256,None,None,None,,,,,,,14,20,female,14,2022_May_06_1258,Partial repeat,2021.2.3,59.871563241552245,
7,2,0,1,2,3,2,2,1,0,0,1,0,0,0,0,100,100,100,1,0,1,0,,,,,,,,,923.4429382998496,None,924.3983091991395,None,l,1,0.5942665990442038,924.3983091991395,None,None,None,,,,,,,14,20,female,14,2022_May_06_1258,Partial repeat,2021.2.3,59.871563241552245,
7,2,0,1,2,3,2,2,1,0,0,1,0,0,0,0,100,100,100,,,,,,,,,,,,,,,,,,,,,,,,,,,,,,14,20,female,14,2022_May_06_1258,Partial repeat,2021.2.3,59.871563241552245,
5,8,0,1,3,3,1,2,0,1,1,0,0,0,0,0,101,101,101,0,0,0,0,,,,,,,925.0066727995872,None,925.788866398856,None,926.6360087003559,None,l,1,0.5565508995205164,926.6360087003559,None,None,None,,,,,,,14,20,female,14,2022_May_06_1258,Partial repeat,2021.2.3,59.871563241552245,
5,8,0,1,3,3,1,2,0,1,1,0,0,0,0,0,101,101,101,1,0,1,0,,,,,,,,,927.2204142995179,None,928.1893642004579,None,s,1,0.5952433999627829,928.1893642004579,None,None,None,,,,,,,14,20,female,14,2022_May_06_1258,Partial repeat,2021.2.3,59.871563241552245,
5,8,0,1,3,3,1,2,0,1,1,0,0,0,0,0,101,101,101,,,,,,,,,,,,,,,,,,,,,,,,,,,,,,14,20,female,14,2022_May_06_1258,Partial repeat,2021.2.3,59.871563241552245,
1,5,0,1,3,2,2,1,0,1,0,0,0,0,0,0,102,102,102,0,0,0,0,,,,,,,928.8008504994214,None,929.1954482998699,None,929.9422980993986,None,l,1,0.5383168999105692,929.9422980993986,None,None,None,,,,,,,14,20,female,14,2022_May_06_1258,Partial repeat,2021.2.3,59.871563241552245,
1,5,0,1,3,2,2,1,0,1,0,0,0,0,0,0,102,102,102,1,0,1,0,,,,,,,,,930.50273630023,None,931.3118612989783,None,s,1,0.680799501016736,931.3118612989783,None,None,None,,,,,,,14,20,female,14,2022_May_06_1258,Partial repeat,2021.2.3,59.871563241552245,
1,5,0,1,3,2,2,1,0,1,0,0,0,0,0,0,102,102,102,,,,,,,,,,,,,,,,,,,,,,,,,,,,,,14,20,female,14,2022_May_06_1258,Partial repeat,2021.2.3,59.871563241552245,
5,4,0,1,3,2,2,2,0,1,0,1,0,0,0,0,103,103,103,0,0,0,0,,,,,,,932.0029767993838,None,932.4350620992482,None,933.1822311989963,None,l,1,0.642433799803257,933.1822311989963,None,None,None,,,,,,,14,20,female,14,2022_May_06_1258,Partial repeat,2021.2.3,59.871563241552245,
5,4,0,1,3,2,2,2,0,1,0,1,0,0,0,0,103,103,103,1,0,1,0,,,,,,,,,933.8531213998795,None,934.8521643001586,None,s,1,0.7324043996632099,934.8521643001586,None,None,None,,,,,,,14,20,female,14,2022_May_06_1258,Partial repeat,2021.2.3,59.871563241552245,
5,4,0,1,3,2,2,2,0,1,0,1,0,0,0,0,103,103,103,,,,,,,,,,,,,,,,,,,,,,,,,,,,,,14,20,female,14,2022_May_06_1258,Partial repeat,2021.2.3,59.871563241552245,
3,1,0,1,2,2,1,1,1,0,1,1,0,0,0,0,104,104,104,0,0,0,0,,,,,,,935.6138323992491,None,935.9752808995545,None,936.772512499243,None,s,1,0.6920342985540628,936.772512499243,None,None,None,,,,,,,14,20,female,14,2022_May_06_1258,Partial repeat,2021.2.3,59.871563241552245,
3,1,0,1,2,2,1,1,1,0,1,1,0,0,0,0,104,104,104,1,0,1,0,,,,,,,,,937.4829865992069,None,938.3086159992963,None,l,1,0.556130601093173,938.3086159992963,None,None,None,,,,,,,14,20,female,14,2022_May_06_1258,Partial repeat,2021.2.3,59.871563241552245,
3,1,0,1,2,2,1,1,1,0,1,1,0,0,0,0,104,104,104,,,,,,,,,,,,,,,,,,,,,,,,,,,,,,14,20,female,14,2022_May_06_1258,Partial repeat,2021.2.3,59.871563241552245,
7,8,0,1,2,3,2,2,0,0,0,1,1,0,0,0,105,105,105,0,0,0,0,,,,,,,938.8764561992139,None,939.8996181990951,None,940.8311627004296,None,l,1,0.6094260010868311,940.8311627004296,None,None,None,,,,,,,14,20,female,14,2022_May_06_1258,Partial repeat,2021.2.3,59.871563241552245,
7,8,0,1,2,3,2,2,0,0,0,1,1,0,0,0,105,105,105,1,0,1,0,,,,,,,,,941.4669842999429,None,942.4836683999747,None,l,1,0.636991199105978,942.4836683999747,None,None,None,,,,,,,14,20,female,14,2022_May_06_1258,Partial repeat,2021.2.3,59.871563241552245,
7,8,0,1,2,3,2,2,0,0,0,1,1,0,0,0,105,105,105,,,,,,,,,,,,,,,,,,,,,,,,,,,,,,14,20,female,14,2022_May_06_1258,Partial repeat,2021.2.3,59.871563241552245,
5,7,0,1,2,2,2,2,0,0,1,1,1,0,0,0,106,106,106,0,0,0,0,,,,,,,943.1339851990342,None,943.5567409005016,None,944.5042604003102,None,l,1,0.6082831993699074,944.5042604003102,None,None,None,,,,,,,14,20,female,14,2022_May_06_1258,Partial repeat,2021.2.3,59.871563241552245,
5,7,0,1,2,2,2,2,0,0,1,1,1,0,0,0,106,106,106,1,0,1,0,,,,,,,,,945.1336038988084,None,945.973954198882,None,l,1,0.5865786001086235,945.973954198882,None,None,None,,,,,,,14,20,female,14,2022_May_06_1258,Partial repeat,2021.2.3,59.871563241552245,
5,7,0,1,2,2,2,2,0,0,1,1,1,0,0,0,106,106,106,,,,,,,,,,,,,,,,,,,,,,,,,,,,,,14,20,female,14,2022_May_06_1258,Partial repeat,2021.2.3,59.871563241552245,
5,3,0,1,3,2,2,2,1,0,0,1,0,0,0,0,107,107,107,0,0,0,0,,,,,,,946.5820436999202,None,946.9132921993732,None,947.6604394000024,None,s,1,0.5881645996123552,947.6604394000024,None,None,None,,,,,,,14,20,female,14,2022_May_06_1258,Partial repeat,2021.2.3,59.871563241552245,
5,3,0,1,3,2,2,2,1,0,0,1,0,0,0,0,107,107,107,1,0,1,0,,,,,,,,,948.2684434000403,None,949.1799061000347,None,l,1,0.5486594997346401,949.1799061000347,None,None,None,,,,,,,14,20,female,14,2022_May_06_1258,Partial repeat,2021.2.3,59.871563241552245,
5,3,0,1,3,2,2,2,1,0,0,1,0,0,0,0,107,107,107,,,,,,,,,,,,,,,,,,,,,,,,,,,,,,14,20,female,14,2022_May_06_1258,Partial repeat,2021.2.3,59.871563241552245,
8,2,0,1,2,3,2,2,1,1,0,1,1,0,0,0,108,108,108,0,0,0,0,,,,,,,949.7470375988632,None,950.1695981994271,None,951.0834851991385,None,s,1,0.7171620987355709,951.0834851991385,None,None,None,,,,,,,14,20,female,14,2022_May_06_1258,Partial repeat,2021.2.3,59.871563241552245,
8,2,0,1,2,3,2,2,1,1,0,1,1,0,0,0,108,108,108,1,0,1,0,,,,,,,,,951.8204072993249,None,952.6868261992931,None,s,1,0.6977787986397743,952.6868261992931,None,None,None,,,,,,,14,20,female,14,2022_May_06_1258,Partial repeat,2021.2.3,59.871563241552245,
8,2,0,1,2,3,2,2,1,1,0,1,1,0,0,0,108,108,108,,,,,,,,,,,,,,,,,,,,,,,,,,,,,,14,20,female,14,2022_May_06_1258,Partial repeat,2021.2.3,59.871563241552245,
6,3,0,1,3,2,2,1,0,0,0,0,1,0,0,0,109,109,109,0,0,0,0,,,,,,,953.403533199802,None,953.8100623004138,None,954.6407698001713,None,l,1,0.6398040000349283,954.6407698001713,None,None,None,,,,,,,14,20,female,14,2022_May_06_1258,Partial repeat,2021.2.3,59.871563241552245,
6,3,0,1,3,2,2,1,0,0,0,0,1,0,0,0,109,109,109,1,0,1,0,,,,,,,,,955.3073837999254,None,956.1772566996515,None,l,1,0.48730240017175674,956.1772566996515,None,None,None,,,,,,,14,20,female,14,2022_May_06_1258,Partial repeat,2021.2.3,59.871563241552245,
6,3,0,1,3,2,2,1,0,0,0,0,1,0,0,0,109,109,109,,,,,,,,,,,,,,,,,,,,,,,,,,,,,,14,20,female,14,2022_May_06_1258,Partial repeat,2021.2.3,59.871563241552245,
2,7,0,1,3,2,2,1,1,1,0,0,1,0,0,0,110,110,110,0,0,0,0,,,,,,,956.6817166991532,None,956.9995840992779,None,957.8799242004752,None,s,1,0.648649301379919,957.8799242004752,None,None,None,,,,,,,14,20,female,14,2022_May_06_1258,Partial repeat,2021.2.3,59.871563241552245,
2,7,0,1,3,2,2,1,1,1,0,0,1,0,0,0,110,110,110,1,0,1,0,,,,,,,,,958.5522475987673,None,959.3495735004544,None,s,1,0.7471136003732681,959.3495735004544,None,None,None,,,,,,,14,20,female,14,2022_May_06_1258,Partial repeat,2021.2.3,59.871563241552245,
2,7,0,1,3,2,2,1,1,1,0,0,1,0,0,0,110,110,110,,,,,,,,,,,,,,,,,,,,,,,,,,,,,,14,20,female,14,2022_May_06_1258,Partial repeat,2021.2.3,59.871563241552245,
3,5,0,1,2,3,2,1,0,0,0,0,1,0,0,0,111,111,111,0,0,0,0,,,,,,,960.1085857003927,None,962.1762713994831,None,963.1081229988486,None,l,1,1.068453999236226,963.1081229988486,None,None,None,,,,,,,14,20,female,14,2022_May_06_1258,Partial repeat,2021.2.3,59.871563241552245,
3,5,0,1,2,3,2,1,0,0,0,0,1,0,0,0,111,111,111,1,0,1,0,,,,,,,,,964.1918347999454,None,965.0281312000006,None,l,1,1.236413400620222,965.0281312000006,None,None,None,,,,,,,14,20,female,14,2022_May_06_1258,Partial repeat,2021.2.3,59.871563241552245,
3,5,0,1,2,3,2,1,0,0,0,0,1,0,0,0,111,111,111,,,,,,,,,,,,,,,,,,,,,,,,,,,,,,14,20,female,14,2022_May_06_1258,Partial repeat,2021.2.3,59.871563241552245,
1,7,0,1,3,3,2,1,0,0,1,0,1,0,0,0,112,112,112,0,0,0,0,,,,,,,966.2819798998535,None,966.5681717004627,None,967.5822652000934,None,l,1,0.8183395005762577,967.5822652000934,None,None,None,,,,,,,14,20,female,14,2022_May_06_1258,Partial repeat,2021.2.3,59.871563241552245,
1,7,0,1,3,3,2,1,0,0,1,0,1,0,0,0,112,112,112,1,0,1,0,,,,,,,,,968.4223352000117,None,969.3192813005298,None,l,1,0.6492909006774426,969.3192813005298,None,None,None,,,,,,,14,20,female,14,2022_May_06_1258,Partial repeat,2021.2.3,59.871563241552245,
1,7,0,1,3,3,2,1,0,0,1,0,1,0,0,0,112,112,112,,,,,,,,,,,,,,,,,,,,,,,,,,,,,,14,20,female,14,2022_May_06_1258,Partial repeat,2021.2.3,59.871563241552245,
2,3,0,1,2,3,1,1,0,0,0,1,1,0,0,0,113,113,113,0,0,0,0,,,,,,,969.9905241001397,None,971.4275998994708,None,972.2256402987987,None,l,1,0.7189101986587048,972.2256402987987,None,None,None,,,,,,,14,20,female,14,2022_May_06_1258,Partial repeat,2021.2.3,59.871563241552245,
2,3,0,1,2,3,1,1,0,0,0,1,1,0,0,0,113,113,113,1,0,1,0,,,,,,,,,972.9601157996804,None,973.9113004989922,None,l,1,0.49734679982066154,973.9113004989922,None,None,None,,,,,,,14,20,female,14,2022_May_06_1258,Partial repeat,2021.2.3,59.871563241552245,
2,3,0,1,2,3,1,1,0,0,0,1,1,0,0,0,113,113,113,,,,,,,,,,,,,,,,,,,,,,,,,,,,,,14,20,female,14,2022_May_06_1258,Partial repeat,2021.2.3,59.871563241552245,
7,6,0,1,3,2,1,2,1,1,0,0,1,0,0,0,114,114,114,0,0,0,0,,,,,,,974.4363394994289,None,974.9177358988672,None,975.7993666995317,None,s,1,0.5533384997397661,975.7993666995317,None,None,None,,,,,,,14,20,female,14,2022_May_06_1258,Partial repeat,2021.2.3,59.871563241552245,
7,6,0,1,3,2,1,2,1,1,0,0,1,0,0,0,114,114,114,1,0,1,0,,,,,,,,,976.3628380987793,None,977.2845373991877,None,s,1,0.48406209982931614,977.2845373991877,None,None,None,,,,,,,14,20,female,14,2022_May_06_1258,Partial repeat,2021.2.3,59.871563241552245,
7,6,0,1,3,2,1,2,1,1,0,0,1,0,0,0,114,114,114,,,,,,,,,,,,,,,,,,,,,,,,,,,,,,14,20,female,14,2022_May_06_1258,Partial repeat,2021.2.3,59.871563241552245,
3,7,0,1,2,2,1,2,0,0,1,0,1,0,0,0,115,115,115,0,0,0,0,,,,,,,977.7888588998467,None,980.0945081990212,None,981.0086957998574,None,l,1,0.7759034000337124,981.0086957998574,None,None,None,,,,,,,14,20,female,14,2022_May_06_1258,Partial repeat,2021.2.3,59.871563241552245,
3,7,0,1,2,2,1,2,0,0,1,0,1,0,0,0,115,115,115,1,0,1,0,,,,,,,,,981.8093194998801,None,982.7454116996378,None,l,1,0.6631576996296644,982.7454116996378,None,None,None,,,,,,,14,20,female,14,2022_May_06_1258,Partial repeat,2021.2.3,59.871563241552245,
3,7,0,1,2,2,1,2,0,0,1,0,1,0,0,0,115,115,115,,,,,,,,,,,,,,,,,,,,,,,,,,,,,,14,20,female,14,2022_May_06_1258,Partial repeat,2021.2.3,59.871563241552245,
4,6,0,1,3,3,2,2,1,0,1,1,0,0,0,0,116,116,116,0,0,0,0,,,,,,,983.4253607001156,None,985.9058340005577,None,986.6526854988188,None,s,1,0.6038786005228758,986.6526854988188,None,None,None,,,,,,,14,20,female,14,2022_May_06_1258,Partial repeat,2021.2.3,59.871563241552245,
4,6,0,1,3,3,2,2,1,0,1,1,0,0,0,0,116,116,116,1,0,1,0,,,,,,,,,987.282120699063,None,988.0892376992851,None,l,1,0.7434411011636257,988.0892376992851,None,None,None,,,,,,,14,20,female,14,2022_May_06_1258,Partial repeat,2021.2.3,59.871563241552245,
4,6,0,1,3,3,2,2,1,0,1,1,0,0,0,0,116,116,116,,,,,,,,,,,,,,,,,,,,,,,,,,,,,,14,20,female,14,2022_May_06_1258,Partial repeat,2021.2.3,59.871563241552245,
8,8,0,1,3,3,1,2,1,0,1,0,0,0,0,0,117,117,117,0,0,0,0,,,,,,,988.8535163998604,None,989.1287903003395,None,989.9259703997523,None,s,1,0.5547123998403549,989.9259703997523,None,None,None,,,,,,,14,20,female,14,2022_May_06_1258,Partial repeat,2021.2.3,59.871563241552245,
8,8,0,1,3,3,1,2,1,0,1,0,0,0,0,0,117,117,117,1,0,1,0,,,,,,,,,990.4911591000855,None,991.3284514993429,None,l,1,0.6801968012005091,991.3284514993429,None,None,None,,,,,,,14,20,female,14,2022_May_06_1258,Partial repeat,2021.2.3,59.871563241552245,
8,8,0,1,3,3,1,2,1,0,1,0,0,0,0,0,117,117,117,,,,,,,,,,,,,,,,,,,,,,,,,,,,,,14,20,female,14,2022_May_06_1258,Partial repeat,2021.2.3,59.871563241552245,
3,8,0,1,2,2,2,1,1,0,1,0,0,0,0,0,118,118,118,0,0,0,0,,,,,,,992.0261722002178,None,993.4037347994745,None,994.3011380005628,None,s,1,0.7234190013259649,994.3011380005628,None,None,None,,,,,,,14,20,female,14,2022_May_06_1258,Partial repeat,2021.2.3,59.871563241552245,
3,8,0,1,2,2,2,1,1,0,1,0,0,0,0,0,118,118,118,1,0,1,0,,,,,,,,,995.0364353004843,None,995.9878714997321,None,l,1,0.7648108992725611,995.9878714997321,None,None,None,,,,,,,14,20,female,14,2022_May_06_1258,Partial repeat,2021.2.3,59.871563241552245,
3,8,0,1,2,2,2,1,1,0,1,0,0,0,0,0,118,118,118,,,,,,,,,,,,,,,,,,,,,,,,,,,,,,14,20,female,14,2022_May_06_1258,Partial repeat,2021.2.3,59.871563241552245,
4,5,0,1,3,2,2,2,0,0,0,1,1,0,0,0,119,119,119,0,0,0,0,,,,,,,996.771683499217,None,997.3781479001045,None,998.1752464994788,None,l,1,1.185351299121976,998.1752464994788,None,None,None,,,,,,,14,20,female,14,2022_May_06_1258,Partial repeat,2021.2.3,59.871563241552245,
4,5,0,1,3,2,2,2,0,0,0,1,1,0,0,0,119,119,119,1,0,1,0,,,,,,,,,999.3767042998224,None,1000.212540499866,None,l,1,0.7080218009650707,1000.212540499866,None,None,None,,,,,,,14,20,female,14,2022_May_06_1258,Partial repeat,2021.2.3,59.871563241552245,
4,5,0,1,3,2,2,2,0,0,0,1,1,0,0,0,119,119,119,,,,,,,,,,,,,,,,,,,,,,,,,,,,,,14,20,female,14,2022_May_06_1258,Partial repeat,2021.2.3,59.871563241552245,
8,1,0,1,2,2,2,1,1,1,1,0,1,0,0,0,120,120,120,0,0,0,0,,,,,,,1000.9493659995496,None,1001.4694334995002,None,1002.200622599572,None,s,1,0.5919703003019094,1002.200622599572,None,None,None,,,,,,,14,20,female,14,2022_May_06_1258,Partial repeat,2021.2.3,59.871563241552245,
8,1,0,1,2,2,2,1,1,1,1,0,1,0,0,0,120,120,120,1,0,1,0,,,,,,,,,1002.8074586987495,None,1003.5855905991048,None,s,1,0.5750095993280411,1003.5855905991048,None,None,None,,,,,,,14,20,female,14,2022_May_06_1258,Partial repeat,2021.2.3,59.871563241552245,
8,1,0,1,2,2,2,1,1,1,1,0,1,0,0,0,120,120,120,,,,,,,,,,,,,,,,,,,,,,,,,,,,,,14,20,female,14,2022_May_06_1258,Partial repeat,2021.2.3,59.871563241552245,
7,7,0,1,2,2,2,1,0,1,1,0,0,0,0,0,121,121,121,0,0,0,0,,,,,,,1004.1750961001962,None,1006.4290984999388,None,1007.2598697002977,None,l,1,0.5727082006633282,1007.2598697002977,None,None,None,,,,,,,14,20,female,14,2022_May_06_1258,Partial repeat,2021.2.3,59.871563241552245,
7,7,0,1,2,2,2,1,0,1,1,0,0,0,0,0,121,121,121,1,0,1,0,,,,,,,,,1007.8459591995925,None,1008.5954349003732,None,s,1,0.4851115010678768,1008.5954349003732,None,None,None,,,,,,,14,20,female,14,2022_May_06_1258,Partial repeat,2021.2.3,59.871563241552245,
7,7,0,1,2,2,2,1,0,1,1,0,0,0,0,0,121,121,121,,,,,,,,,,,,,,,,,,,,,,,,,,,,,,14,20,female,14,2022_May_06_1258,Partial repeat,2021.2.3,59.871563241552245,
8,5,0,1,3,3,1,1,1,1,1,1,1,0,0,0,122,122,122,0,0,0,0,,,,,,,1009.0951128993183,None,1009.518442299217,None,1010.3321064990014,None,s,1,0.6124836001545191,1010.3321064990014,None,None,None,,,,,,,14,20,female,14,2022_May_06_1258,Partial repeat,2021.2.3,59.871563241552245,
8,5,0,1,3,3,1,1,1,1,1,1,1,0,0,0,122,122,122,1,0,1,0,,,,,,,,,1010.9585338998586,None,1011.9695727005601,None,s,1,0.5350010991096497,1011.9695727005601,None,None,None,,,,,,,14,20,female,14,2022_May_06_1258,Partial repeat,2021.2.3,59.871563241552245,
8,5,0,1,3,3,1,1,1,1,1,1,1,0,0,0,122,122,122,,,,,,,,,,,,,,,,,,,,,,,,,,,,,,14,20,female,14,2022_May_06_1258,Partial repeat,2021.2.3,59.871563241552245,
7,3,0,1,2,2,1,2,1,0,1,0,0,0,0,0,123,123,123,0,0,0,0,,,,,,,1012.5182523000985,None,1012.8749754000455,None,1013.6554818991572,None,s,1,0.5851714015007019,1013.6554818991572,None,None,None,,,,,,,14,20,female,14,2022_May_06_1258,Partial repeat,2021.2.3,59.871563241552245,
7,3,0,1,2,2,1,2,1,0,1,0,0,0,0,0,123,123,123,1,0,1,0,,,,,,,,,1014.2487470004708,None,1015.1758504994214,None,l,1,0.6887491997331381,1015.1758504994214,None,None,None,,,,,,,14,20,female,14,2022_May_06_1258,Partial repeat,2021.2.3,59.871563241552245,
7,3,0,1,2,2,1,2,1,0,1,0,0,0,0,0,123,123,123,,,,,,,,,,,,,,,,,,,,,,,,,,,,,,14,20,female,14,2022_May_06_1258,Partial repeat,2021.2.3,59.871563241552245,
4,8,0,1,3,3,2,1,1,0,1,0,0,0,0,0,124,124,124,0,0,0,0,,,,,,,1015.8924771994352,None,1016.1647040992975,None,1017.1789907999337,None,s,1,0.5576264001429081,1017.1789907999337,None,None,None,,,,,,,14,20,female,14,2022_May_06_1258,Partial repeat,2021.2.3,59.871563241552245,
4,8,0,1,3,3,2,1,1,0,1,0,0,0,0,0,124,124,124,1,0,1,0,,,,,,,,,1017.7570494990796,None,1018.5146801006049,None,l,1,0.5099982004612684,1018.5146801006049,None,None,None,,,,,,,14,20,female,14,2022_May_06_1258,Partial repeat,2021.2.3,59.871563241552245,
4,8,0,1,3,3,2,1,1,0,1,0,0,0,0,0,124,124,124,,,,,,,,,,,,,,,,,,,,,,,,,,,,,,14,20,female,14,2022_May_06_1258,Partial repeat,2021.2.3,59.871563241552245,
2,6,0,1,2,3,2,1,1,1,0,0,1,0,0,0,125,125,125,0,0,0,0,,,,,,,1019.0378804989159,None,1019.4543692003936,None,1020.2178102005273,None,s,1,0.5747970007359982,1020.2178102005273,None,None,None,,,,,,,14,20,female,14,2022_May_06_1258,Partial repeat,2021.2.3,59.871563241552245,
2,6,0,1,2,3,2,1,1,1,0,0,1,0,0,0,125,125,125,1,0,1,0,,,,,,,,,1020.8066035993397,None,1021.7044319994748,None,s,1,0.6241303998976946,1021.7044319994748,None,None,None,,,,,,,14,20,female,14,2022_May_06_1258,Partial repeat,2021.2.3,59.871563241552245,
2,6,0,1,2,3,2,1,1,1,0,0,1,0,0,0,125,125,125,,,,,,,,,,,,,,,,,,,,,,,,,,,,,,14,20,female,14,2022_May_06_1258,Partial repeat,2021.2.3,59.871563241552245,
2,5,0,1,3,3,2,2,1,1,1,1,1,0,0,0,126,126,126,0,0,0,0,,,,,,,1022.3530205991119,None,1022.8443168997765,None,1023.7251233998686,None,s,1,0.6195256002247334,1023.7251233998686,None,None,None,,,,,,,14,20,female,14,2022_May_06_1258,Partial repeat,2021.2.3,59.871563241552245,
2,5,0,1,3,3,2,2,1,1,1,1,1,0,0,0,126,126,126,1,0,1,0,,,,,,,,,1024.3526568002999,None,1025.295052099973,None,s,1,0.5855436008423567,1025.295052099973,None,None,None,,,,,,,14,20,female,14,2022_May_06_1258,Partial repeat,2021.2.3,59.871563241552245,
2,5,0,1,3,3,2,2,1,1,1,1,1,0,0,0,126,126,126,,,,,,,,,,,,,,,,,,,,,,,,,,,,,,14,20,female,14,2022_May_06_1258,Partial repeat,2021.2.3,59.871563241552245,
5,2,0,1,2,3,1,2,1,1,0,0,1,0,0,0,127,127,127,0,0,0,0,,,,,,,1025.903943900019,None,1026.6016739998013,None,1027.466573100537,None,s,1,0.39001649990677834,1027.466573100537,None,None,None,,,,,,,14,20,female,14,2022_May_06_1258,Partial repeat,2021.2.3,59.871563241552245,
5,2,0,1,2,3,1,2,1,1,0,0,1,0,0,0,127,127,127,1,0,1,0,,,,,,,,,1027.8778651002795,None,1028.6353881005198,None,s,1,0.5972272995859385,1028.6353881005198,None,None,None,,,,,,,14,20,female,14,2022_May_06_1258,Partial repeat,2021.2.3,59.871563241552245,
5,2,0,1,2,3,1,2,1,1,0,0,1,0,0,0,127,127,127,,,,,,,,,,,,,,,,,,,,,,,,,,,,,,14,20,female,14,2022_May_06_1258,Partial repeat,2021.2.3,59.871563241552245,
4,4,0,1,2,2,2,1,0,1,1,0,0,1,0,0,128,128,128,0,0,0,0,,,,,,,1029.5356379989535,None,1031.1603605989367,None,1031.9248229991645,None,l,1,1.0917923003435135,1031.9248229991645,None,None,None,,,,,,,14,20,female,14,2022_May_06_1258,Partial repeat,2021.2.3,59.871563241552245,
4,4,0,1,2,2,2,1,0,1,1,0,0,1,0,0,128,128,128,1,0,1,0,,,,,,,,,1033.0314376987517,None,1033.9294830989093,None,s,1,0.6551099997013807,1033.9294830989093,None,None,None,,,,,,,14,20,female,14,2022_May_06_1258,Partial repeat,2021.2.3,59.871563241552245,
4,4,0,1,2,2,2,1,0,1,1,0,0,1,0,0,128,128,128,,,,,,,,,,,,,,,,,,,,,,,,,,,,,,14,20,female,14,2022_May_06_1258,Partial repeat,2021.2.3,59.871563241552245,
4,4,0,1,3,2,2,1,1,0,0,0,0,1,0,0,129,129,129,0,0,0,0,,,,,,,1034.5998895987868,None,1035.352002499625,None,1036.3493070993572,None,s,1,0.8112577013671398,1036.3493070993572,None,None,None,,,,,,,14,20,female,14,2022_May_06_1258,Partial repeat,2021.2.3,59.871563241552245,
4,4,0,1,3,2,2,1,1,0,0,0,0,1,0,0,129,129,129,1,0,1,0,,,,,,,,,1037.1883991993964,None,1038.0698675997555,None,l,1,0.6267537996172905,1038.0698675997555,None,None,None,,,,,,,14,20,female,14,2022_May_06_1258,Partial repeat,2021.2.3,59.871563241552245,
4,4,0,1,3,2,2,1,1,0,0,0,0,1,0,0,129,129,129,,,,,,,,,,,,,,,,,,,,,,,,,,,,,,14,20,female,14,2022_May_06_1258,Partial repeat,2021.2.3,59.871563241552245,
4,4,0,1,2,2,1,1,1,1,1,1,1,1,0,0,130,130,130,0,0,0,0,,,,,,,1038.7246282994747,None,1039.0091216992587,None,1039.9076556991786,None,s,1,0.8049407005310059,1039.9076556991786,None,None,None,,,,,,,14,20,female,14,2022_May_06_1258,Partial repeat,2021.2.3,59.871563241552245,
4,4,0,1,2,2,1,1,1,1,1,1,1,1,0,0,130,130,130,1,0,1,0,,,,,,,,,1040.727580100298,None,1041.6763333994895,None,s,1,0.5162428002804518,1041.6763333994895,None,None,None,,,,,,,14,20,female,14,2022_May_06_1258,Partial repeat,2021.2.3,59.871563241552245,
4,4,0,1,2,2,1,1,1,1,1,1,1,1,0,0,130,130,130,,,,,,,,,,,,,,,,,,,,,,,,,,,,,,14,20,female,14,2022_May_06_1258,Partial repeat,2021.2.3,59.871563241552245,
4,4,0,1,3,2,2,1,0,0,0,0,1,1,0,0,131,131,131,0,0,0,0,,,,,,,1042.2167076002806,None,1042.4157730992883,None,1043.2471392005682,None,l,1,0.913460498675704,1043.2471392005682,None,None,None,,,,,,,14,20,female,14,2022_May_06_1258,Partial repeat,2021.2.3,59.871563241552245,
4,4,0,1,3,2,2,1,0,0,0,0,1,1,0,0,131,131,131,1,0,1,0,,,,,,,,,1044.1725906990469,None,1045.1833893992007,None,l,1,0.7931513004004955,1045.1833893992007,None,None,None,,,,,,,14,20,female,14,2022_May_06_1258,Partial repeat,2021.2.3,59.871563241552245,
4,4,0,1,3,2,2,1,0,0,0,0,1,1,0,0,131,131,131,,,,,,,,,,,,,,,,,,,,,,,,,,,,,,14,20,female,14,2022_May_06_1258,Partial repeat,2021.2.3,59.871563241552245,
4,4,0,1,3,3,1,2,0,1,1,0,0,1,0,0,132,132,132,0,0,0,0,,,,,,,1046.0031717997044,None,1046.289980199188,None,1047.2036461997777,None,l,1,0.4608977008610964,1047.2036461997777,None,None,None,,,,,,,14,20,female,14,2022_May_06_1258,Partial repeat,2021.2.3,59.871563241552245,
4,4,0,1,3,3,1,2,0,1,1,0,0,1,0,0,132,132,132,1,0,1,0,,,,,,,,,1047.6831023991108,None,1048.5066919997334,None,s,1,0.5899758003652096,1048.5066919997334,None,None,None,,,,,,,14,20,female,14,2022_May_06_1258,Partial repeat,2021.2.3,59.871563241552245,
4,4,0,1,3,3,1,2,0,1,1,0,0,1,0,0,132,132,132,,,,,,,,,,,,,,,,,,,,,,,,,,,,,,14,20,female,14,2022_May_06_1258,Partial repeat,2021.2.3,59.871563241552245,
4,4,0,1,3,3,1,2,1,0,1,0,0,1,0,0,133,133,133,0,0,0,0,,,,,,,1049.11806399934,None,1049.5629906002432,None,1050.4267851989716,None,s,1,0.6057660989463329,1050.4267851989716,None,None,None,,,,,,,14,20,female,14,2022_May_06_1258,Partial repeat,2021.2.3,59.871563241552245,
4,4,0,1,3,3,1,2,1,0,1,0,0,1,0,0,133,133,133,1,0,1,0,,,,,,,,,1051.05767409876,None,1052.0469514988363,None,l,1,0.5536062996834517,1052.0469514988363,None,None,None,,,,,,,14,20,female,14,2022_May_06_1258,Partial repeat,2021.2.3,59.871563241552245,
4,4,0,1,3,3,1,2,1,0,1,0,0,1,0,0,133,133,133,,,,,,,,,,,,,,,,,,,,,,,,,,,,,,14,20,female,14,2022_May_06_1258,Partial repeat,2021.2.3,59.871563241552245,
4,4,0,1,3,3,1,1,1,0,1,1,0,1,0,0,134,134,134,0,0,0,0,,,,,,,1052.611932599917,None,1053.4038321003318,None,1054.2184270005673,None,s,1,0.46220939978957176,1054.2184270005673,None,None,None,,,,,,,14,20,female,14,2022_May_06_1258,Partial repeat,2021.2.3,59.871563241552245,
4,4,0,1,3,3,1,1,1,0,1,1,0,1,0,0,134,134,134,1,0,1,0,,,,,,,,,1054.6979347988963,None,1055.686963500455,None,s,0,0.48956730030477047,1055.686963500455,None,1056.1903041005135,None,,,,,,,14,20,female,14,2022_May_06_1258,Partial repeat,2021.2.3,59.871563241552245,
4,4,0,1,3,3,1,1,1,0,1,1,0,1,0,0,134,134,134,,,,,,,,,,,,,,,,,,,,,,,,,,,,,,14,20,female,14,2022_May_06_1258,Partial repeat,2021.2.3,59.871563241552245,
4,4,0,1,3,2,1,1,1,0,0,1,0,1,0,0,135,135,135,0,0,0,0,,,,,,,1056.6936034988612,None,1056.9271606989205,None,1057.8083721995354,None,s,1,0.5922178011387587,1057.8083721995354,None,None,None,,,,,,,14,20,female,14,2022_May_06_1258,Partial repeat,2021.2.3,59.871563241552245,
4,4,0,1,3,2,1,1,1,0,0,1,0,1,0,0,135,135,135,1,0,1,0,,,,,,,,,1058.4088052995503,None,1059.3446488995105,None,l,1,0.5439133998006582,1059.3446488995105,None,None,None,,,,,,,14,20,female,14,2022_May_06_1258,Partial repeat,2021.2.3,59.871563241552245,
4,4,0,1,3,2,1,1,1,0,0,1,0,1,0,0,135,135,135,,,,,,,,,,,,,,,,,,,,,,,,,,,,,,14,20,female,14,2022_May_06_1258,Partial repeat,2021.2.3,59.871563241552245,
4,4,0,1,3,2,2,2,0,0,0,1,1,1,0,0,136,136,136,0,0,0,0,,,,,,,1059.913936600089,None,1060.2337787989527,None,1061.097761400044,None,l,1,0.44682819955050945,1061.097761400044,None,None,None,,,,,,,14,20,female,14,2022_May_06_1258,Partial repeat,2021.2.3,59.871563241552245,
4,4,0,1,3,2,2,2,0,0,0,1,1,1,0,0,136,136,136,1,0,1,0,,,,,,,,,1061.5602333005518,None,1062.3836112990975,None,l,1,0.4809742011129856,1062.3836112990975,None,None,None,,,,,,,14,20,female,14,2022_May_06_1258,Partial repeat,2021.2.3,59.871563241552245,
4,4,0,1,3,2,2,2,0,0,0,1,1,1,0,0,136,136,136,,,,,,,,,,,,,,,,,,,,,,,,,,,,,,14,20,female,14,2022_May_06_1258,Partial repeat,2021.2.3,59.871563241552245,
4,4,0,1,2,2,1,1,0,0,1,1,1,1,0,0,137,137,137,0,0,0,0,,,,,,,1062.8864398989826,None,1063.4567245990038,None,1064.370719699189,None,l,1,0.45386889949440956,1064.370719699189,None,None,None,,,,,,,14,20,female,14,2022_May_06_1258,Partial repeat,2021.2.3,59.871563241552245,
4,4,0,1,2,2,1,1,0,0,1,1,1,1,0,0,137,137,137,1,0,1,0,,,,,,,,,1064.8463502004743,None,1065.7733819987625,None,l,1,0.43527100048959255,1065.7733819987625,None,None,None,,,,,,,14,20,female,14,2022_May_06_1258,Partial repeat,2021.2.3,59.871563241552245,
4,4,0,1,2,2,1,1,0,0,1,1,1,1,0,0,137,137,137,,,,,,,,,,,,,,,,,,,,,,,,,,,,,,14,20,female,14,2022_May_06_1258,Partial repeat,2021.2.3,59.871563241552245,
4,4,0,1,3,3,1,1,1,1,1,1,1,1,0,0,138,138,138,0,0,0,0,,,,,,,1066.239091699943,None,1066.562765499577,None,1067.3943952992558,None,s,1,0.46209200099110603,1067.3943952992558,None,None,None,,,,,,,14,20,female,14,2022_May_06_1258,Partial repeat,2021.2.3,59.871563241552245,
4,4,0,1,3,3,1,1,1,1,1,1,1,1,0,0,138,138,138,1,0,1,0,,,,,,,,,1067.8696203995496,None,1068.6290505994111,None,s,1,0.4756702985614538,1068.6290505994111,None,None,None,,,,,,,14,20,female,14,2022_May_06_1258,Partial repeat,2021.2.3,59.871563241552245,
4,4,0,1,3,3,1,1,1,1,1,1,1,1,0,0,138,138,138,,,,,,,,,,,,,,,,,,,,,,,,,,,,,,14,20,female,14,2022_May_06_1258,Partial repeat,2021.2.3,59.871563241552245,
4,4,0,1,2,2,1,1,1,0,1,1,0,1,0,0,139,139,139,0,0,0,0,,,,,,,1069.137002499774,None,1069.5686182994395,None,1070.315737100318,None,s,1,0.5088404007256031,1070.315737100318,None,None,None,,,,,,,14,20,female,14,2022_May_06_1258,Partial repeat,2021.2.3,59.871563241552245,
4,4,0,1,2,2,1,1,1,0,1,1,0,1,0,0,139,139,139,1,0,1,0,,,,,,,,,1070.832898300141,None,1071.735110199079,None,l,1,0.6496280990540981,1071.735110199079,None,None,None,,,,,,,14,20,female,14,2022_May_06_1258,Partial repeat,2021.2.3,59.871563241552245,
4,4,0,1,2,2,1,1,1,0,1,1,0,1,0,0,139,139,139,,,,,,,,,,,,,,,,,,,,,,,,,,,,,,14,20,female,14,2022_May_06_1258,Partial repeat,2021.2.3,59.871563241552245,
4,4,0,1,3,2,1,2,0,0,0,0,1,1,0,0,140,140,140,0,0,0,0,,,,,,,1072.3965268991888,None,1072.7580354996026,None,1073.5550643987954,None,l,1,0.5015703998506069,1073.5550643987954,None,None,None,,,,,,,14,20,female,14,2022_May_06_1258,Partial repeat,2021.2.3,59.871563241552245,
4,4,0,1,3,2,1,2,0,0,0,0,1,1,0,0,140,140,140,1,0,1,0,,,,,,,,,1074.0772008989006,None,1075.0249530989677,None,l,1,0.39959900081157684,1075.0249530989677,None,None,None,,,,,,,14,20,female,14,2022_May_06_1258,Partial repeat,2021.2.3,59.871563241552245,
4,4,0,1,3,2,1,2,0,0,0,0,1,1,0,0,140,140,140,,,,,,,,,,,,,,,,,,,,,,,,,,,,,,14,20,female,14,2022_May_06_1258,Partial repeat,2021.2.3,59.871563241552245,
4,4,0,1,2,3,1,2,0,1,0,0,0,1,0,0,141,141,141,0,0,0,0,,,,,,,1075.4418248999864,None,1075.7138906996697,None,1076.6115524005145,None,l,1,0.5490498002618551,1076.6115524005145,None,None,None,,,,,,,14,20,female,14,2022_May_06_1258,Partial repeat,2021.2.3,59.871563241552245,
4,4,0,1,2,3,1,2,0,1,0,0,0,1,0,0,141,141,141,1,0,1,0,,,,,,,,,1077.187321299687,None,1078.147380700335,None,s,1,0.5092877000570297,1078.147380700335,None,None,None,,,,,,,14,20,female,14,2022_May_06_1258,Partial repeat,2021.2.3,59.871563241552245,
4,4,0,1,2,3,1,2,0,1,0,0,0,1,0,0,141,141,141,,,,,,,,,,,,,,,,,,,,,,,,,,,,,,14,20,female,14,2022_May_06_1258,Partial repeat,2021.2.3,59.871563241552245,
4,4,0,1,2,2,2,2,1,1,1,1,1,1,0,0,142,142,142,0,0,0,0,,,,,,,1078.6704501993954,None,1078.886705700308,None,1079.6846168003976,None,s,1,0.659910200163722,1079.6846168003976,None,None,None,,,,,,,14,20,female,14,2022_May_06_1258,Partial repeat,2021.2.3,59.871563241552245,
4,4,0,1,2,2,2,2,1,1,1,1,1,1,0,0,142,142,142,1,0,1,0,,,,,,,,,1080.3584505990148,None,1081.2210827004164,None,s,1,0.5075027998536825,1081.2210827004164,None,None,None,,,,,,,14,20,female,14,2022_May_06_1258,Partial repeat,2021.2.3,59.871563241552245,
4,4,0,1,2,2,2,2,1,1,1,1,1,1,0,0,142,142,142,,,,,,,,,,,,,,,,,,,,,,,,,,,,,,14,20,female,14,2022_May_06_1258,Partial repeat,2021.2.3,59.871563241552245,
4,4,0,1,2,3,1,2,0,0,0,0,1,1,0,0,143,143,143,0,0,0,0,,,,,,,1081.7486527003348,None,1082.1096097994596,None,1083.0904993005097,None,l,1,0.5741018000990152,1083.0904993005097,None,None,None,,,,,,,14,20,female,14,2022_May_06_1258,Partial repeat,2021.2.3,59.871563241552245,
4,4,0,1,2,3,1,2,0,0,0,0,1,1,0,0,143,143,143,1,0,1,0,,,,,,,,,1083.6741250995547,None,1084.5932519994676,None,l,1,0.4473524000495672,1084.5932519994676,None,None,None,,,,,,,14,20,female,14,2022_May_06_1258,Partial repeat,2021.2.3,59.871563241552245,
4,4,0,1,2,3,1,2,0,0,0,0,1,1,0,0,143,143,143,,,,,,,,,,,,,,,,,,,,,,,,,,,,,,14,20,female,14,2022_May_06_1258,Partial repeat,2021.2.3,59.871563241552245,
4,4,0,1,3,3,1,1,0,1,1,1,0,1,0,0,144,144,144,0,0,0,0,,,,,,,1085.0517007000744,None,1085.282499300316,None,1086.1466614995152,None,l,1,0.5739802997559309,1086.1466614995152,None,None,None,,,,,,,14,20,female,14,2022_May_06_1258,Partial repeat,2021.2.3,59.871563241552245,
4,4,0,1,3,3,1,1,0,1,1,1,0,1,0,0,144,144,144,1,0,1,0,,,,,,,,,1086.7295178994536,None,1087.71598980017,None,s,1,0.5405937992036343,1087.71598980017,None,None,None,,,,,,,14,20,female,14,2022_May_06_1258,Partial repeat,2021.2.3,59.871563241552245,
4,4,0,1,3,3,1,1,0,1,1,1,0,1,0,0,144,144,144,,,,,,,,,,,,,,,,,,,,,,,,,,,,,,14,20,female,14,2022_May_06_1258,Partial repeat,2021.2.3,59.871563241552245,
4,4,0,1,3,2,1,2,1,1,0,0,1,1,0,0,145,145,145,0,0,0,0,,,,,,,1088.2834038995206,None,1088.6056353002787,None,1089.3535730987787,None,s,1,0.527012100443244,1089.3535730987787,None,None,None,,,,,,,14,20,female,14,2022_May_06_1258,Partial repeat,2021.2.3,59.871563241552245,
4,4,0,1,3,2,1,2,1,1,0,0,1,1,0,0,145,145,145,1,0,1,0,,,,,,,,,1089.8998191989958,None,1090.8724006004632,None,s,1,0.4641786012798548,1090.8724006004632,None,None,None,,,,,,,14,20,female,14,2022_May_06_1258,Partial repeat,2021.2.3,59.871563241552245,
4,4,0,1,3,2,1,2,1,1,0,0,1,1,0,0,145,145,145,,,,,,,,,,,,,,,,,,,,,,,,,,,,,,14,20,female,14,2022_May_06_1258,Partial repeat,2021.2.3,59.871563241552245,
4,4,0,1,2,3,1,2,1,0,0,0,0,1,0,0,146,146,146,0,0,0,0,,,,,,,1091.3541524000466,None,1091.5948044005781,None,1092.5596686992794,None,s,1,0.4650475010275841,1092.5596686992794,None,None,None,,,,,,,14,20,female,14,2022_May_06_1258,Partial repeat,2021.2.3,59.871563241552245,
4,4,0,1,2,3,1,2,1,0,0,0,0,1,0,0,146,146,146,1,0,1,0,,,,,,,,,1093.0346521995962,None,1094.02830779925,None,l,1,0.3562461007386446,1094.02830779925,None,None,None,,,,,,,14,20,female,14,2022_May_06_1258,Partial repeat,2021.2.3,59.871563241552245,
4,4,0,1,2,3,1,2,1,0,0,0,0,1,0,0,146,146,146,,,,,,,,,,,,,,,,,,,,,,,,,,,,,,14,20,female,14,2022_May_06_1258,Partial repeat,2021.2.3,59.871563241552245,
4,4,0,1,3,3,2,2,0,1,1,1,0,1,0,0,147,147,147,0,0,0,0,,,,,,,1094.405391599983,None,1094.6507335994393,None,1095.6652565989643,None,l,1,0.431376900523901,1095.6652565989643,None,None,None,,,,,,,14,20,female,14,2022_May_06_1258,Partial repeat,2021.2.3,59.871563241552245,
4,4,0,1,3,3,2,2,0,1,1,1,0,1,0,0,147,147,147,1,0,1,0,,,,,,,,,1096.1210000999272,None,1097.1348307002336,None,s,1,0.4258262999355793,1097.1348307002336,None,None,None,,,,,,,14,20,female,14,2022_May_06_1258,Partial repeat,2021.2.3,59.871563241552245,
4,4,0,1,3,3,2,2,0,1,1,1,0,1,0,0,147,147,147,,,,,,,,,,,,,,,,,,,,,,,,,,,,,,14,20,female,14,2022_May_06_1258,Partial repeat,2021.2.3,59.871563241552245,
4,4,0,1,2,2,2,2,1,0,1,1,0,1,0,0,148,148,148,0,0,0,0,,,,,,,1097.5748852994293,None,1097.8402137998492,None,1098.7041835002601,None,s,1,0.6004478000104427,1098.7041835002601,None,None,None,,,,,,,14,20,female,14,2022_May_06_1258,Partial repeat,2021.2.3,59.871563241552245,
4,4,0,1,2,2,2,2,1,0,1,1,0,1,0,0,148,148,148,1,0,1,0,,,,,,,,,1099.3304938990623,None,1100.1906285993755,None,l,1,0.593954199925065,1100.1906285993755,None,None,None,,,,,,,14,20,female,14,2022_May_06_1258,Partial repeat,2021.2.3,59.871563241552245,
4,4,0,1,2,2,2,2,1,0,1,1,0,1,0,0,148,148,148,,,,,,,,,,,,,,,,,,,,,,,,,,,,,,14,20,female,14,2022_May_06_1258,Partial repeat,2021.2.3,59.871563241552245,
4,4,0,1,3,2,2,1,0,1,0,0,0,1,0,0,149,149,149,0,0,0,0,,,,,,,1100.8006496988237,None,1100.9964294992387,None,1101.9944818988442,None,l,1,0.494072500616312,1101.9944818988442,None,None,None,,,,,,,14,20,female,14,2022_May_06_1258,Partial repeat,2021.2.3,59.871563241552245,
4,4,0,1,3,2,2,1,0,1,0,0,0,1,0,0,149,149,149,1,0,1,0,,,,,,,,,1102.5056705996394,None,1103.329751899466,None,s,1,0.5348800010979176,1103.329751899466,None,None,None,,,,,,,14,20,female,14,2022_May_06_1258,Partial repeat,2021.2.3,59.871563241552245,
4,4,0,1,3,2,2,1,0,1,0,0,0,1,0,0,149,149,149,,,,,,,,,,,,,,,,,,,,,,,,,,,,,,14,20,female,14,2022_May_06_1258,Partial repeat,2021.2.3,59.871563241552245,
4,4,0,1,2,3,1,1,1,1,0,1,1,1,0,0,150,150,150,0,0,0,0,,,,,,,1103.8916730992496,None,1104.1692121997476,None,1105.0005945991725,None,s,1,0.47994660027325153,1105.0005945991725,None,None,None,,,,,,,14,20,female,14,2022_May_06_1258,Partial repeat,2021.2.3,59.871563241552245,
4,4,0,1,2,3,1,1,1,1,0,1,1,1,0,0,150,150,150,1,0,1,0,,,,,,,,,1105.4956509005278,None,1106.4860848002136,None,s,1,1.3545040003955364,1106.4860848002136,None,None,None,,,,,,,14,20,female,14,2022_May_06_1258,Partial repeat,2021.2.3,59.871563241552245,
