prime_tar_pos,probe_tar_pos,dimension,tar_color,prime_dist_color,probe_dist_color,prime_dist_shape,probe_dist_shape,prime_tar_dot_pos,probe_tar_dot_pos,col_rep,shape_rep,resp_rep,pos_fixed,sparse,MainLoop.thisRepN,MainLoop.thisTrialN,MainLoop.thisN,MainLoop.thisIndex,PrimeProbe.thisRepN,PrimeProbe.thisTrialN,PrimeProbe.thisN,PrimeProbe.thisIndex,Instruction.started,Instruction.stopped,instruction_key.keys,instruction_key.rt,instruction_key.started,instruction_key.stopped,PairStartText.started,PairStartText.stopped,FixCross.started,FixCross.stopped,SearchFixCross.started,SearchFixCross.stopped,key_resp.keys,key_resp.corr,key_resp.rt,key_resp.started,key_resp.stopped,feedback_text.started,feedback_text.stopped,text_finish.started,text_finish.stopped,finish_key.keys,finish_key.rt,finish_key.started,finish_key.stopped,participant,age,gender,group,date,expName,psychopyVersion,frameRate,
,,,,,,,,,,,,,,,,,,,,,,,507.14875569939613,None,space,65.11287990026176,507.14875569939613,None,,,,,,,,,,,,,,,,,,,,15,21,female,15,2022_May_09_1413,Partial repeat,2021.2.3,59.89896219118593,
1,8,0,1,3,3,2,1,1,0,1,0,0,0,0,0,0,0,0,0,0,0,0,,,,,,,572.3735492993146,None,575.3666177988052,None,576.1011250987649,None,s,1,1.0644978992640972,576.1011250987649,None,None,None,,,,,,,15,21,female,15,2022_May_09_1413,Partial repeat,2021.2.3,59.89896219118593,
1,8,0,1,3,3,2,1,1,0,1,0,0,0,0,0,0,0,0,1,0,1,0,,,,,,,,,577.1896951999515,None,578.050745498389,None,s,0,1.58691499941051,578.050745498389,None,579.6520557999611,None,,,,,,,15,21,female,15,2022_May_09_1413,Partial repeat,2021.2.3,59.89896219118593,
1,8,0,1,3,3,2,1,1,0,1,0,0,0,0,0,0,0,0,,,,,,,,,,,,,,,,,,,,,,,,,,,,,,15,21,female,15,2022_May_09_1413,Partial repeat,2021.2.3,59.89896219118593,
3,3,0,1,2,3,2,2,0,1,0,1,0,0,0,0,1,1,1,0,0,0,0,,,,,,,580.1593752000481,None,590.4791594985873,None,591.4099815990776,None,l,1,1.1955712996423244,591.4099815990776,None,None,None,,,,,,,15,21,female,15,2022_May_09_1413,Partial repeat,2021.2.3,59.89896219118593,
3,3,0,1,2,3,2,2,0,1,0,1,0,0,0,0,1,1,1,1,0,1,0,,,,,,,,,592.6279362998903,None,593.5646389983594,None,s,1,0.8409151993691921,593.5646389983594,None,None,None,,,,,,,15,21,female,15,2022_May_09_1413,Partial repeat,2021.2.3,59.89896219118593,
3,3,0,1,2,3,2,2,0,1,0,1,0,0,0,0,1,1,1,,,,,,,,,,,,,,,,,,,,,,,,,,,,,,15,21,female,15,2022_May_09_1413,Partial repeat,2021.2.3,59.89896219118593,
8,6,0,1,3,2,1,1,0,1,0,1,0,0,0,0,2,2,2,0,0,0,0,,,,,,,594.4356603994966,None,599.3633487988263,None,600.126842899248,None,l,1,1.1107823997735977,600.126842899248,None,None,None,,,,,,,15,21,female,15,2022_May_09_1413,Partial repeat,2021.2.3,59.89896219118593,
8,6,0,1,3,2,1,1,0,1,0,1,0,0,0,0,2,2,2,1,0,1,0,,,,,,,,,601.254457898438,None,602.1480192989111,None,l,0,0.8255566004663706,602.1480192989111,None,602.9971595983952,None,,,,,,,15,21,female,15,2022_May_09_1413,Partial repeat,2021.2.3,59.89896219118593,
8,6,0,1,3,2,1,1,0,1,0,1,0,0,0,0,2,2,2,,,,,,,,,,,,,,,,,,,,,,,,,,,,,,15,21,female,15,2022_May_09_1413,Partial repeat,2021.2.3,59.89896219118593,
7,5,0,1,3,3,1,1,0,0,1,1,1,0,0,0,3,3,3,0,0,0,0,,,,,,,603.5047477986664,None,604.5067147985101,None,605.4539310988039,None,l,1,1.1115561984479427,605.4539310988039,None,None,None,,,,,,,15,21,female,15,2022_May_09_1413,Partial repeat,2021.2.3,59.89896219118593,
7,5,0,1,3,3,1,1,0,0,1,1,1,0,0,0,3,3,3,1,0,1,0,,,,,,,,,606.5847330987453,None,607.3077141996473,None,l,1,0.6498607005923986,607.3077141996473,None,None,None,,,,,,,15,21,female,15,2022_May_09_1413,Partial repeat,2021.2.3,59.89896219118593,
7,5,0,1,3,3,1,1,0,0,1,1,1,0,0,0,3,3,3,,,,,,,,,,,,,,,,,,,,,,,,,,,,,,15,21,female,15,2022_May_09_1413,Partial repeat,2021.2.3,59.89896219118593,
7,2,0,1,3,3,1,1,0,1,1,1,0,0,0,0,4,4,4,0,0,0,0,,,,,,,607.9783386997879,None,609.0822319984436,None,609.9958546999842,None,l,1,0.4737144000828266,609.9958546999842,None,None,None,,,,,,,15,21,female,15,2022_May_09_1413,Partial repeat,2021.2.3,59.89896219118593,
7,2,0,1,3,3,1,1,0,1,1,1,0,0,0,0,4,4,4,1,0,1,0,,,,,,,,,610.491336999461,None,611.2819660995156,None,s,1,0.6436049994081259,611.2819660995156,None,None,None,,,,,,,15,21,female,15,2022_May_09_1413,Partial repeat,2021.2.3,59.89896219118593,
7,2,0,1,3,3,1,1,0,1,1,1,0,0,0,0,4,4,4,,,,,,,,,,,,,,,,,,,,,,,,,,,,,,15,21,female,15,2022_May_09_1413,Partial repeat,2021.2.3,59.89896219118593,
5,4,0,1,3,3,2,1,0,1,1,0,0,0,0,0,5,5,5,0,0,0,0,,,,,,,611.9514537993819,None,614.1086869984865,None,615.1230266001076,None,s,0,0.9064845014363527,615.1230266001076,None,616.0414524991065,None,,,,,,,15,21,female,15,2022_May_09_1413,Partial repeat,2021.2.3,59.89896219118593,
5,4,0,1,3,3,2,1,0,1,1,0,0,0,0,0,5,5,5,1,0,1,0,,,,,,,,,616.5468378998339,None,617.3289727997035,None,s,1,0.796611400321126,617.3289727997035,None,None,None,,,,,,,15,21,female,15,2022_May_09_1413,Partial repeat,2021.2.3,59.89896219118593,
5,4,0,1,3,3,2,1,0,1,1,0,0,0,0,0,5,5,5,,,,,,,,,,,,,,,,,,,,,,,,,,,,,,15,21,female,15,2022_May_09_1413,Partial repeat,2021.2.3,59.89896219118593,
8,2,0,1,3,2,2,1,0,0,0,0,1,0,0,0,6,6,6,0,0,0,0,,,,,,,618.1519299987704,None,621.5732095986605,None,622.5207617990673,None,l,1,0.8207449000328779,622.5207617990673,None,None,None,,,,,,,15,21,female,15,2022_May_09_1413,Partial repeat,2021.2.3,59.89896219118593,
8,2,0,1,3,2,2,1,0,0,0,0,1,0,0,0,6,6,6,1,0,1,0,,,,,,,,,623.3630222994834,None,624.1068378984928,None,l,1,0.8586879000067711,624.1068378984928,None,None,None,,,,,,,15,21,female,15,2022_May_09_1413,Partial repeat,2021.2.3,59.89896219118593,
8,2,0,1,3,2,2,1,0,0,0,0,1,0,0,0,6,6,6,,,,,,,,,,,,,,,,,,,,,,,,,,,,,,15,21,female,15,2022_May_09_1413,Partial repeat,2021.2.3,59.89896219118593,
8,5,0,1,2,2,1,1,1,1,1,1,1,0,0,0,7,7,7,0,0,0,0,,,,,,,624.9940859992057,None,629.5220454987139,None,630.3198390994221,None,l,0,0.7258381992578506,630.3198390994221,None,631.0741674993187,None,,,,,,,15,21,female,15,2022_May_09_1413,Partial repeat,2021.2.3,59.89896219118593,
8,5,0,1,2,2,1,1,1,1,1,1,1,0,0,0,7,7,7,1,0,1,0,,,,,,,,,631.5760409999639,None,632.4730491992086,None,l,0,0.7725694999098778,632.4730491992086,None,633.2689060997218,None,,,,,,,15,21,female,15,2022_May_09_1413,Partial repeat,2021.2.3,59.89896219118593,
8,5,0,1,2,2,1,1,1,1,1,1,1,0,0,0,7,7,7,,,,,,,,,,,,,,,,,,,,,,,,,,,,,,15,21,female,15,2022_May_09_1413,Partial repeat,2021.2.3,59.89896219118593,
4,5,0,1,3,3,1,2,0,1,1,0,0,0,0,0,8,8,8,0,0,0,0,,,,,,,633.7803242988884,None,636.1683140993118,None,637.0158376991749,None,l,1,0.6379001997411251,637.0158376991749,None,None,None,,,,,,,15,21,female,15,2022_May_09_1413,Partial repeat,2021.2.3,59.89896219118593,
4,5,0,1,3,3,1,2,0,1,1,0,0,0,0,0,8,8,8,1,0,1,0,,,,,,,,,637.6630891989917,None,638.4180539995432,None,s,1,0.603557500988245,638.4180539995432,None,None,None,,,,,,,15,21,female,15,2022_May_09_1413,Partial repeat,2021.2.3,59.89896219118593,
4,5,0,1,3,3,1,2,0,1,1,0,0,0,0,0,8,8,8,,,,,,,,,,,,,,,,,,,,,,,,,,,,,,15,21,female,15,2022_May_09_1413,Partial repeat,2021.2.3,59.89896219118593,
7,4,0,1,2,3,2,1,1,1,0,0,1,0,0,0,9,9,9,0,0,0,0,,,,,,,639.0456737987697,None,641.6790180001408,None,642.6098346989602,None,s,1,0.9076988007873297,642.6098346989602,None,None,None,,,,,,,15,21,female,15,2022_May_09_1413,Partial repeat,2021.2.3,59.89896219118593,
7,4,0,1,2,3,2,1,1,1,0,0,1,0,0,0,9,9,9,1,0,1,0,,,,,,,,,643.5338888987899,None,644.4464943986386,None,s,1,0.46302029862999916,644.4464943986386,None,None,None,,,,,,,15,21,female,15,2022_May_09_1413,Partial repeat,2021.2.3,59.89896219118593,
7,4,0,1,2,3,2,1,1,1,0,0,1,0,0,0,9,9,9,,,,,,,,,,,,,,,,,,,,,,,,,,,,,,15,21,female,15,2022_May_09_1413,Partial repeat,2021.2.3,59.89896219118593,
1,7,0,1,2,2,2,2,1,0,1,1,0,0,0,0,10,10,10,0,0,0,0,,,,,,,644.9309443999082,None,648.9264231994748,None,649.807384699583,None,s,1,0.5741071999073029,649.807384699583,None,None,None,,,,,,,15,21,female,15,2022_May_09_1413,Partial repeat,2021.2.3,59.89896219118593,
1,7,0,1,2,2,2,2,1,0,1,1,0,0,0,0,10,10,10,1,0,1,0,,,,,,,,,650.4092078991234,None,651.4271833989769,None,l,1,0.6664522010833025,651.4271833989769,None,None,None,,,,,,,15,21,female,15,2022_May_09_1413,Partial repeat,2021.2.3,59.89896219118593,
1,7,0,1,2,2,2,2,1,0,1,1,0,0,0,0,10,10,10,,,,,,,,,,,,,,,,,,,,,,,,,,,,,,15,21,female,15,2022_May_09_1413,Partial repeat,2021.2.3,59.89896219118593,
4,7,0,1,3,2,1,2,0,0,0,0,1,0,0,0,11,11,11,0,0,0,0,,,,,,,652.1235031988472,None,655.6061060987413,None,656.5703523997217,None,l,1,0.7711869012564421,656.5703523997217,None,None,None,,,,,,,15,21,female,15,2022_May_09_1413,Partial repeat,2021.2.3,59.89896219118593,
4,7,0,1,3,2,1,2,0,0,0,0,1,0,0,0,11,11,11,1,0,1,0,,,,,,,,,657.3611913993955,None,658.0895082987845,None,l,1,0.7321163006126881,658.0895082987845,None,None,None,,,,,,,15,21,female,15,2022_May_09_1413,Partial repeat,2021.2.3,59.89896219118593,
4,7,0,1,3,2,1,2,0,0,0,0,1,0,0,0,11,11,11,,,,,,,,,,,,,,,,,,,,,,,,,,,,,,15,21,female,15,2022_May_09_1413,Partial repeat,2021.2.3,59.89896219118593,
6,7,0,1,3,2,2,2,1,0,0,1,0,0,0,0,12,12,12,0,0,0,0,,,,,,,658.8478765990585,None,659.6139081995934,None,660.395243499428,None,s,1,0.786319499835372,660.395243499428,None,None,None,,,,,,,15,21,female,15,2022_May_09_1413,Partial repeat,2021.2.3,59.89896219118593,
6,7,0,1,3,2,2,2,1,0,0,1,0,0,0,0,12,12,12,1,0,1,0,,,,,,,,,661.1893964987248,None,662.0810355991125,None,l,1,0.5645429994910955,662.0810355991125,None,None,None,,,,,,,15,21,female,15,2022_May_09_1413,Partial repeat,2021.2.3,59.89896219118593,
6,7,0,1,3,2,2,2,1,0,0,1,0,0,0,0,12,12,12,,,,,,,,,,,,,,,,,,,,,,,,,,,,,,15,21,female,15,2022_May_09_1413,Partial repeat,2021.2.3,59.89896219118593,
3,8,0,1,2,3,1,1,0,0,0,1,1,0,0,0,13,13,13,0,0,0,0,,,,,,,662.6688313987106,None,663.6047559995204,None,664.4359267000109,None,l,1,0.6655366998165846,664.4359267000109,None,None,None,,,,,,,15,21,female,15,2022_May_09_1413,Partial repeat,2021.2.3,59.89896219118593,
3,8,0,1,2,3,1,1,0,0,0,1,1,0,0,0,13,13,13,1,0,1,0,,,,,,,,,665.1176167987287,None,666.1229852996767,None,l,1,0.5945943016558886,666.1229852996767,None,None,None,,,,,,,15,21,female,15,2022_May_09_1413,Partial repeat,2021.2.3,59.89896219118593,
3,8,0,1,2,3,1,1,0,0,0,1,1,0,0,0,13,13,13,,,,,,,,,,,,,,,,,,,,,,,,,,,,,,15,21,female,15,2022_May_09_1413,Partial repeat,2021.2.3,59.89896219118593,
5,2,0,1,3,2,1,1,0,0,0,1,1,0,0,0,14,14,14,0,0,0,0,,,,,,,666.7330699991435,None,667.328958299011,None,668.0922628995031,None,l,1,0.7293197996914387,668.0922628995031,None,None,None,,,,,,,15,21,female,15,2022_May_09_1413,Partial repeat,2021.2.3,59.89896219118593,
5,2,0,1,3,2,1,1,0,0,0,1,1,0,0,0,14,14,14,1,0,1,0,,,,,,,,,668.8415014985949,None,669.7625955995172,None,l,1,0.5949420016258955,669.7625955995172,None,None,None,,,,,,,15,21,female,15,2022_May_09_1413,Partial repeat,2021.2.3,59.89896219118593,
5,2,0,1,3,2,1,1,0,0,0,1,1,0,0,0,14,14,14,,,,,,,,,,,,,,,,,,,,,,,,,,,,,,15,21,female,15,2022_May_09_1413,Partial repeat,2021.2.3,59.89896219118593,
7,6,0,1,3,3,2,1,1,1,1,0,1,0,0,0,15,15,15,0,0,0,0,,,,,,,670.3687171991915,None,670.8858170993626,None,671.7996755000204,None,s,1,0.6858223993331194,671.7996755000204,None,None,None,,,,,,,15,21,female,15,2022_May_09_1413,Partial repeat,2021.2.3,59.89896219118593,
7,6,0,1,3,3,2,1,1,1,1,0,1,0,0,0,15,15,15,1,0,1,0,,,,,,,,,672.5079776998609,None,673.4195595998317,None,s,1,0.6420341990888119,673.4195595998317,None,None,None,,,,,,,15,21,female,15,2022_May_09_1413,Partial repeat,2021.2.3,59.89896219118593,
7,6,0,1,3,3,2,1,1,1,1,0,1,0,0,0,15,15,15,,,,,,,,,,,,,,,,,,,,,,,,,,,,,,15,21,female,15,2022_May_09_1413,Partial repeat,2021.2.3,59.89896219118593,
7,8,0,1,3,3,1,1,1,1,1,1,1,0,0,0,16,16,16,0,0,0,0,,,,,,,674.0913762990385,None,675.0606363993138,None,676.0747358985245,None,s,1,0.6508074998855591,676.0747358985245,None,None,None,,,,,,,15,21,female,15,2022_May_09_1413,Partial repeat,2021.2.3,59.89896219118593,
7,8,0,1,3,3,1,1,1,1,1,1,1,0,0,0,16,16,16,1,0,1,0,,,,,,,,,676.7428005989641,None,677.4947679992765,None,s,1,0.5668046995997429,677.4947679992765,None,None,None,,,,,,,15,21,female,15,2022_May_09_1413,Partial repeat,2021.2.3,59.89896219118593,
7,8,0,1,3,3,1,1,1,1,1,1,1,0,0,0,16,16,16,,,,,,,,,,,,,,,,,,,,,,,,,,,,,,15,21,female,15,2022_May_09_1413,Partial repeat,2021.2.3,59.89896219118593,
2,5,0,1,3,2,2,2,0,1,0,1,0,0,0,0,17,17,17,0,0,0,0,,,,,,,678.0836853999645,None,678.5841120984405,None,679.4481458999217,None,s,0,0.5893214996904135,679.4481458999217,None,680.0492865983397,None,,,,,,,15,21,female,15,2022_May_09_1413,Partial repeat,2021.2.3,59.89896219118593,
2,5,0,1,3,2,2,2,0,1,0,1,0,0,0,0,17,17,17,1,0,1,0,,,,,,,,,680.5546338986605,None,681.4516936000437,None,s,1,0.8337440993636847,681.4516936000437,None,None,None,,,,,,,15,21,female,15,2022_May_09_1413,Partial repeat,2021.2.3,59.89896219118593,
2,5,0,1,3,2,2,2,0,1,0,1,0,0,0,0,17,17,17,,,,,,,,,,,,,,,,,,,,,,,,,,,,,,15,21,female,15,2022_May_09_1413,Partial repeat,2021.2.3,59.89896219118593,
3,5,0,1,3,3,2,2,0,0,1,1,1,0,0,0,18,18,18,0,0,0,0,,,,,,,682.3102757986635,None,683.5270374994725,None,684.4575302992016,None,l,1,0.6440408006310463,684.4575302992016,None,None,None,,,,,,,15,21,female,15,2022_May_09_1413,Partial repeat,2021.2.3,59.89896219118593,
3,5,0,1,3,3,2,2,0,0,1,1,1,0,0,0,18,18,18,1,0,1,0,,,,,,,,,685.126795399934,None,686.0942600984126,None,l,1,0.6072377003729343,686.0942600984126,None,None,None,,,,,,,15,21,female,15,2022_May_09_1413,Partial repeat,2021.2.3,59.89896219118593,
3,5,0,1,3,3,2,2,0,0,1,1,1,0,0,0,18,18,18,,,,,,,,,,,,,,,,,,,,,,,,,,,,,,15,21,female,15,2022_May_09_1413,Partial repeat,2021.2.3,59.89896219118593,
5,6,0,1,2,2,1,2,1,1,1,0,1,0,0,0,19,19,19,0,0,0,0,,,,,,,686.7194134984165,None,688.3364695999771,None,689.3336907997727,None,s,1,0.6718161012977362,689.3336907997727,None,None,None,,,,,,,15,21,female,15,2022_May_09_1413,Partial repeat,2021.2.3,59.89896219118593,
5,6,0,1,2,2,1,2,1,1,1,0,1,0,0,0,19,19,19,1,0,1,0,,,,,,,,,690.0190173983574,None,690.8703887984157,None,l,0,0.6231391001492739,690.8703887984157,None,691.5185633990914,None,,,,,,,15,21,female,15,2022_May_09_1413,Partial repeat,2021.2.3,59.89896219118593,
5,6,0,1,2,2,1,2,1,1,1,0,1,0,0,0,19,19,19,,,,,,,,,,,,,,,,,,,,,,,,,,,,,,15,21,female,15,2022_May_09_1413,Partial repeat,2021.2.3,59.89896219118593,
4,6,0,1,2,2,1,1,0,1,1,1,0,0,0,0,20,20,20,0,0,0,0,,,,,,,692.0269869994372,None,692.1939041987062,None,693.0581365991384,None,l,1,0.9313794989138842,693.0581365991384,None,None,None,,,,,,,15,21,female,15,2022_May_09_1413,Partial repeat,2021.2.3,59.89896219118593,
4,6,0,1,2,2,1,1,0,1,1,1,0,0,0,0,20,20,20,1,0,1,0,,,,,,,,,693.9985615983605,None,694.8445624001324,None,s,1,0.8090455997735262,694.8445624001324,None,None,None,,,,,,,15,21,female,15,2022_May_09_1413,Partial repeat,2021.2.3,59.89896219118593,
4,6,0,1,2,2,1,1,0,1,1,1,0,0,0,0,20,20,20,,,,,,,,,,,,,,,,,,,,,,,,,,,,,,15,21,female,15,2022_May_09_1413,Partial repeat,2021.2.3,59.89896219118593,
1,1,0,1,2,3,1,1,1,1,0,1,1,0,0,0,21,21,21,0,0,0,0,,,,,,,695.6670786999166,None,696.6860195994377,None,697.5833416990936,None,s,1,0.7261769007891417,697.5833416990936,None,None,None,,,,,,,15,21,female,15,2022_May_09_1413,Partial repeat,2021.2.3,59.89896219118593,
1,1,0,1,2,3,1,1,1,1,0,1,1,0,0,0,21,21,21,1,0,1,0,,,,,,,,,698.3357675001025,None,699.1045285984874,None,s,1,0.43698880076408386,699.1045285984874,None,None,None,,,,,,,15,21,female,15,2022_May_09_1413,Partial repeat,2021.2.3,59.89896219118593,
1,1,0,1,2,3,1,1,1,1,0,1,1,0,0,0,21,21,21,,,,,,,,,,,,,,,,,,,,,,,,,,,,,,15,21,female,15,2022_May_09_1413,Partial repeat,2021.2.3,59.89896219118593,
2,8,0,1,3,2,2,2,1,1,0,1,1,0,0,0,22,22,22,0,0,0,0,,,,,,,699.5624090991914,None,700.1260483991355,None,700.8728880994022,None,s,1,0.532692501321435,700.8728880994022,None,None,None,,,,,,,15,21,female,15,2022_May_09_1413,Partial repeat,2021.2.3,59.89896219118593,
2,8,0,1,3,2,2,2,1,1,0,1,1,0,0,0,22,22,22,1,0,1,0,,,,,,,,,701.4328224994242,None,702.425861498341,None,s,1,0.6195930000394583,702.425861498341,None,None,None,,,,,,,15,21,female,15,2022_May_09_1413,Partial repeat,2021.2.3,59.89896219118593,
2,8,0,1,3,2,2,2,1,1,0,1,1,0,0,0,22,22,22,,,,,,,,,,,,,,,,,,,,,,,,,,,,,,15,21,female,15,2022_May_09_1413,Partial repeat,2021.2.3,59.89896219118593,
5,5,0,1,2,3,1,2,1,0,0,0,0,0,0,0,23,23,23,0,0,0,0,,,,,,,703.0763096995652,None,703.6829225998372,None,704.696954999119,None,s,1,0.5165330991148949,704.696954999119,None,None,None,,,,,,,15,21,female,15,2022_May_09_1413,Partial repeat,2021.2.3,59.89896219118593,
5,5,0,1,2,3,1,2,1,0,0,0,0,0,0,0,23,23,23,1,0,1,0,,,,,,,,,705.2391190994531,None,706.0329380985349,None,s,0,0.44453930109739304,706.0329380985349,None,706.490317799151,None,,,,,,,15,21,female,15,2022_May_09_1413,Partial repeat,2021.2.3,59.89896219118593,
5,5,0,1,2,3,1,2,1,0,0,0,0,0,0,0,23,23,23,,,,,,,,,,,,,,,,,,,,,,,,,,,,,,15,21,female,15,2022_May_09_1413,Partial repeat,2021.2.3,59.89896219118593,
2,2,0,1,2,3,2,2,1,1,0,1,1,0,0,0,24,24,24,0,0,0,0,,,,,,,706.9894098993391,None,707.1229956988245,None,708.1209385991096,None,s,1,0.6926474999636412,708.1209385991096,None,None,None,,,,,,,15,21,female,15,2022_May_09_1413,Partial repeat,2021.2.3,59.89896219118593,
2,2,0,1,2,3,2,2,1,1,0,1,1,0,0,0,24,24,24,1,0,1,0,,,,,,,,,708.8291436992586,None,709.590371299535,None,s,1,0.44716380164027214,709.590371299535,None,None,None,,,,,,,15,21,female,15,2022_May_09_1413,Partial repeat,2021.2.3,59.89896219118593,
2,2,0,1,2,3,2,2,1,1,0,1,1,0,0,0,24,24,24,,,,,,,,,,,,,,,,,,,,,,,,,,,,,,15,21,female,15,2022_May_09_1413,Partial repeat,2021.2.3,59.89896219118593,
3,1,0,1,2,2,1,1,0,0,1,1,1,0,0,0,25,25,25,0,0,0,0,,,,,,,710.0489818993956,None,710.3626265991479,None,711.2263775989413,None,l,1,0.6511404998600483,711.2263775989413,None,None,None,,,,,,,15,21,female,15,2022_May_09_1413,Partial repeat,2021.2.3,59.89896219118593,
3,1,0,1,2,2,1,1,0,0,1,1,1,0,0,0,25,25,25,1,0,1,0,,,,,,,,,711.8943652994931,None,712.8295676000416,None,l,1,0.5839360989630222,712.8295676000416,None,None,None,,,,,,,15,21,female,15,2022_May_09_1413,Partial repeat,2021.2.3,59.89896219118593,
3,1,0,1,2,2,1,1,0,0,1,1,1,0,0,0,25,25,25,,,,,,,,,,,,,,,,,,,,,,,,,,,,,,15,21,female,15,2022_May_09_1413,Partial repeat,2021.2.3,59.89896219118593,
1,6,0,1,2,2,2,1,1,1,1,0,1,0,0,0,26,26,26,0,0,0,0,,,,,,,713.4344227984548,None,713.6522958986461,None,714.5492741987109,None,l,0,0.7921829000115395,714.5492741987109,None,715.3610009998083,None,,,,,,,15,21,female,15,2022_May_09_1413,Partial repeat,2021.2.3,59.89896219118593,
1,6,0,1,2,2,2,1,1,1,1,0,1,0,0,0,26,26,26,1,0,1,0,,,,,,,,,715.8731658998877,None,716.8209978993982,None,s,1,0.5525353997945786,716.8209978993982,None,None,None,,,,,,,15,21,female,15,2022_May_09_1413,Partial repeat,2021.2.3,59.89896219118593,
1,6,0,1,2,2,2,1,1,1,1,0,1,0,0,0,26,26,26,,,,,,,,,,,,,,,,,,,,,,,,,,,,,,15,21,female,15,2022_May_09_1413,Partial repeat,2021.2.3,59.89896219118593,
3,7,0,1,2,2,1,2,0,0,1,0,1,0,0,0,27,27,27,0,0,0,0,,,,,,,717.3854543995112,None,717.7936963997781,None,718.6077913995832,None,s,0,0.6056910008192062,718.6077913995832,None,719.2305827997625,None,,,,,,,15,21,female,15,2022_May_09_1413,Partial repeat,2021.2.3,59.89896219118593,
3,7,0,1,2,2,1,2,0,0,1,0,1,0,0,0,27,27,27,1,0,1,0,,,,,,,,,719.7308676000684,None,720.5617364998907,None,l,1,0.8517652004957199,720.5617364998907,None,None,None,,,,,,,15,21,female,15,2022_May_09_1413,Partial repeat,2021.2.3,59.89896219118593,
3,7,0,1,2,2,1,2,0,0,1,0,1,0,0,0,27,27,27,,,,,,,,,,,,,,,,,,,,,,,,,,,,,,15,21,female,15,2022_May_09_1413,Partial repeat,2021.2.3,59.89896219118593,
8,3,0,1,2,3,1,2,0,0,0,0,1,0,0,0,28,28,28,0,0,0,0,,,,,,,721.4281184989959,None,722.7701044995338,None,723.6182411983609,None,l,1,0.6992563009262085,723.6182411983609,None,None,None,,,,,,,15,21,female,15,2022_May_09_1413,Partial repeat,2021.2.3,59.89896219118593,
8,3,0,1,2,3,1,2,0,0,0,0,1,0,0,0,28,28,28,1,0,1,0,,,,,,,,,724.3320863991976,None,725.1041800994426,None,l,1,0.765326701104641,725.1041800994426,None,None,None,,,,,,,15,21,female,15,2022_May_09_1413,Partial repeat,2021.2.3,59.89896219118593,
8,3,0,1,2,3,1,2,0,0,0,0,1,0,0,0,28,28,28,,,,,,,,,,,,,,,,,,,,,,,,,,,,,,15,21,female,15,2022_May_09_1413,Partial repeat,2021.2.3,59.89896219118593,
6,6,0,1,2,2,1,1,1,0,1,1,0,0,0,0,29,29,29,0,0,0,0,,,,,,,725.8935910984874,None,726.6275653988123,None,727.6262420993298,None,s,1,0.7393038999289274,727.6262420993298,None,None,None,,,,,,,15,21,female,15,2022_May_09_1413,Partial repeat,2021.2.3,59.89896219118593,
6,6,0,1,2,2,1,1,1,0,1,1,0,0,0,0,29,29,29,1,0,1,0,,,,,,,,,728.3757116999477,None,729.3450294993818,None,l,1,0.6045233998447657,729.3450294993818,None,None,None,,,,,,,15,21,female,15,2022_May_09_1413,Partial repeat,2021.2.3,59.89896219118593,
6,6,0,1,2,2,1,1,1,0,1,1,0,0,0,0,29,29,29,,,,,,,,,,,,,,,,,,,,,,,,,,,,,,15,21,female,15,2022_May_09_1413,Partial repeat,2021.2.3,59.89896219118593,
2,6,0,1,3,2,2,2,0,0,0,1,1,0,0,0,30,30,30,0,0,0,0,,,,,,,729.9756875000894,None,730.6019898001105,None,731.4491611998528,None,l,1,0.7644260004162788,731.4491611998528,None,None,None,,,,,,,15,21,female,15,2022_May_09_1413,Partial repeat,2021.2.3,59.89896219118593,
2,6,0,1,3,2,2,2,0,0,0,1,1,0,0,0,30,30,30,1,0,1,0,,,,,,,,,732.2404506988823,None,733.1189778000116,None,l,1,0.6945274006575346,733.1189778000116,None,None,None,,,,,,,15,21,female,15,2022_May_09_1413,Partial repeat,2021.2.3,59.89896219118593,
2,6,0,1,3,2,2,2,0,0,0,1,1,0,0,0,30,30,30,,,,,,,,,,,,,,,,,,,,,,,,,,,,,,15,21,female,15,2022_May_09_1413,Partial repeat,2021.2.3,59.89896219118593,
6,2,0,1,2,2,1,2,0,1,1,0,0,0,0,0,31,31,31,0,0,0,0,,,,,,,733.8347740992904,None,734.3426015991718,None,735.1062121987343,None,l,1,0.5714458003640175,735.1062121987343,None,None,None,,,,,,,15,21,female,15,2022_May_09_1413,Partial repeat,2021.2.3,59.89896219118593,
6,2,0,1,2,2,1,2,0,1,1,0,0,0,0,0,31,31,31,1,0,1,0,,,,,,,,,735.6879602987319,None,736.4756754990667,None,s,1,0.6818860992789268,736.4756754990667,None,None,None,,,,,,,15,21,female,15,2022_May_09_1413,Partial repeat,2021.2.3,59.89896219118593,
6,2,0,1,2,2,1,2,0,1,1,0,0,0,0,0,31,31,31,,,,,,,,,,,,,,,,,,,,,,,,,,,,,,15,21,female,15,2022_May_09_1413,Partial repeat,2021.2.3,59.89896219118593,
2,1,0,1,3,2,1,2,0,1,0,0,0,0,0,0,32,32,32,0,0,0,0,,,,,,,737.1875617988408,None,738.0999245997518,None,739.0304430983961,None,l,1,0.8150541000068188,739.0304430983961,None,None,None,,,,,,,15,21,female,15,2022_May_09_1413,Partial repeat,2021.2.3,59.89896219118593,
2,1,0,1,3,2,1,2,0,1,0,0,0,0,0,0,32,32,32,1,0,1,0,,,,,,,,,739.866889398545,None,740.7838506996632,None,s,1,0.6618268992751837,740.7838506996632,None,None,None,,,,,,,15,21,female,15,2022_May_09_1413,Partial repeat,2021.2.3,59.89896219118593,
2,1,0,1,3,2,1,2,0,1,0,0,0,0,0,0,32,32,32,,,,,,,,,,,,,,,,,,,,,,,,,,,,,,15,21,female,15,2022_May_09_1413,Partial repeat,2021.2.3,59.89896219118593,
2,3,0,1,2,2,2,1,0,0,1,0,1,0,0,0,33,33,33,0,0,0,0,,,,,,,741.4753280989826,None,742.2079098001122,None,743.0555722992867,None,l,1,0.7578785009682178,743.0555722992867,None,None,None,,,,,,,15,21,female,15,2022_May_09_1413,Partial repeat,2021.2.3,59.89896219118593,
2,3,0,1,2,2,2,1,0,0,1,0,1,0,0,0,33,33,33,1,0,1,0,,,,,,,,,743.8289561998099,None,744.774855999276,None,l,1,0.6946370992809534,744.774855999276,None,None,None,,,,,,,15,21,female,15,2022_May_09_1413,Partial repeat,2021.2.3,59.89896219118593,
2,3,0,1,2,2,2,1,0,0,1,0,1,0,0,0,33,33,33,,,,,,,,,,,,,,,,,,,,,,,,,,,,,,15,21,female,15,2022_May_09_1413,Partial repeat,2021.2.3,59.89896219118593,
8,8,0,1,3,3,2,2,1,0,1,1,0,0,0,0,34,34,34,0,0,0,0,,,,,,,745.4864948000759,None,746.3993253000081,None,747.3132317997515,None,s,1,0.8523081000894308,747.3132317997515,None,None,None,,,,,,,15,21,female,15,2022_May_09_1413,Partial repeat,2021.2.3,59.89896219118593,
8,8,0,1,3,3,2,2,1,0,1,1,0,0,0,0,34,34,34,1,0,1,0,,,,,,,,,748.1936503984034,None,749.0666347984225,None,l,1,0.5950141996145248,749.0666347984225,None,None,None,,,,,,,15,21,female,15,2022_May_09_1413,Partial repeat,2021.2.3,59.89896219118593,
8,8,0,1,3,3,2,2,1,0,1,1,0,0,0,0,34,34,34,,,,,,,,,,,,,,,,,,,,,,,,,,,,,,15,21,female,15,2022_May_09_1413,Partial repeat,2021.2.3,59.89896219118593,
5,8,0,1,2,3,1,2,0,1,0,0,0,0,0,0,35,35,35,0,0,0,0,,,,,,,749.673429498449,None,751.0751327984035,None,751.8387925997376,None,l,1,1.1268186997622252,751.8387925997376,None,None,None,,,,,,,15,21,female,15,2022_May_09_1413,Partial repeat,2021.2.3,59.89896219118593,
5,8,0,1,2,3,1,2,0,1,0,0,0,0,0,0,35,35,35,1,0,1,0,,,,,,,,,752.9763003997505,None,753.8759623989463,None,s,1,0.6337601002305746,753.8759623989463,None,None,None,,,,,,,15,21,female,15,2022_May_09_1413,Partial repeat,2021.2.3,59.89896219118593,
5,8,0,1,2,3,1,2,0,1,0,0,0,0,0,0,35,35,35,,,,,,,,,,,,,,,,,,,,,,,,,,,,,,15,21,female,15,2022_May_09_1413,Partial repeat,2021.2.3,59.89896219118593,
4,1,0,1,2,2,2,1,1,0,1,0,0,0,0,0,36,36,36,0,0,0,0,,,,,,,754.5229452997446,None,755.4335887990892,None,756.3476893994957,None,s,1,0.6257933992892504,756.3476893994957,None,None,None,,,,,,,15,21,female,15,2022_May_09_1413,Partial repeat,2021.2.3,59.89896219118593,
4,1,0,1,2,2,2,1,1,0,1,0,0,0,0,0,36,36,36,1,0,1,0,,,,,,,,,756.9976045992225,None,757.8503820989281,None,l,1,0.5552573017776012,757.8503820989281,None,None,None,,,,,,,15,21,female,15,2022_May_09_1413,Partial repeat,2021.2.3,59.89896219118593,
4,1,0,1,2,2,2,1,1,0,1,0,0,0,0,0,36,36,36,,,,,,,,,,,,,,,,,,,,,,,,,,,,,,15,21,female,15,2022_May_09_1413,Partial repeat,2021.2.3,59.89896219118593,
5,1,0,1,2,3,2,1,1,0,0,0,0,0,0,0,37,37,37,0,0,0,0,,,,,,,758.4183325991035,None,760.0759534984827,None,761.0902070999146,None,s,1,1.0513288006186485,761.0902070999146,None,None,None,,,,,,,15,21,female,15,2022_May_09_1413,Partial repeat,2021.2.3,59.89896219118593,
5,1,0,1,2,3,2,1,1,0,0,0,0,0,0,0,37,37,37,1,0,1,0,,,,,,,,,762.1559262983501,None,763.0103482995182,None,l,1,0.4431114997714758,763.0103482995182,None,None,None,,,,,,,15,21,female,15,2022_May_09_1413,Partial repeat,2021.2.3,59.89896219118593,
5,1,0,1,2,3,2,1,1,0,0,0,0,0,0,0,37,37,37,,,,,,,,,,,,,,,,,,,,,,,,,,,,,,15,21,female,15,2022_May_09_1413,Partial repeat,2021.2.3,59.89896219118593,
8,7,0,1,3,2,2,1,1,0,0,0,0,0,0,0,38,38,38,0,0,0,0,,,,,,,763.4691237993538,None,763.9668718986213,None,764.8139805998653,None,s,1,0.6315027009695768,764.8139805998653,None,None,None,,,,,,,15,21,female,15,2022_May_09_1413,Partial repeat,2021.2.3,59.89896219118593,
8,7,0,1,3,2,2,1,1,0,0,0,0,0,0,0,38,38,38,1,0,1,0,,,,,,,,,765.46016949974,None,766.3170942999423,None,l,1,0.5283917989581823,766.3170942999423,None,None,None,,,,,,,15,21,female,15,2022_May_09_1413,Partial repeat,2021.2.3,59.89896219118593,
8,7,0,1,3,2,2,1,1,0,0,0,0,0,0,0,38,38,38,,,,,,,,,,,,,,,,,,,,,,,,,,,,,,15,21,female,15,2022_May_09_1413,Partial repeat,2021.2.3,59.89896219118593,
7,7,0,1,2,2,2,2,1,1,1,1,1,0,0,0,39,39,39,0,0,0,0,,,,,,,766.8619079999626,None,767.5070907995105,None,768.3210159987211,None,s,1,0.6365305986255407,768.3210159987211,None,None,None,,,,,,,15,21,female,15,2022_May_09_1413,Partial repeat,2021.2.3,59.89896219118593,
7,7,0,1,2,2,2,2,1,1,1,1,1,0,0,0,39,39,39,1,0,1,0,,,,,,,,,768.9832015987486,None,769.84054809995,None,s,1,0.4450122993439436,769.84054809995,None,None,None,,,,,,,15,21,female,15,2022_May_09_1413,Partial repeat,2021.2.3,59.89896219118593,
7,7,0,1,2,2,2,2,1,1,1,1,1,0,0,0,39,39,39,,,,,,,,,,,,,,,,,,,,,,,,,,,,,,15,21,female,15,2022_May_09_1413,Partial repeat,2021.2.3,59.89896219118593,
4,4,0,1,2,3,1,1,0,1,0,1,0,0,0,0,40,40,40,0,0,0,0,,,,,,,770.299945699051,None,770.8800320997834,None,771.7290072999895,None,l,1,0.7245356999337673,771.7290072999895,None,None,None,,,,,,,15,21,female,15,2022_May_09_1413,Partial repeat,2021.2.3,59.89896219118593,
4,4,0,1,2,3,1,1,0,1,0,1,0,0,0,0,40,40,40,1,0,1,0,,,,,,,,,772.4628900997341,None,773.4477532990277,None,s,1,0.6456762012094259,773.4477532990277,None,None,None,,,,,,,15,21,female,15,2022_May_09_1413,Partial repeat,2021.2.3,59.89896219118593,
4,4,0,1,2,3,1,1,0,1,0,1,0,0,0,0,40,40,40,,,,,,,,,,,,,,,,,,,,,,,,,,,,,,15,21,female,15,2022_May_09_1413,Partial repeat,2021.2.3,59.89896219118593,
7,1,0,1,3,3,2,2,1,1,1,1,1,0,0,0,41,41,41,0,0,0,0,,,,,,,774.1219592001289,None,774.8712706994265,None,775.6351466998458,None,s,1,0.5622760988771915,775.6351466998458,None,None,None,,,,,,,15,21,female,15,2022_May_09_1413,Partial repeat,2021.2.3,59.89896219118593,
7,1,0,1,3,3,2,2,1,1,1,1,1,0,0,0,41,41,41,1,0,1,0,,,,,,,,,776.2140019983053,None,777.1045183986425,None,s,1,0.5489556007087231,777.1045183986425,None,None,None,,,,,,,15,21,female,15,2022_May_09_1413,Partial repeat,2021.2.3,59.89896219118593,
7,1,0,1,3,3,2,2,1,1,1,1,1,0,0,0,41,41,41,,,,,,,,,,,,,,,,,,,,,,,,,,,,,,15,21,female,15,2022_May_09_1413,Partial repeat,2021.2.3,59.89896219118593,
7,3,0,1,2,3,2,1,0,1,0,0,0,0,0,0,42,42,42,0,0,0,0,,,,,,,777.6700547989458,None,778.829150499776,None,779.7934630997479,None,l,1,0.6680079996585846,779.7934630997479,None,None,None,,,,,,,15,21,female,15,2022_May_09_1413,Partial repeat,2021.2.3,59.89896219118593,
7,3,0,1,2,3,2,1,0,1,0,0,0,0,0,0,42,42,42,1,0,1,0,,,,,,,,,780.4807557985187,None,781.4963782988489,None,s,1,0.5650683995336294,781.4963782988489,None,None,None,,,,,,,15,21,female,15,2022_May_09_1413,Partial repeat,2021.2.3,59.89896219118593,
7,3,0,1,2,3,2,1,0,1,0,0,0,0,0,0,42,42,42,,,,,,,,,,,,,,,,,,,,,,,,,,,,,,15,21,female,15,2022_May_09_1413,Partial repeat,2021.2.3,59.89896219118593,
2,4,0,1,2,2,2,2,0,1,1,1,0,0,0,0,43,43,43,0,0,0,0,,,,,,,782.0823893994093,None,782.5697384998202,None,783.5672846995294,None,l,1,0.782192399725318,783.5672846995294,None,None,None,,,,,,,15,21,female,15,2022_May_09_1413,Partial repeat,2021.2.3,59.89896219118593,
2,4,0,1,2,2,2,2,0,1,1,1,0,0,0,0,43,43,43,1,0,1,0,,,,,,,,,784.3696345984936,None,785.2204422000796,None,s,1,0.633169898763299,785.2204422000796,None,None,None,,,,,,,15,21,female,15,2022_May_09_1413,Partial repeat,2021.2.3,59.89896219118593,
2,4,0,1,2,2,2,2,0,1,1,1,0,0,0,0,43,43,43,,,,,,,,,,,,,,,,,,,,,,,,,,,,,,15,21,female,15,2022_May_09_1413,Partial repeat,2021.2.3,59.89896219118593,
8,4,0,1,3,2,1,2,1,1,0,0,1,0,0,0,44,44,44,0,0,0,0,,,,,,,785.8848177995533,None,788.2642059996724,None,789.0944487992674,None,s,1,0.8709567002952099,789.0944487992674,None,None,None,,,,,,,15,21,female,15,2022_May_09_1413,Partial repeat,2021.2.3,59.89896219118593,
8,4,0,1,3,2,1,2,1,1,0,0,1,0,0,0,44,44,44,1,0,1,0,,,,,,,,,789.9940083995461,None,790.7312747985125,None,s,1,0.4502443000674248,790.7312747985125,None,None,None,,,,,,,15,21,female,15,2022_May_09_1413,Partial repeat,2021.2.3,59.89896219118593,
8,4,0,1,3,2,1,2,1,1,0,0,1,0,0,0,44,44,44,,,,,,,,,,,,,,,,,,,,,,,,,,,,,,15,21,female,15,2022_May_09_1413,Partial repeat,2021.2.3,59.89896219118593,
4,2,0,1,2,3,1,1,1,0,0,1,0,0,0,0,45,45,45,0,0,0,0,,,,,,,791.2087586987764,None,794.2925231996924,None,795.2063680998981,None,s,1,0.6951014995574951,795.2063680998981,None,None,None,,,,,,,15,21,female,15,2022_May_09_1413,Partial repeat,2021.2.3,59.89896219118593,
4,2,0,1,2,3,1,1,1,0,0,1,0,0,0,0,45,45,45,1,0,1,0,,,,,,,,,795.9169421996921,None,796.7761897984892,None,l,1,0.7972833998501301,796.7761897984892,None,None,None,,,,,,,15,21,female,15,2022_May_09_1413,Partial repeat,2021.2.3,59.89896219118593,
4,2,0,1,2,3,1,1,1,0,0,1,0,0,0,0,45,45,45,,,,,,,,,,,,,,,,,,,,,,,,,,,,,,15,21,female,15,2022_May_09_1413,Partial repeat,2021.2.3,59.89896219118593,
2,7,0,1,3,3,1,2,1,1,1,0,1,0,0,0,46,46,46,0,0,0,0,,,,,,,797.598081599921,None,800.15397929959,None,800.9675875995308,None,s,1,0.6699184998869896,800.9675875995308,None,None,None,,,,,,,15,21,female,15,2022_May_09_1413,Partial repeat,2021.2.3,59.89896219118593,
2,7,0,1,3,3,1,2,1,1,1,0,1,0,0,0,46,46,46,1,0,1,0,,,,,,,,,801.6549522001296,None,802.3873478993773,None,s,1,0.6901223994791508,802.3873478993773,None,None,None,,,,,,,15,21,female,15,2022_May_09_1413,Partial repeat,2021.2.3,59.89896219118593,
2,7,0,1,3,3,1,2,1,1,1,0,1,0,0,0,46,46,46,,,,,,,,,,,,,,,,,,,,,,,,,,,,,,15,21,female,15,2022_May_09_1413,Partial repeat,2021.2.3,59.89896219118593,
1,5,0,1,3,2,1,2,1,0,0,0,0,0,0,0,47,47,47,0,0,0,0,,,,,,,803.1064205989242,None,803.7108461000025,None,804.6581167001277,None,s,1,0.5633540991693735,804.6581167001277,None,None,None,,,,,,,15,21,female,15,2022_May_09_1413,Partial repeat,2021.2.3,59.89896219118593,
1,5,0,1,3,2,1,2,1,0,0,0,0,0,0,0,47,47,47,1,0,1,0,,,,,,,,,805.2423042990267,None,806.2617304995656,None,l,1,0.5837369989603758,806.2617304995656,None,None,None,,,,,,,15,21,female,15,2022_May_09_1413,Partial repeat,2021.2.3,59.89896219118593,
1,5,0,1,3,2,1,2,1,0,0,0,0,0,0,0,47,47,47,,,,,,,,,,,,,,,,,,,,,,,,,,,,,,15,21,female,15,2022_May_09_1413,Partial repeat,2021.2.3,59.89896219118593,
6,8,0,1,2,3,1,2,1,1,0,0,1,0,0,0,48,48,48,0,0,0,0,,,,,,,806.8685398995876,None,807.1341582983732,None,807.9312867000699,None,s,1,0.8821915984153748,807.9312867000699,None,None,None,,,,,,,15,21,female,15,2022_May_09_1413,Partial repeat,2021.2.3,59.89896219118593,
6,8,0,1,2,3,1,2,1,1,0,0,1,0,0,0,48,48,48,1,0,1,0,,,,,,,,,808.8357776999474,None,809.8516403995454,None,s,1,0.4817866999655962,809.8516403995454,None,None,None,,,,,,,15,21,female,15,2022_May_09_1413,Partial repeat,2021.2.3,59.89896219118593,
6,8,0,1,2,3,1,2,1,1,0,0,1,0,0,0,48,48,48,,,,,,,,,,,,,,,,,,,,,,,,,,,,,,15,21,female,15,2022_May_09_1413,Partial repeat,2021.2.3,59.89896219118593,
3,2,0,1,2,2,1,2,1,0,1,0,0,0,0,0,49,49,49,0,0,0,0,,,,,,,810.3522151988,None,810.7245257999748,None,811.5885749999434,None,s,1,0.6248828992247581,811.5885749999434,None,None,None,,,,,,,15,21,female,15,2022_May_09_1413,Partial repeat,2021.2.3,59.89896219118593,
3,2,0,1,2,2,1,2,1,0,1,0,0,0,0,0,49,49,49,1,0,1,0,,,,,,,,,812.2357502989471,None,813.0411046985537,None,l,1,0.7563652992248535,813.0411046985537,None,None,None,,,,,,,15,21,female,15,2022_May_09_1413,Partial repeat,2021.2.3,59.89896219118593,
3,2,0,1,2,2,1,2,1,0,1,0,0,0,0,0,49,49,49,,,,,,,,,,,,,,,,,,,,,,,,,,,,,,15,21,female,15,2022_May_09_1413,Partial repeat,2021.2.3,59.89896219118593,
6,1,0,1,2,2,2,1,0,1,1,0,0,0,0,0,50,50,50,0,0,0,0,,,,,,,813.8208657000214,None,814.1311278995126,None,815.0288050994277,None,l,1,0.7046399991959333,815.0288050994277,None,None,None,,,,,,,15,21,female,15,2022_May_09_1413,Partial repeat,2021.2.3,59.89896219118593,
6,1,0,1,2,2,2,1,0,1,1,0,0,0,0,0,50,50,50,1,0,1,0,,,,,,,,,815.7573831994087,None,816.5980167984962,None,s,1,0.6234680004417896,816.5980167984962,None,None,None,,,,,,,15,21,female,15,2022_May_09_1413,Partial repeat,2021.2.3,59.89896219118593,
6,1,0,1,2,2,2,1,0,1,1,0,0,0,0,0,50,50,50,,,,,,,,,,,,,,,,,,,,,,,,,,,,,,15,21,female,15,2022_May_09_1413,Partial repeat,2021.2.3,59.89896219118593,
6,3,0,1,3,2,2,1,0,1,0,0,0,0,0,0,51,51,51,0,0,0,0,,,,,,,817.2456712983549,None,817.7047159001231,None,818.5854825992137,None,l,1,0.7799788005650043,818.5854825992137,None,None,None,,,,,,,15,21,female,15,2022_May_09_1413,Partial repeat,2021.2.3,59.89896219118593,
6,3,0,1,3,2,2,1,0,1,0,0,0,0,0,0,51,51,51,1,0,1,0,,,,,,,,,819.38215640001,None,820.2218587994576,None,s,1,0.5355900004506111,820.2218587994576,None,None,None,,,,,,,15,21,female,15,2022_May_09_1413,Partial repeat,2021.2.3,59.89896219118593,
6,3,0,1,3,2,2,1,0,1,0,0,0,0,0,0,51,51,51,,,,,,,,,,,,,,,,,,,,,,,,,,,,,,15,21,female,15,2022_May_09_1413,Partial repeat,2021.2.3,59.89896219118593,
5,3,0,1,3,3,1,2,1,0,1,0,0,0,0,0,52,52,52,0,0,0,0,,,,,,,820.768230099231,None,821.1948466990143,None,822.142153698951,None,s,1,0.7593545001000166,822.142153698951,None,None,None,,,,,,,15,21,female,15,2022_May_09_1413,Partial repeat,2021.2.3,59.89896219118593,
5,3,0,1,3,3,1,2,1,0,1,0,0,0,0,0,52,52,52,1,0,1,0,,,,,,,,,822.9135772995651,None,823.8121568989009,None,l,1,0.47329889982938766,823.8121568989009,None,None,None,,,,,,,15,21,female,15,2022_May_09_1413,Partial repeat,2021.2.3,59.89896219118593,
5,3,0,1,3,3,1,2,1,0,1,0,0,0,0,0,52,52,52,,,,,,,,,,,,,,,,,,,,,,,,,,,,,,15,21,female,15,2022_May_09_1413,Partial repeat,2021.2.3,59.89896219118593,
5,7,0,1,3,3,1,2,0,0,1,0,1,0,0,0,53,53,53,0,0,0,0,,,,,,,824.3139180000871,None,824.5680939983577,None,825.3984523992985,None,l,1,0.6950105987489223,825.3984523992985,None,None,None,,,,,,,15,21,female,15,2022_May_09_1413,Partial repeat,2021.2.3,59.89896219118593,
5,7,0,1,3,3,1,2,0,0,1,0,1,0,0,0,53,53,53,1,0,1,0,,,,,,,,,826.1068362984806,None,827.0521050989628,None,l,1,0.6413196008652449,827.0521050989628,None,None,None,,,,,,,15,21,female,15,2022_May_09_1413,Partial repeat,2021.2.3,59.89896219118593,
5,7,0,1,3,3,1,2,0,0,1,0,1,0,0,0,53,53,53,,,,,,,,,,,,,,,,,,,,,,,,,,,,,,15,21,female,15,2022_May_09_1413,Partial repeat,2021.2.3,59.89896219118593,
6,5,0,1,3,2,1,1,1,1,0,1,1,0,0,0,54,54,54,0,0,0,0,,,,,,,827.7179229985923,None,827.8912549987435,None,828.8717243988067,None,s,1,0.741728100925684,828.8717243988067,None,None,None,,,,,,,15,21,female,15,2022_May_09_1413,Partial repeat,2021.2.3,59.89896219118593,
6,5,0,1,3,2,1,1,1,1,0,1,1,0,0,0,54,54,54,1,0,1,0,,,,,,,,,829.638864999637,None,830.4927143994719,None,s,1,0.5686980001628399,830.4927143994719,None,None,None,,,,,,,15,21,female,15,2022_May_09_1413,Partial repeat,2021.2.3,59.89896219118593,
6,5,0,1,3,2,1,1,1,1,0,1,1,0,0,0,54,54,54,,,,,,,,,,,,,,,,,,,,,,,,,,,,,,15,21,female,15,2022_May_09_1413,Partial repeat,2021.2.3,59.89896219118593,
1,2,0,1,3,2,1,1,1,0,0,1,0,0,0,0,55,55,55,0,0,0,0,,,,,,,831.0796449985355,None,831.2977439984679,None,832.2116647996008,None,s,1,0.8897575009614229,832.2116647996008,None,None,None,,,,,,,15,21,female,15,2022_May_09_1413,Partial repeat,2021.2.3,59.89896219118593,
1,2,0,1,3,2,1,1,1,0,0,1,0,0,0,0,55,55,55,1,0,1,0,,,,,,,,,833.1300891991705,None,833.99934049882,None,l,1,0.5581109002232552,833.99934049882,None,None,None,,,,,,,15,21,female,15,2022_May_09_1413,Partial repeat,2021.2.3,59.89896219118593,
1,2,0,1,3,2,1,1,1,0,0,1,0,0,0,0,55,55,55,,,,,,,,,,,,,,,,,,,,,,,,,,,,,,15,21,female,15,2022_May_09_1413,Partial repeat,2021.2.3,59.89896219118593,
1,3,0,1,3,2,2,1,1,1,0,0,1,0,0,0,56,56,56,0,0,0,0,,,,,,,834.5855467990041,None,834.7879598997533,None,835.718622399494,None,s,1,0.5908921994268894,835.718622399494,None,None,None,,,,,,,15,21,female,15,2022_May_09_1413,Partial repeat,2021.2.3,59.89896219118593,
1,3,0,1,3,2,2,1,1,1,0,0,1,0,0,0,56,56,56,1,0,1,0,,,,,,,,,836.3197101000696,None,837.2716008983552,None,s,1,0.5258201994001865,837.2716008983552,None,None,None,,,,,,,15,21,female,15,2022_May_09_1413,Partial repeat,2021.2.3,59.89896219118593,
1,3,0,1,3,2,2,1,1,1,0,0,1,0,0,0,56,56,56,,,,,,,,,,,,,,,,,,,,,,,,,,,,,,15,21,female,15,2022_May_09_1413,Partial repeat,2021.2.3,59.89896219118593,
8,1,0,1,3,3,2,2,0,1,1,1,0,0,0,0,57,57,57,0,0,0,0,,,,,,,837.8130006995052,None,838.0610066987574,None,838.8745114989579,None,l,1,0.6830184999853373,838.8745114989579,None,None,None,,,,,,,15,21,female,15,2022_May_09_1413,Partial repeat,2021.2.3,59.89896219118593,
8,1,0,1,3,3,2,2,0,1,1,1,0,0,0,0,57,57,57,1,0,1,0,,,,,,,,,839.5685486998409,None,840.360872598365,None,s,1,0.6046345997601748,840.360872598365,None,None,None,,,,,,,15,21,female,15,2022_May_09_1413,Partial repeat,2021.2.3,59.89896219118593,
8,1,0,1,3,3,2,2,0,1,1,1,0,0,0,0,57,57,57,,,,,,,,,,,,,,,,,,,,,,,,,,,,,,15,21,female,15,2022_May_09_1413,Partial repeat,2021.2.3,59.89896219118593,
4,3,0,1,3,3,2,1,0,0,1,0,1,0,0,0,58,58,58,0,0,0,0,,,,,,,840.9845613986254,None,841.2171288989484,None,842.0642615985125,None,l,1,0.8053213004022837,842.0642615985125,None,None,None,,,,,,,15,21,female,15,2022_May_09_1413,Partial repeat,2021.2.3,59.89896219118593,
4,3,0,1,3,3,2,1,0,0,1,0,1,0,0,0,58,58,58,1,0,1,0,,,,,,,,,842.8796144984663,None,843.7174137998372,None,l,1,1.176103800535202,843.7174137998372,None,None,None,,,,,,,15,21,female,15,2022_May_09_1413,Partial repeat,2021.2.3,59.89896219118593,
4,3,0,1,3,3,2,1,0,0,1,0,1,0,0,0,58,58,58,,,,,,,,,,,,,,,,,,,,,,,,,,,,,,15,21,female,15,2022_May_09_1413,Partial repeat,2021.2.3,59.89896219118593,
3,6,0,1,2,2,2,2,0,0,1,1,1,0,0,0,59,59,59,0,0,0,0,,,,,,,844.9152493998408,None,845.1247864998877,None,845.9583970997483,None,l,1,0.7830913010984659,845.9583970997483,None,None,None,,,,,,,15,21,female,15,2022_May_09_1413,Partial repeat,2021.2.3,59.89896219118593,
3,6,0,1,2,2,2,2,0,0,1,1,1,0,0,0,59,59,59,1,0,1,0,,,,,,,,,846.7504879999906,None,847.4917891994119,None,s,0,0.7456959001719952,847.4917891994119,None,848.247678598389,None,,,,,,,15,21,female,15,2022_May_09_1413,Partial repeat,2021.2.3,59.89896219118593,
3,6,0,1,2,2,2,2,0,0,1,1,1,0,0,0,59,59,59,,,,,,,,,,,,,,,,,,,,,,,,,,,,,,15,21,female,15,2022_May_09_1413,Partial repeat,2021.2.3,59.89896219118593,
1,4,0,1,2,3,2,2,1,0,0,1,0,0,0,0,60,60,60,0,0,0,0,,,,,,,848.7484846990556,None,848.8821061998606,None,849.7460496984422,None,s,1,0.7473939992487431,849.7460496984422,None,None,None,,,,,,,15,21,female,15,2022_May_09_1413,Partial repeat,2021.2.3,59.89896219118593,
1,4,0,1,2,3,2,2,1,0,0,1,0,0,0,0,60,60,60,1,0,1,0,,,,,,,,,850.5124928988516,None,851.5159394983202,None,l,1,0.62544110044837,851.5159394983202,None,None,None,,,,,,,15,21,female,15,2022_May_09_1413,Partial repeat,2021.2.3,59.89896219118593,
1,4,0,1,2,3,2,2,1,0,0,1,0,0,0,0,60,60,60,,,,,,,,,,,,,,,,,,,,,,,,,,,,,,15,21,female,15,2022_May_09_1413,Partial repeat,2021.2.3,59.89896219118593,
4,8,0,1,3,3,1,1,1,0,1,1,0,0,0,0,61,61,61,0,0,0,0,,,,,,,852.1682749986649,None,854.1255493983626,None,854.9896369986236,None,s,1,0.7358896005898714,854.9896369986236,None,None,None,,,,,,,15,21,female,15,2022_May_09_1413,Partial repeat,2021.2.3,59.89896219118593,
4,8,0,1,3,3,1,1,1,0,1,1,0,0,0,0,61,61,61,1,0,1,0,,,,,,,,,855.7408740986139,None,856.6598434988409,None,l,1,0.681650098413229,856.6598434988409,None,None,None,,,,,,,15,21,female,15,2022_May_09_1413,Partial repeat,2021.2.3,59.89896219118593,
4,8,0,1,3,3,1,1,1,0,1,1,0,0,0,0,61,61,61,,,,,,,,,,,,,,,,,,,,,,,,,,,,,,15,21,female,15,2022_May_09_1413,Partial repeat,2021.2.3,59.89896219118593,
6,4,0,1,2,3,2,2,0,0,0,1,1,0,0,0,62,62,62,0,0,0,0,,,,,,,857.3732554987073,None,857.7159559000283,None,858.6133268997073,None,l,1,0.6561945993453264,858.6133268997073,None,None,None,,,,,,,15,21,female,15,2022_May_09_1413,Partial repeat,2021.2.3,59.89896219118593,
6,4,0,1,2,3,2,2,0,0,0,1,1,0,0,0,62,62,62,1,0,1,0,,,,,,,,,859.2817631997168,None,860.0356108993292,None,l,1,0.5538953989744186,860.0356108993292,None,None,None,,,,,,,15,21,female,15,2022_May_09_1413,Partial repeat,2021.2.3,59.89896219118593,
6,4,0,1,2,3,2,2,0,0,0,1,1,0,0,0,62,62,62,,,,,,,,,,,,,,,,,,,,,,,,,,,,,,15,21,female,15,2022_May_09_1413,Partial repeat,2021.2.3,59.89896219118593,
3,4,0,1,2,3,2,1,0,0,0,0,1,0,0,0,63,63,63,0,0,0,0,,,,,,,860.6051166988909,None,860.8553371988237,None,861.8024943992496,None,l,1,0.5629398003220558,861.8024943992496,None,None,None,,,,,,,15,21,female,15,2022_May_09_1413,Partial repeat,2021.2.3,59.89896219118593,
3,4,0,1,2,3,2,1,0,0,0,0,1,0,0,0,63,63,63,1,0,1,0,,,,,,,,,862.3798601999879,None,863.2387763001025,None,l,1,0.4786248002201319,863.2387763001025,None,None,None,,,,,,,15,21,female,15,2022_May_09_1413,Partial repeat,2021.2.3,59.89896219118593,
3,4,0,1,2,3,2,1,0,0,0,0,1,0,0,0,63,63,63,,,,,,,,,,,,,,,,,,,,,,,,,,,,,,15,21,female,15,2022_May_09_1413,Partial repeat,2021.2.3,59.89896219118593,
2,2,0,1,3,3,2,1,0,1,1,0,0,1,0,0,64,64,64,0,0,0,0,,,,,,,863.972103798762,None,865.7983165998012,None,866.7122256997973,None,l,1,0.6132737994194031,866.7122256997973,None,None,None,,,,,,,15,21,female,15,2022_May_09_1413,Partial repeat,2021.2.3,59.89896219118593,
2,2,0,1,3,3,2,1,0,1,1,0,0,1,0,0,64,64,64,1,0,1,0,,,,,,,,,867.3445630986243,None,868.3153764996678,None,l,0,0.4500683005899191,868.3153764996678,None,868.7938487995416,None,,,,,,,15,21,female,15,2022_May_09_1413,Partial repeat,2021.2.3,59.89896219118593,
2,2,0,1,3,3,2,1,0,1,1,0,0,1,0,0,64,64,64,,,,,,,,,,,,,,,,,,,,,,,,,,,,,,15,21,female,15,2022_May_09_1413,Partial repeat,2021.2.3,59.89896219118593,
2,2,0,1,2,3,2,1,0,0,0,0,1,1,0,0,65,65,65,0,0,0,0,,,,,,,869.3052211999893,None,869.8395329993218,None,870.6532302983105,None,l,1,0.5602233000099659,870.6532302983105,None,None,None,,,,,,,15,21,female,15,2022_May_09_1413,Partial repeat,2021.2.3,59.89896219118593,
2,2,0,1,2,3,2,1,0,0,0,0,1,1,0,0,65,65,65,1,0,1,0,,,,,,,,,871.2362757995725,None,872.223246499896,None,l,1,0.5181871000677347,872.223246499896,None,None,None,,,,,,,15,21,female,15,2022_May_09_1413,Partial repeat,2021.2.3,59.89896219118593,
2,2,0,1,2,3,2,1,0,0,0,0,1,1,0,0,65,65,65,,,,,,,,,,,,,,,,,,,,,,,,,,,,,,15,21,female,15,2022_May_09_1413,Partial repeat,2021.2.3,59.89896219118593,
2,2,0,1,3,3,2,1,0,0,1,0,1,1,0,0,66,66,66,0,0,0,0,,,,,,,872.7657509986311,None,873.563366798684,None,874.528394298628,None,l,1,0.6050489004701376,874.528394298628,None,None,None,,,,,,,15,21,female,15,2022_May_09_1413,Partial repeat,2021.2.3,59.89896219118593,
2,2,0,1,3,3,2,1,0,0,1,0,1,1,0,0,66,66,66,1,0,1,0,,,,,,,,,875.1544052995741,None,875.9300583992153,None,l,1,0.4593381993472576,875.9300583992153,None,None,None,,,,,,,15,21,female,15,2022_May_09_1413,Partial repeat,2021.2.3,59.89896219118593,
2,2,0,1,3,3,2,1,0,0,1,0,1,1,0,0,66,66,66,,,,,,,,,,,,,,,,,,,,,,,,,,,,,,15,21,female,15,2022_May_09_1413,Partial repeat,2021.2.3,59.89896219118593,
2,2,0,1,3,2,1,1,0,0,0,1,1,1,0,0,67,67,67,0,0,0,0,,,,,,,876.4111052993685,None,877.0702215991914,None,877.9173671994358,None,l,1,0.49603400006890297,877.9173671994358,None,None,None,,,,,,,15,21,female,15,2022_May_09_1413,Partial repeat,2021.2.3,59.89896219118593,
2,2,0,1,3,2,1,1,0,0,0,1,1,1,0,0,67,67,67,1,0,1,0,,,,,,,,,878.4334084000438,None,879.3200865983963,None,l,1,0.45330929942429066,879.3200865983963,None,None,None,,,,,,,15,21,female,15,2022_May_09_1413,Partial repeat,2021.2.3,59.89896219118593,
2,2,0,1,3,2,1,1,0,0,0,1,1,1,0,0,67,67,67,,,,,,,,,,,,,,,,,,,,,,,,,,,,,,15,21,female,15,2022_May_09_1413,Partial repeat,2021.2.3,59.89896219118593,
2,2,0,1,2,2,2,2,1,1,1,1,1,1,0,0,68,68,68,0,0,0,0,,,,,,,879.7996585983783,None,880.5102674998343,None,881.2574166990817,None,s,1,0.6519539002329111,881.2574166990817,None,None,None,,,,,,,15,21,female,15,2022_May_09_1413,Partial repeat,2021.2.3,59.89896219118593,
2,2,0,1,2,2,2,2,1,1,1,1,1,1,0,0,68,68,68,1,0,1,0,,,,,,,,,881.9224481992424,None,882.6932954993099,None,s,1,0.376129399985075,882.6932954993099,None,None,None,,,,,,,15,21,female,15,2022_May_09_1413,Partial repeat,2021.2.3,59.89896219118593,
2,2,0,1,2,2,2,2,1,1,1,1,1,1,0,0,68,68,68,,,,,,,,,,,,,,,,,,,,,,,,,,,,,,15,21,female,15,2022_May_09_1413,Partial repeat,2021.2.3,59.89896219118593,
2,2,0,1,3,3,1,1,1,0,1,1,0,1,0,0,69,69,69,0,0,0,0,,,,,,,883.0897999983281,None,883.5662301983684,None,884.3799504991621,None,s,1,0.6254725009202957,884.3799504991621,None,None,None,,,,,,,15,21,female,15,2022_May_09_1413,Partial repeat,2021.2.3,59.89896219118593,
2,2,0,1,3,3,1,1,1,0,1,1,0,1,0,0,69,69,69,1,0,1,0,,,,,,,,,885.0287759993225,None,885.8997729998082,None,l,1,0.5056481994688511,885.8997729998082,None,None,None,,,,,,,15,21,female,15,2022_May_09_1413,Partial repeat,2021.2.3,59.89896219118593,
2,2,0,1,3,3,1,1,1,0,1,1,0,1,0,0,69,69,69,,,,,,,,,,,,,,,,,,,,,,,,,,,,,,15,21,female,15,2022_May_09_1413,Partial repeat,2021.2.3,59.89896219118593,
2,2,0,1,3,3,2,2,1,0,1,1,0,1,0,0,70,70,70,0,0,0,0,,,,,,,886.4247974995524,None,886.8559565991163,None,887.686661798507,None,s,1,0.5907586999237537,887.686661798507,None,None,None,,,,,,,15,21,female,15,2022_May_09_1413,Partial repeat,2021.2.3,59.89896219118593,
2,2,0,1,3,3,2,2,1,0,1,1,0,1,0,0,70,70,70,1,0,1,0,,,,,,,,,888.2911685984582,None,889.0226262994111,None,l,1,0.6547999996691942,889.0226262994111,None,None,None,,,,,,,15,21,female,15,2022_May_09_1413,Partial repeat,2021.2.3,59.89896219118593,
2,2,0,1,3,3,2,2,1,0,1,1,0,1,0,0,70,70,70,,,,,,,,,,,,,,,,,,,,,,,,,,,,,,15,21,female,15,2022_May_09_1413,Partial repeat,2021.2.3,59.89896219118593,
2,2,0,1,3,3,1,2,1,0,1,0,0,1,0,0,71,71,71,0,0,0,0,,,,,,,889.6976451985538,None,889.92865039967,None,890.8759317994118,None,s,1,1.5694855004549026,890.8759317994118,None,None,None,,,,,,,15,21,female,15,2022_May_09_1413,Partial repeat,2021.2.3,59.89896219118593,
2,2,0,1,3,3,1,2,1,0,1,0,0,1,0,0,71,71,71,1,0,1,0,,,,,,,,,892.4572142995894,None,893.2805375996977,None,l,1,0.516890799626708,893.2805375996977,None,None,None,,,,,,,15,21,female,15,2022_May_09_1413,Partial repeat,2021.2.3,59.89896219118593,
2,2,0,1,3,3,1,2,1,0,1,0,0,1,0,0,71,71,71,,,,,,,,,,,,,,,,,,,,,,,,,,,,,,15,21,female,15,2022_May_09_1413,Partial repeat,2021.2.3,59.89896219118593,
2,2,0,1,2,2,2,2,0,0,1,1,1,1,0,0,72,72,72,0,0,0,0,,,,,,,893.821903899312,None,894.1200367994606,None,894.9172761999071,None,l,1,0.7441962994635105,894.9172761999071,None,None,None,,,,,,,15,21,female,15,2022_May_09_1413,Partial repeat,2021.2.3,59.89896219118593,
2,2,0,1,2,2,2,2,0,0,1,1,1,1,0,0,72,72,72,1,0,1,0,,,,,,,,,895.6890797000378,None,896.5869694985449,None,l,1,0.41845150105655193,896.5869694985449,None,None,None,,,,,,,15,21,female,15,2022_May_09_1413,Partial repeat,2021.2.3,59.89896219118593,
2,2,0,1,2,2,2,2,0,0,1,1,1,1,0,0,72,72,72,,,,,,,,,,,,,,,,,,,,,,,,,,,,,,15,21,female,15,2022_May_09_1413,Partial repeat,2021.2.3,59.89896219118593,
2,2,0,1,2,3,2,1,1,0,0,0,0,1,0,0,73,73,73,0,0,0,0,,,,,,,897.0209794994444,None,897.827312098816,None,898.691566599533,None,s,1,0.5378121007233858,898.691566599533,None,None,None,,,,,,,15,21,female,15,2022_May_09_1413,Partial repeat,2021.2.3,59.89896219118593,
2,2,0,1,2,3,2,1,1,0,0,0,0,1,0,0,73,73,73,1,0,1,0,,,,,,,,,899.2536822985858,None,900.2607392985374,None,l,1,0.8566613998264074,900.2607392985374,None,None,None,,,,,,,15,21,female,15,2022_May_09_1413,Partial repeat,2021.2.3,59.89896219118593,
2,2,0,1,2,3,2,1,1,0,0,0,0,1,0,0,73,73,73,,,,,,,,,,,,,,,,,,,,,,,,,,,,,,15,21,female,15,2022_May_09_1413,Partial repeat,2021.2.3,59.89896219118593,
2,2,0,1,3,2,1,2,1,1,0,0,1,1,0,0,74,74,74,0,0,0,0,,,,,,,901.1483386997133,None,901.4342909995466,None,902.2313108984381,None,s,1,0.8220600001513958,902.2313108984381,None,None,None,,,,,,,15,21,female,15,2022_May_09_1413,Partial repeat,2021.2.3,59.89896219118593,
2,2,0,1,3,2,1,2,1,1,0,0,1,1,0,0,74,74,74,1,0,1,0,,,,,,,,,903.0663999989629,None,903.8518008999527,None,s,1,0.46551819890737534,903.8518008999527,None,None,None,,,,,,,15,21,female,15,2022_May_09_1413,Partial repeat,2021.2.3,59.89896219118593,
2,2,0,1,3,2,1,2,1,1,0,0,1,1,0,0,74,74,74,,,,,,,,,,,,,,,,,,,,,,,,,,,,,,15,21,female,15,2022_May_09_1413,Partial repeat,2021.2.3,59.89896219118593,
2,2,0,1,2,2,1,1,1,1,1,1,1,1,0,0,75,75,75,0,0,0,0,,,,,,,904.3314951993525,None,904.6906305998564,None,905.4876573998481,None,s,1,0.9577491004019976,905.4876573998481,None,None,None,,,,,,,15,21,female,15,2022_May_09_1413,Partial repeat,2021.2.3,59.89896219118593,
2,2,0,1,2,2,1,1,1,1,1,1,1,1,0,0,75,75,75,1,0,1,0,,,,,,,,,906.454647500068,None,907.1909278985113,None,s,1,0.3984909001737833,907.1909278985113,None,None,None,,,,,,,15,21,female,15,2022_May_09_1413,Partial repeat,2021.2.3,59.89896219118593,
2,2,0,1,2,2,1,1,1,1,1,1,1,1,0,0,75,75,75,,,,,,,,,,,,,,,,,,,,,,,,,,,,,,15,21,female,15,2022_May_09_1413,Partial repeat,2021.2.3,59.89896219118593,
2,2,0,1,2,3,1,2,1,0,0,0,0,1,0,0,76,76,76,0,0,0,0,,,,,,,907.6049248985946,None,907.9469890985638,None,908.7776066996157,None,s,1,0.5478201005607843,908.7776066996157,None,None,None,,,,,,,15,21,female,15,2022_May_09_1413,Partial repeat,2021.2.3,59.89896219118593,
2,2,0,1,2,3,1,2,1,0,0,0,0,1,0,0,76,76,76,1,0,1,0,,,,,,,,,909.3379014991224,None,910.1130614988506,None,l,1,0.49234680086374283,910.1130614988506,None,None,None,,,,,,,15,21,female,15,2022_May_09_1413,Partial repeat,2021.2.3,59.89896219118593,
2,2,0,1,2,3,1,2,1,0,0,0,0,1,0,0,76,76,76,,,,,,,,,,,,,,,,,,,,,,,,,,,,,,15,21,female,15,2022_May_09_1413,Partial repeat,2021.2.3,59.89896219118593,
2,2,0,1,3,2,1,1,0,1,0,1,0,1,0,0,77,77,77,0,0,0,0,,,,,,,910.63361639902,None,910.8358986992389,None,911.6328892987221,None,l,1,0.492492800578475,911.6328892987221,None,None,None,,,,,,,15,21,female,15,2022_May_09_1413,Partial repeat,2021.2.3,59.89896219118593,
2,2,0,1,3,2,1,1,0,1,0,1,0,1,0,0,77,77,77,1,0,1,0,,,,,,,,,912.1487382985651,None,912.9022885989398,None,l,0,0.639139199629426,912.9022885989398,None,913.5695356987417,None,,,,,,,15,21,female,15,2022_May_09_1413,Partial repeat,2021.2.3,59.89896219118593,
2,2,0,1,3,2,1,1,0,1,0,1,0,1,0,0,77,77,77,,,,,,,,,,,,,,,,,,,,,,,,,,,,,,15,21,female,15,2022_May_09_1413,Partial repeat,2021.2.3,59.89896219118593,
2,2,0,1,3,2,2,2,1,0,0,1,0,1,0,0,78,78,78,0,0,0,0,,,,,,,914.075577000156,None,915.7287994995713,None,916.6596355997026,None,s,1,0.769776901230216,916.6596355997026,None,None,None,,,,,,,15,21,female,15,2022_May_09_1413,Partial repeat,2021.2.3,59.89896219118593,
2,2,0,1,3,2,2,2,1,0,0,1,0,1,0,0,78,78,78,1,0,1,0,,,,,,,,,917.4569858983159,None,918.3793521989137,None,l,1,0.762041000649333,918.3793521989137,None,None,None,,,,,,,15,21,female,15,2022_May_09_1413,Partial repeat,2021.2.3,59.89896219118593,
2,2,0,1,3,2,2,2,1,0,0,1,0,1,0,0,78,78,78,,,,,,,,,,,,,,,,,,,,,,,,,,,,,,15,21,female,15,2022_May_09_1413,Partial repeat,2021.2.3,59.89896219118593,
2,2,0,1,2,3,2,2,0,1,0,1,0,1,0,0,79,79,79,0,0,0,0,,,,,,,919.1574995983392,None,919.3525113984942,None,920.1661824993789,None,l,1,0.6152493990957737,920.1661824993789,None,None,None,,,,,,,15,21,female,15,2022_May_09_1413,Partial repeat,2021.2.3,59.89896219118593,
2,2,0,1,2,3,2,2,0,1,0,1,0,1,0,0,79,79,79,1,0,1,0,,,,,,,,,920.7923840992153,None,921.5520833991468,None,l,0,0.6293193008750677,921.5520833991468,None,922.2056420985609,None,,,,,,,15,21,female,15,2022_May_09_1413,Partial repeat,2021.2.3,59.89896219118593,
2,2,0,1,2,3,2,2,0,1,0,1,0,1,0,0,79,79,79,,,,,,,,,,,,,,,,,,,,,,,,,,,,,,15,21,female,15,2022_May_09_1413,Partial repeat,2021.2.3,59.89896219118593,
2,2,0,1,3,3,1,1,0,0,1,1,1,1,0,0,80,80,80,0,0,0,0,,,,,,,922.709065400064,None,923.8946725986898,None,924.8932395987213,None,l,1,0.5761415008455515,924.8932395987213,None,None,None,,,,,,,15,21,female,15,2022_May_09_1413,Partial repeat,2021.2.3,59.89896219118593,
2,2,0,1,3,3,1,1,0,0,1,1,1,1,0,0,80,80,80,1,0,1,0,,,,,,,,,925.4968242999166,None,926.495484398678,None,l,1,0.5258900001645088,926.495484398678,None,None,None,,,,,,,15,21,female,15,2022_May_09_1413,Partial repeat,2021.2.3,59.89896219118593,
2,2,0,1,3,3,1,1,0,0,1,1,1,1,0,0,80,80,80,,,,,,,,,,,,,,,,,,,,,,,,,,,,,,15,21,female,15,2022_May_09_1413,Partial repeat,2021.2.3,59.89896219118593,
2,2,0,1,2,3,1,1,1,0,0,1,0,1,0,0,81,81,81,0,0,0,0,,,,,,,927.0369100999087,None,927.5684850998223,None,928.4320935998112,None,s,1,0.7333112005144358,928.4320935998112,None,None,None,,,,,,,15,21,female,15,2022_May_09_1413,Partial repeat,2021.2.3,59.89896219118593,
2,2,0,1,2,3,1,1,1,0,0,1,0,1,0,0,81,81,81,1,0,1,0,,,,,,,,,929.1834534984082,None,929.9351632986218,None,l,1,0.5342108998447657,929.9351632986218,None,None,None,,,,,,,15,21,female,15,2022_May_09_1413,Partial repeat,2021.2.3,59.89896219118593,
2,2,0,1,2,3,1,1,1,0,0,1,0,1,0,0,81,81,81,,,,,,,,,,,,,,,,,,,,,,,,,,,,,,15,21,female,15,2022_May_09_1413,Partial repeat,2021.2.3,59.89896219118593,
2,2,0,1,2,3,1,1,0,1,0,1,0,1,0,0,82,82,82,0,0,0,0,,,,,,,930.481010498479,None,930.82481119968,None,931.6898721996695,None,l,1,0.5634698998183012,931.6898721996695,None,None,None,,,,,,,15,21,female,15,2022_May_09_1413,Partial repeat,2021.2.3,59.89896219118593,
2,2,0,1,2,3,1,1,0,1,0,1,0,1,0,0,82,82,82,1,0,1,0,,,,,,,,,932.2702743001282,None,933.0580618996173,None,s,1,0.4833556991070509,933.0580618996173,None,None,None,,,,,,,15,21,female,15,2022_May_09_1413,Partial repeat,2021.2.3,59.89896219118593,
2,2,0,1,2,3,1,1,0,1,0,1,0,1,0,0,82,82,82,,,,,,,,,,,,,,,,,,,,,,,,,,,,,,15,21,female,15,2022_May_09_1413,Partial repeat,2021.2.3,59.89896219118593,
2,2,0,1,2,2,2,2,1,0,1,1,0,1,0,0,83,83,83,0,0,0,0,,,,,,,933.5634080991149,None,933.9975723996758,None,934.7616771999747,None,s,1,0.6438624002039433,934.7616771999747,None,None,None,,,,,,,15,21,female,15,2022_May_09_1413,Partial repeat,2021.2.3,59.89896219118593,
2,2,0,1,2,2,2,2,1,0,1,1,0,1,0,0,83,83,83,1,0,1,0,,,,,,,,,935.4141600001603,None,936.3810467999429,None,l,1,0.5044873990118504,936.3810467999429,None,None,None,,,,,,,15,21,female,15,2022_May_09_1413,Partial repeat,2021.2.3,59.89896219118593,
2,2,0,1,2,2,2,2,1,0,1,1,0,1,0,0,83,83,83,,,,,,,,,,,,,,,,,,,,,,,,,,,,,,15,21,female,15,2022_May_09_1413,Partial repeat,2021.2.3,59.89896219118593,
2,2,0,1,3,2,1,2,0,1,0,0,0,1,0,0,84,84,84,0,0,0,0,,,,,,,936.8986806999892,None,937.2539122998714,None,938.1012934986502,None,l,1,0.6001488007605076,938.1012934986502,None,None,None,,,,,,,15,21,female,15,2022_May_09_1413,Partial repeat,2021.2.3,59.89896219118593,
2,2,0,1,3,2,1,2,0,1,0,0,0,1,0,0,84,84,84,1,0,1,0,,,,,,,,,938.7251018993556,None,939.7041088994592,None,s,1,0.6053512990474701,939.7041088994592,None,None,None,,,,,,,15,21,female,15,2022_May_09_1413,Partial repeat,2021.2.3,59.89896219118593,
2,2,0,1,3,2,1,2,0,1,0,0,0,1,0,0,84,84,84,,,,,,,,,,,,,,,,,,,,,,,,,,,,,,15,21,female,15,2022_May_09_1413,Partial repeat,2021.2.3,59.89896219118593,
2,2,0,1,2,3,1,1,1,1,0,1,1,1,0,0,85,85,85,0,0,0,0,,,,,,,940.3306665997952,None,940.8944120984524,None,941.7594617996365,None,s,1,0.5979834999889135,941.7594617996365,None,None,None,,,,,,,15,21,female,15,2022_May_09_1413,Partial repeat,2021.2.3,59.89896219118593,
2,2,0,1,2,3,1,1,1,1,0,1,1,1,0,0,85,85,85,1,0,1,0,,,,,,,,,942.381977899,None,943.2610522992909,None,s,1,0.5843882001936436,943.2610522992909,None,None,None,,,,,,,15,21,female,15,2022_May_09_1413,Partial repeat,2021.2.3,59.89896219118593,
2,2,0,1,2,3,1,1,1,1,0,1,1,1,0,0,85,85,85,,,,,,,,,,,,,,,,,,,,,,,,,,,,,,15,21,female,15,2022_May_09_1413,Partial repeat,2021.2.3,59.89896219118593,
2,2,0,1,2,3,1,2,0,0,0,0,1,1,0,0,86,86,86,0,0,0,0,,,,,,,943.8678849991411,None,944.551529198885,None,945.2985248994082,None,l,1,0.7469338998198509,945.2985248994082,None,None,None,,,,,,,15,21,female,15,2022_May_09_1413,Partial repeat,2021.2.3,59.89896219118593,
2,2,0,1,2,3,1,2,0,0,0,0,1,1,0,0,86,86,86,1,0,1,0,,,,,,,,,946.0717388987541,None,947.0354974996299,None,l,1,0.40991670079529285,947.0354974996299,None,None,None,,,,,,,15,21,female,15,2022_May_09_1413,Partial repeat,2021.2.3,59.89896219118593,
2,2,0,1,2,3,1,2,0,0,0,0,1,1,0,0,86,86,86,,,,,,,,,,,,,,,,,,,,,,,,,,,,,,15,21,female,15,2022_May_09_1413,Partial repeat,2021.2.3,59.89896219118593,
2,2,0,1,2,2,2,1,1,0,1,0,0,1,0,0,87,87,87,0,0,0,0,,,,,,,947.4706197995692,None,947.9080694001168,None,948.8895966988057,None,s,1,0.5078336000442505,948.8895966988057,None,None,None,,,,,,,15,21,female,15,2022_May_09_1413,Partial repeat,2021.2.3,59.89896219118593,
2,2,0,1,2,2,2,1,1,0,1,0,0,1,0,0,87,87,87,1,0,1,0,,,,,,,,,949.4251996986568,None,950.241466999054,None,s,0,0.4438758995383978,950.241466999054,None,950.6975822988898,None,,,,,,,15,21,female,15,2022_May_09_1413,Partial repeat,2021.2.3,59.89896219118593,
2,2,0,1,2,2,2,1,1,0,1,0,0,1,0,0,87,87,87,,,,,,,,,,,,,,,,,,,,,,,,,,,,,,15,21,female,15,2022_May_09_1413,Partial repeat,2021.2.3,59.89896219118593,
2,2,0,1,2,2,2,1,0,1,1,0,0,1,0,0,88,88,88,0,0,0,0,,,,,,,951.197754798457,None,951.2812823988497,None,952.1283675990999,None,l,1,0.8529821000993252,952.1283675990999,None,None,None,,,,,,,15,21,female,15,2022_May_09_1413,Partial repeat,2021.2.3,59.89896219118593,
2,2,0,1,2,2,2,1,0,1,1,0,0,1,0,0,88,88,88,1,0,1,0,,,,,,,,,953.0073231998831,None,953.8829731997102,None,s,1,0.5144640002399683,953.8829731997102,None,None,None,,,,,,,15,21,female,15,2022_May_09_1413,Partial repeat,2021.2.3,59.89896219118593,
2,2,0,1,2,2,2,1,0,1,1,0,0,1,0,0,88,88,88,,,,,,,,,,,,,,,,,,,,,,,,,,,,,,15,21,female,15,2022_May_09_1413,Partial repeat,2021.2.3,59.89896219118593,
2,2,0,1,3,2,1,2,1,0,0,0,0,1,0,0,89,89,89,0,0,0,0,,,,,,,954.4239706993103,None,954.8716300986707,None,955.635492099449,None,s,1,0.545899698510766,955.635492099449,None,None,None,,,,,,,15,21,female,15,2022_May_09_1413,Partial repeat,2021.2.3,59.89896219118593,
2,2,0,1,3,2,1,2,1,0,0,0,0,1,0,0,89,89,89,1,0,1,0,,,,,,,,,956.1937965992838,None,957.1564996000379,None,l,1,0.5208873003721237,957.1564996000379,None,None,None,,,,,,,15,21,female,15,2022_May_09_1413,Partial repeat,2021.2.3,59.89896219118593,
2,2,0,1,3,2,1,2,1,0,0,0,0,1,0,0,89,89,89,,,,,,,,,,,,,,,,,,,,,,,,,,,,,,15,21,female,15,2022_May_09_1413,Partial repeat,2021.2.3,59.89896219118593,
2,2,0,1,3,3,2,1,1,0,1,0,0,1,0,0,90,90,90,0,0,0,0,,,,,,,957.7043178994209,None,957.9442243985832,None,958.9585570991039,None,s,1,0.47879309952259064,958.9585570991039,None,None,None,,,,,,,15,21,female,15,2022_May_09_1413,Partial repeat,2021.2.3,59.89896219118593,
2,2,0,1,3,3,2,1,1,0,1,0,0,1,0,0,90,90,90,1,0,1,0,,,,,,,,,959.4559510983527,None,960.2611536998302,None,l,1,0.3922944013029337,960.2611536998302,None,None,None,,,,,,,15,21,female,15,2022_May_09_1413,Partial repeat,2021.2.3,59.89896219118593,
2,2,0,1,3,3,2,1,1,0,1,0,0,1,0,0,90,90,90,,,,,,,,,,,,,,,,,,,,,,,,,,,,,,15,21,female,15,2022_May_09_1413,Partial repeat,2021.2.3,59.89896219118593,
2,2,0,1,2,2,2,1,0,0,1,0,1,1,0,0,91,91,91,0,0,0,0,,,,,,,960.6788220982999,None,961.0335578992963,None,961.9141562990844,None,l,1,0.76323820091784,961.9141562990844,None,None,None,,,,,,,15,21,female,15,2022_May_09_1413,Partial repeat,2021.2.3,59.89896219118593,
2,2,0,1,2,2,2,1,0,0,1,0,1,1,0,0,91,91,91,1,0,1,0,,,,,,,,,962.686196198687,None,963.6510978993028,None,l,1,0.4422553014010191,963.6510978993028,None,None,None,,,,,,,15,21,female,15,2022_May_09_1413,Partial repeat,2021.2.3,59.89896219118593,
2,2,0,1,2,2,2,1,0,0,1,0,1,1,0,0,91,91,91,,,,,,,,,,,,,,,,,,,,,,,,,,,,,,15,21,female,15,2022_May_09_1413,Partial repeat,2021.2.3,59.89896219118593,
2,2,0,1,2,2,1,2,1,0,1,0,0,1,0,0,92,92,92,0,0,0,0,,,,,,,964.1109742987901,None,964.6239161994308,None,965.6057575996965,None,s,1,0.4396202992647886,965.6057575996965,None,None,None,,,,,,,15,21,female,15,2022_May_09_1413,Partial repeat,2021.2.3,59.89896219118593,
2,2,0,1,2,2,1,2,1,0,1,0,0,1,0,0,92,92,92,1,0,1,0,,,,,,,,,966.062241198495,None,967.0409479998052,None,l,1,0.5325293000787497,967.0409479998052,None,None,None,,,,,,,15,21,female,15,2022_May_09_1413,Partial repeat,2021.2.3,59.89896219118593,
2,2,0,1,2,2,1,2,1,0,1,0,0,1,0,0,92,92,92,,,,,,,,,,,,,,,,,,,,,,,,,,,,,,15,21,female,15,2022_May_09_1413,Partial repeat,2021.2.3,59.89896219118593,
2,2,0,1,2,3,2,2,0,0,0,1,1,1,0,0,93,93,93,0,0,0,0,,,,,,,967.6045811995864,None,967.9804145991802,None,968.7272173985839,None,l,1,0.518045399338007,968.7272173985839,None,None,None,,,,,,,15,21,female,15,2022_May_09_1413,Partial repeat,2021.2.3,59.89896219118593,
2,2,0,1,2,3,2,2,0,0,0,1,1,1,0,0,93,93,93,1,0,1,0,,,,,,,,,969.2618218995631,None,970.080170199275,None,l,1,0.41318050026893616,970.080170199275,None,None,None,,,,,,,15,21,female,15,2022_May_09_1413,Partial repeat,2021.2.3,59.89896219118593,
2,2,0,1,2,3,2,2,0,0,0,1,1,1,0,0,93,93,93,,,,,,,,,,,,,,,,,,,,,,,,,,,,,,15,21,female,15,2022_May_09_1413,Partial repeat,2021.2.3,59.89896219118593,
2,2,0,1,2,2,1,1,0,1,1,1,0,1,0,0,94,94,94,0,0,0,0,,,,,,,970.5138144996017,None,970.952836599201,None,971.7668297998607,None,l,1,0.534596299752593,971.7668297998607,None,None,None,,,,,,,15,21,female,15,2022_May_09_1413,Partial repeat,2021.2.3,59.89896219118593,
2,2,0,1,2,2,1,1,0,1,1,1,0,1,0,0,94,94,94,1,0,1,0,,,,,,,,,972.3261778000742,None,973.1523992996663,None,s,1,0.4289772994816303,973.1523992996663,None,None,None,,,,,,,15,21,female,15,2022_May_09_1413,Partial repeat,2021.2.3,59.89896219118593,
2,2,0,1,2,2,1,1,0,1,1,1,0,1,0,0,94,94,94,,,,,,,,,,,,,,,,,,,,,,,,,,,,,,15,21,female,15,2022_May_09_1413,Partial repeat,2021.2.3,59.89896219118593,
2,2,0,1,3,2,2,2,0,1,0,1,0,1,0,0,95,95,95,0,0,0,0,,,,,,,973.6095339991152,None,973.9086678996682,None,974.7724700998515,None,l,1,0.5849089007824659,974.7724700998515,None,None,None,,,,,,,15,21,female,15,2022_May_09_1413,Partial repeat,2021.2.3,59.89896219118593,
2,2,0,1,3,2,2,2,0,1,0,1,0,1,0,0,95,95,95,1,0,1,0,,,,,,,,,975.3751607984304,None,976.3088015988469,None,s,1,0.5045739002525806,976.3088015988469,None,None,None,,,,,,,15,21,female,15,2022_May_09_1413,Partial repeat,2021.2.3,59.89896219118593,
2,2,0,1,3,2,2,2,0,1,0,1,0,1,0,0,95,95,95,,,,,,,,,,,,,,,,,,,,,,,,,,,,,,15,21,female,15,2022_May_09_1413,Partial repeat,2021.2.3,59.89896219118593,
2,2,0,1,2,3,1,2,0,1,0,0,0,1,0,0,96,96,96,0,0,0,0,,,,,,,976.8296935986727,None,977.0980703998357,None,978.0456763990223,None,l,1,0.6717002000659704,978.0456763990223,None,None,None,,,,,,,15,21,female,15,2022_May_09_1413,Partial repeat,2021.2.3,59.89896219118593,
2,2,0,1,2,3,1,2,0,1,0,0,0,1,0,0,96,96,96,1,0,1,0,,,,,,,,,978.7421012986451,None,979.4817735999823,None,s,1,0.587602699175477,979.4817735999823,None,None,None,,,,,,,15,21,female,15,2022_May_09_1413,Partial repeat,2021.2.3,59.89896219118593,
2,2,0,1,2,3,1,2,0,1,0,0,0,1,0,0,96,96,96,,,,,,,,,,,,,,,,,,,,,,,,,,,,,,15,21,female,15,2022_May_09_1413,Partial repeat,2021.2.3,59.89896219118593,
2,2,0,1,3,2,2,1,0,1,0,0,0,1,0,0,97,97,97,0,0,0,0,,,,,,,980.0895235985518,None,980.571526600048,None,981.5522428993136,None,l,1,0.48513559997081757,981.5522428993136,None,None,None,,,,,,,15,21,female,15,2022_May_09_1413,Partial repeat,2021.2.3,59.89896219118593,
2,2,0,1,3,2,2,1,0,1,0,0,0,1,0,0,97,97,97,1,0,1,0,,,,,,,,,982.050059299916,None,982.8549359999597,None,s,1,0.47039039991796017,982.8549359999597,None,None,None,,,,,,,15,21,female,15,2022_May_09_1413,Partial repeat,2021.2.3,59.89896219118593,
2,2,0,1,3,2,2,1,0,1,0,0,0,1,0,0,97,97,97,,,,,,,,,,,,,,,,,,,,,,,,,,,,,,15,21,female,15,2022_May_09_1413,Partial repeat,2021.2.3,59.89896219118593,
2,2,0,1,3,2,2,1,1,0,0,0,0,1,0,0,98,98,98,0,0,0,0,,,,,,,983.3359149992466,None,983.6108002997935,None,984.5414754990488,None,s,1,0.5999373998492956,984.5414754990488,None,None,None,,,,,,,15,21,female,15,2022_May_09_1413,Partial repeat,2021.2.3,59.89896219118593,
2,2,0,1,3,2,2,1,1,0,0,0,0,1,0,0,98,98,98,1,0,1,0,,,,,,,,,985.1663141995668,None,986.1444922983646,None,l,1,0.5569949988275766,986.1444922983646,None,None,None,,,,,,,15,21,female,15,2022_May_09_1413,Partial repeat,2021.2.3,59.89896219118593,
2,2,0,1,3,2,2,1,1,0,0,0,0,1,0,0,98,98,98,,,,,,,,,,,,,,,,,,,,,,,,,,,,,,15,21,female,15,2022_May_09_1413,Partial repeat,2021.2.3,59.89896219118593,
2,2,0,1,2,3,2,1,0,1,0,0,0,1,0,0,99,99,99,0,0,0,0,,,,,,,986.7278093993664,None,987.0007291994989,None,987.8981976993382,None,l,1,0.45117140002548695,987.8981976993382,None,None,None,,,,,,,15,21,female,15,2022_May_09_1413,Partial repeat,2021.2.3,59.89896219118593,
2,2,0,1,2,3,2,1,0,1,0,0,0,1,0,0,99,99,99,1,0,1,0,,,,,,,,,988.3739517983049,None,989.3843892998993,None,s,1,0.4609846007078886,989.3843892998993,None,None,None,,,,,,,15,21,female,15,2022_May_09_1413,Partial repeat,2021.2.3,59.89896219118593,
2,2,0,1,2,3,2,1,0,1,0,0,0,1,0,0,99,99,99,,,,,,,,,,,,,,,,,,,,,,,,,,,,,,15,21,female,15,2022_May_09_1413,Partial repeat,2021.2.3,59.89896219118593,
2,2,0,1,3,3,1,1,0,1,1,1,0,1,0,0,100,100,100,0,0,0,0,,,,,,,989.8681676983833,None,990.1235194988549,None,991.0037977993488,None,l,1,0.6975365001708269,991.0037977993488,None,None,None,,,,,,,15,21,female,15,2022_May_09_1413,Partial repeat,2021.2.3,59.89896219118593,
2,2,0,1,3,3,1,1,0,1,1,1,0,1,0,0,100,100,100,1,0,1,0,,,,,,,,,991.7132437992841,None,992.6906119994819,None,s,1,0.4908428005874157,992.6906119994819,None,None,None,,,,,,,15,21,female,15,2022_May_09_1413,Partial repeat,2021.2.3,59.89896219118593,
2,2,0,1,3,3,1,1,0,1,1,1,0,1,0,0,100,100,100,,,,,,,,,,,,,,,,,,,,,,,,,,,,,,15,21,female,15,2022_May_09_1413,Partial repeat,2021.2.3,59.89896219118593,
2,2,0,1,3,3,1,2,1,1,1,0,1,1,0,0,101,101,101,0,0,0,0,,,,,,,993.2119288984686,None,993.4633315000683,None,994.2438384983689,None,s,1,0.6654949001967907,994.2438384983689,None,None,None,,,,,,,15,21,female,15,2022_May_09_1413,Partial repeat,2021.2.3,59.89896219118593,
2,2,0,1,3,3,1,2,1,1,1,0,1,1,0,0,101,101,101,1,0,1,0,,,,,,,,,994.9314516987652,None,995.7302072998136,None,s,1,0.411233501508832,995.7302072998136,None,None,None,,,,,,,15,21,female,15,2022_May_09_1413,Partial repeat,2021.2.3,59.89896219118593,
2,2,0,1,3,3,1,2,1,1,1,0,1,1,0,0,101,101,101,,,,,,,,,,,,,,,,,,,,,,,,,,,,,,15,21,female,15,2022_May_09_1413,Partial repeat,2021.2.3,59.89896219118593,
2,2,0,1,2,2,1,1,0,0,1,1,1,1,0,0,102,102,102,0,0,0,0,,,,,,,996.171521699056,None,996.5359521992505,None,997.266340399161,None,s,0,0.5711733996868134,997.266340399161,None,997.8462891001254,None,,,,,,,15,21,female,15,2022_May_09_1413,Partial repeat,2021.2.3,59.89896219118593,
2,2,0,1,2,2,1,1,0,0,1,1,1,1,0,0,102,102,102,1,0,1,0,,,,,,,,,998.3561707995832,None,999.1698276996613,None,l,1,0.5075374990701675,999.1698276996613,None,None,None,,,,,,,15,21,female,15,2022_May_09_1413,Partial repeat,2021.2.3,59.89896219118593,
2,2,0,1,2,2,1,1,0,0,1,1,1,1,0,0,102,102,102,,,,,,,,,,,,,,,,,,,,,,,,,,,,,,15,21,female,15,2022_May_09_1413,Partial repeat,2021.2.3,59.89896219118593,
2,2,0,1,3,2,2,1,1,1,0,0,1,1,0,0,103,103,103,0,0,0,0,,,,,,,999.694230498746,None,999.9926600996405,None,1001.0067278984934,None,s,1,0.5586006995290518,1001.0067278984934,None,None,None,,,,,,,15,21,female,15,2022_May_09_1413,Partial repeat,2021.2.3,59.89896219118593,
2,2,0,1,3,2,2,1,1,1,0,0,1,1,0,0,103,103,103,1,0,1,0,,,,,,,,,1001.5863975994289,None,1002.3763062991202,None,s,1,0.4210069999098778,1002.3763062991202,None,None,None,,,,,,,15,21,female,15,2022_May_09_1413,Partial repeat,2021.2.3,59.89896219118593,
2,2,0,1,3,2,2,1,1,1,0,0,1,1,0,0,103,103,103,,,,,,,,,,,,,,,,,,,,,,,,,,,,,,15,21,female,15,2022_May_09_1413,Partial repeat,2021.2.3,59.89896219118593,
2,2,0,1,2,3,2,1,1,1,0,0,1,1,0,0,104,104,104,0,0,0,0,,,,,,,1002.8091191984713,None,1003.2824108991772,None,1004.0961468983442,None,s,1,0.7092771995812654,1004.0961468983442,None,None,None,,,,,,,15,21,female,15,2022_May_09_1413,Partial repeat,2021.2.3,59.89896219118593,
2,2,0,1,2,3,2,1,1,1,0,0,1,1,0,0,104,104,104,1,0,1,0,,,,,,,,,1004.823361299932,None,1005.833046099171,None,s,1,0.3403482008725405,1005.833046099171,None,None,None,,,,,,,15,21,female,15,2022_May_09_1413,Partial repeat,2021.2.3,59.89896219118593,
2,2,0,1,2,3,2,1,1,1,0,0,1,1,0,0,104,104,104,,,,,,,,,,,,,,,,,,,,,,,,,,,,,,15,21,female,15,2022_May_09_1413,Partial repeat,2021.2.3,59.89896219118593,
2,2,0,1,2,3,2,2,1,1,0,1,1,1,0,0,105,105,105,0,0,0,0,,,,,,,1006.1852882001549,None,1006.5220899991691,None,1007.3690545987338,None,s,1,0.4523540996015072,1007.3690545987338,None,None,None,,,,,,,15,21,female,15,2022_May_09_1413,Partial repeat,2021.2.3,59.89896219118593,
2,2,0,1,2,3,2,2,1,1,0,1,1,1,0,0,105,105,105,1,0,1,0,,,,,,,,,1007.840795699507,None,1008.6218285989016,None,s,1,0.3915286008268595,1008.6218285989016,None,None,None,,,,,,,15,21,female,15,2022_May_09_1413,Partial repeat,2021.2.3,59.89896219118593,
2,2,0,1,2,3,2,2,1,1,0,1,1,1,0,0,105,105,105,,,,,,,,,,,,,,,,,,,,,,,,,,,,,,15,21,female,15,2022_May_09_1413,Partial repeat,2021.2.3,59.89896219118593,
2,2,0,1,3,3,2,2,0,1,1,1,0,1,0,0,106,106,106,0,0,0,0,,,,,,,1009.0368619989604,None,1009.4444244001061,None,1010.2259743995965,None,l,1,1.499387800693512,1010.2259743995965,None,None,None,,,,,,,15,21,female,15,2022_May_09_1413,Partial repeat,2021.2.3,59.89896219118593,
2,2,0,1,3,3,2,2,0,1,1,1,0,1,0,0,106,106,106,1,0,1,0,,,,,,,,,1011.7412089984864,None,1012.646288599819,None,l,0,0.46315279975533485,1012.646288599819,None,1013.1250566989183,None,,,,,,,15,21,female,15,2022_May_09_1413,Partial repeat,2021.2.3,59.89896219118593,
2,2,0,1,3,3,2,2,0,1,1,1,0,1,0,0,106,106,106,,,,,,,,,,,,,,,,,,,,,,,,,,,,,,15,21,female,15,2022_May_09_1413,Partial repeat,2021.2.3,59.89896219118593,
2,2,0,1,2,3,1,2,1,1,0,0,1,1,0,0,107,107,107,0,0,0,0,,,,,,,1013.6359683983028,None,1014.3372936993837,None,1015.1010155994445,None,s,1,0.5922800991684198,1015.1010155994445,None,None,None,,,,,,,15,21,female,15,2022_May_09_1413,Partial repeat,2021.2.3,59.89896219118593,
2,2,0,1,2,3,1,2,1,1,0,0,1,1,0,0,107,107,107,1,0,1,0,,,,,,,,,1015.7144377995282,None,1016.6036949995905,None,s,1,0.3857521992176771,1016.6036949995905,None,None,None,,,,,,,15,21,female,15,2022_May_09_1413,Partial repeat,2021.2.3,59.89896219118593,
2,2,0,1,2,3,1,2,1,1,0,0,1,1,0,0,107,107,107,,,,,,,,,,,,,,,,,,,,,,,,,,,,,,15,21,female,15,2022_May_09_1413,Partial repeat,2021.2.3,59.89896219118593,
2,2,0,1,3,3,2,2,1,1,1,1,1,1,0,0,108,108,108,0,0,0,0,,,,,,,1016.9999572001398,None,1017.3097369987518,None,1018.3068725988269,None,s,1,0.3704784996807575,1018.3068725988269,None,None,None,,,,,,,15,21,female,15,2022_May_09_1413,Partial repeat,2021.2.3,59.89896219118593,
2,2,0,1,3,3,2,2,1,1,1,1,1,1,0,0,108,108,108,1,0,1,0,,,,,,,,,1018.6971541997045,None,1019.5771738998592,None,s,1,0.44418769888579845,1019.5771738998592,None,None,None,,,,,,,15,21,female,15,2022_May_09_1413,Partial repeat,2021.2.3,59.89896219118593,
2,2,0,1,3,3,2,2,1,1,1,1,1,1,0,0,108,108,108,,,,,,,,,,,,,,,,,,,,,,,,,,,,,,15,21,female,15,2022_May_09_1413,Partial repeat,2021.2.3,59.89896219118593,
2,2,0,1,3,2,2,1,0,0,0,0,1,1,0,0,109,109,109,0,0,0,0,,,,,,,1020.0383610986173,None,1020.3990835994482,None,1021.2295461986214,None,l,1,0.43184939958155155,1021.2295461986214,None,None,None,,,,,,,15,21,female,15,2022_May_09_1413,Partial repeat,2021.2.3,59.89896219118593,
2,2,0,1,3,2,2,1,0,0,0,0,1,1,0,0,109,109,109,1,0,1,0,,,,,,,,,1021.6834910996258,None,1022.565647399053,None,l,1,0.38385390117764473,1022.565647399053,None,None,None,,,,,,,15,21,female,15,2022_May_09_1413,Partial repeat,2021.2.3,59.89896219118593,
2,2,0,1,3,2,2,1,0,0,0,0,1,1,0,0,109,109,109,,,,,,,,,,,,,,,,,,,,,,,,,,,,,,15,21,female,15,2022_May_09_1413,Partial repeat,2021.2.3,59.89896219118593,
2,2,0,1,2,2,1,2,1,1,1,0,1,1,0,0,110,110,110,0,0,0,0,,,,,,,1022.9786548987031,None,1023.2712715994567,None,1024.135376598686,None,s,1,0.46990990079939365,1024.135376598686,None,None,None,,,,,,,15,21,female,15,2022_May_09_1413,Partial repeat,2021.2.3,59.89896219118593,
2,2,0,1,2,2,1,2,1,1,1,0,1,1,0,0,110,110,110,1,0,1,0,,,,,,,,,1024.6318577993661,None,1025.4716313984245,None,s,1,0.34182409942150116,1025.4716313984245,None,None,None,,,,,,,15,21,female,15,2022_May_09_1413,Partial repeat,2021.2.3,59.89896219118593,
2,2,0,1,2,2,1,2,1,1,1,0,1,1,0,0,110,110,110,,,,,,,,,,,,,,,,,,,,,,,,,,,,,,15,21,female,15,2022_May_09_1413,Partial repeat,2021.2.3,59.89896219118593,
2,2,0,1,2,2,1,2,0,1,1,0,0,1,0,0,111,111,111,0,0,0,0,,,,,,,1025.8265172000974,None,1026.2437490988523,None,1027.174584299326,None,l,1,0.43097510002553463,1027.174584299326,None,None,None,,,,,,,15,21,female,15,2022_May_09_1413,Partial repeat,2021.2.3,59.89896219118593,
2,2,0,1,2,2,1,2,0,1,1,0,0,1,0,0,111,111,111,1,0,1,0,,,,,,,,,1027.6165522988886,None,1028.4768058992922,None,s,1,0.5924796015024185,1028.4768058992922,None,None,None,,,,,,,15,21,female,15,2022_May_09_1413,Partial repeat,2021.2.3,59.89896219118593,
2,2,0,1,2,2,1,2,0,1,1,0,0,1,0,0,111,111,111,,,,,,,,,,,,,,,,,,,,,,,,,,,,,,15,21,female,15,2022_May_09_1413,Partial repeat,2021.2.3,59.89896219118593,
2,2,0,1,3,3,2,2,0,0,1,1,1,1,0,0,112,112,112,0,0,0,0,,,,,,,1029.0870505999774,None,1029.3164658993483,None,1030.2816419992596,None,l,1,0.4356055986136198,1030.2816419992596,None,None,None,,,,,,,15,21,female,15,2022_May_09_1413,Partial repeat,2021.2.3,59.89896219118593,
2,2,0,1,3,3,2,2,0,0,1,1,1,1,0,0,112,112,112,1,0,1,0,,,,,,,,,1030.7326499000192,None,1031.4659730996937,None,l,1,0.3874248992651701,1031.4659730996937,None,None,None,,,,,,,15,21,female,15,2022_May_09_1413,Partial repeat,2021.2.3,59.89896219118593,
2,2,0,1,3,3,2,2,0,0,1,1,1,1,0,0,112,112,112,,,,,,,,,,,,,,,,,,,,,,,,,,,,,,15,21,female,15,2022_May_09_1413,Partial repeat,2021.2.3,59.89896219118593,
2,2,0,1,3,2,1,1,1,0,0,1,0,1,0,0,113,113,113,0,0,0,0,,,,,,,1031.8837748989463,None,1032.155236499384,None,1033.035790199414,None,l,0,0.3935857992619276,1033.035790199414,None,1033.4487480986863,None,,,,,,,15,21,female,15,2022_May_09_1413,Partial repeat,2021.2.3,59.89896219118593,
2,2,0,1,3,2,1,1,1,0,0,1,0,1,0,0,113,113,113,1,0,1,0,,,,,,,,,1033.958798598498,None,1034.8392363991588,None,l,1,0.6461853012442589,1034.8392363991588,None,None,None,,,,,,,15,21,female,15,2022_May_09_1413,Partial repeat,2021.2.3,59.89896219118593,
2,2,0,1,3,2,1,1,1,0,0,1,0,1,0,0,113,113,113,,,,,,,,,,,,,,,,,,,,,,,,,,,,,,15,21,female,15,2022_May_09_1413,Partial repeat,2021.2.3,59.89896219118593,
2,2,0,1,2,2,2,1,1,1,1,0,1,1,0,0,114,114,114,0,0,0,0,,,,,,,1035.5067336987704,None,1036.1463699992746,None,1037.0271538998932,None,s,1,0.5061799995601177,1037.0271538998932,None,None,None,,,,,,,15,21,female,15,2022_May_09_1413,Partial repeat,2021.2.3,59.89896219118593,
2,2,0,1,2,2,2,1,1,1,1,0,1,1,0,0,114,114,114,1,0,1,0,,,,,,,,,1037.5460212994367,None,1038.5470685996115,None,s,1,0.37827480025589466,1038.5470685996115,None,None,None,,,,,,,15,21,female,15,2022_May_09_1413,Partial repeat,2021.2.3,59.89896219118593,
2,2,0,1,2,2,2,1,1,1,1,0,1,1,0,0,114,114,114,,,,,,,,,,,,,,,,,,,,,,,,,,,,,,15,21,female,15,2022_May_09_1413,Partial repeat,2021.2.3,59.89896219118593,
2,2,0,1,2,2,1,1,1,0,1,1,0,1,0,0,115,115,115,0,0,0,0,,,,,,,1038.945220399648,None,1039.2524289991707,None,1040.1160578988492,None,s,1,0.4253075998276472,1040.1160578988492,None,None,None,,,,,,,15,21,female,15,2022_May_09_1413,Partial repeat,2021.2.3,59.89896219118593,
2,2,0,1,2,2,1,1,1,0,1,1,0,1,0,0,115,115,115,1,0,1,0,,,,,,,,,1040.5667102001607,None,1041.452333798632,None,l,1,0.43308959901332855,1041.452333798632,None,None,None,,,,,,,15,21,female,15,2022_May_09_1413,Partial repeat,2021.2.3,59.89896219118593,
2,2,0,1,2,2,1,1,1,0,1,1,0,1,0,0,115,115,115,,,,,,,,,,,,,,,,,,,,,,,,,,,,,,15,21,female,15,2022_May_09_1413,Partial repeat,2021.2.3,59.89896219118593,
2,2,0,1,3,2,2,2,1,1,0,1,1,1,0,0,116,116,116,0,0,0,0,,,,,,,1041.9130069985986,None,1042.208130998537,None,1043.0387842990458,None,s,1,0.5905293002724648,1043.0387842990458,None,None,None,,,,,,,15,21,female,15,2022_May_09_1413,Partial repeat,2021.2.3,59.89896219118593,
2,2,0,1,3,2,2,2,1,1,0,1,1,1,0,0,116,116,116,1,0,1,0,,,,,,,,,1043.6446883995086,None,1044.4245142992586,None,s,1,0.38079039938747883,1044.4245142992586,None,None,None,,,,,,,15,21,female,15,2022_May_09_1413,Partial repeat,2021.2.3,59.89896219118593,
2,2,0,1,3,2,2,2,1,1,0,1,1,1,0,0,116,116,116,,,,,,,,,,,,,,,,,,,,,,,,,,,,,,15,21,female,15,2022_May_09_1413,Partial repeat,2021.2.3,59.89896219118593,
2,2,0,1,2,3,1,1,0,0,0,1,1,1,0,0,117,117,117,0,0,0,0,,,,,,,1044.8168246988207,None,1046.349492199719,None,1047.1464465986937,None,l,1,0.46711060032248497,1047.1464465986937,None,None,None,,,,,,,15,21,female,15,2022_May_09_1413,Partial repeat,2021.2.3,59.89896219118593,
2,2,0,1,2,3,1,1,0,0,0,1,1,1,0,0,117,117,117,1,0,1,0,,,,,,,,,1047.6229464989156,None,1048.4324364997447,None,l,1,0.38886710070073605,1048.4324364997447,None,None,None,,,,,,,15,21,female,15,2022_May_09_1413,Partial repeat,2021.2.3,59.89896219118593,
2,2,0,1,2,3,1,1,0,0,0,1,1,1,0,0,117,117,117,,,,,,,,,,,,,,,,,,,,,,,,,,,,,,15,21,female,15,2022_May_09_1413,Partial repeat,2021.2.3,59.89896219118593,
2,2,0,1,3,2,2,2,0,0,0,1,1,1,0,0,118,118,118,0,0,0,0,,,,,,,1048.8419156000018,None,1049.0548043996096,None,1050.0021745990962,None,l,1,0.4591140989214182,1050.0021745990962,None,None,None,,,,,,,15,21,female,15,2022_May_09_1413,Partial repeat,2021.2.3,59.89896219118593,
2,2,0,1,3,2,2,2,0,0,0,1,1,1,0,0,118,118,118,1,0,1,0,,,,,,,,,1050.478014498949,None,1051.2554911989719,None,l,1,0.37392920069396496,1051.2554911989719,None,None,None,,,,,,,15,21,female,15,2022_May_09_1413,Partial repeat,2021.2.3,59.89896219118593,
2,2,0,1,3,2,2,2,0,0,0,1,1,1,0,0,118,118,118,,,,,,,,,,,,,,,,,,,,,,,,,,,,,,15,21,female,15,2022_May_09_1413,Partial repeat,2021.2.3,59.89896219118593,
2,2,0,1,3,2,1,1,1,1,0,1,1,1,0,0,119,119,119,0,0,0,0,,,,,,,1051.6489480994642,None,1051.8769400995225,None,1052.8744281996042,None,l,0,0.41089100018143654,1052.8744281996042,None,1053.3061273992062,None,,,,,,,15,21,female,15,2022_May_09_1413,Partial repeat,2021.2.3,59.89896219118593,
2,2,0,1,3,2,1,1,1,1,0,1,1,1,0,0,119,119,119,1,0,1,0,,,,,,,,,1053.814071599394,None,1054.6610678993165,None,s,1,1.6723358985036612,1054.6610678993165,None,None,None,,,,,,,15,21,female,15,2022_May_09_1413,Partial repeat,2021.2.3,59.89896219118593,
2,2,0,1,3,2,1,1,1,1,0,1,1,1,0,0,119,119,119,,,,,,,,,,,,,,,,,,,,,,,,,,,,,,15,21,female,15,2022_May_09_1413,Partial repeat,2021.2.3,59.89896219118593,
2,2,0,1,3,3,2,1,1,1,1,0,1,1,0,0,120,120,120,0,0,0,0,,,,,,,1056.3567795995623,None,1056.7029902990907,None,1057.4165056999773,None,s,1,0.42882509902119637,1057.4165056999773,None,None,None,,,,,,,15,21,female,15,2022_May_09_1413,Partial repeat,2021.2.3,59.89896219118593,
2,2,0,1,3,3,2,1,1,1,1,0,1,1,0,0,120,120,120,1,0,1,0,,,,,,,,,1057.8710887990892,None,1058.8528466988355,None,s,1,0.3524532001465559,1058.8528466988355,None,None,None,,,,,,,15,21,female,15,2022_May_09_1413,Partial repeat,2021.2.3,59.89896219118593,
2,2,0,1,3,3,2,1,1,1,1,0,1,1,0,0,120,120,120,,,,,,,,,,,,,,,,,,,,,,,,,,,,,,15,21,female,15,2022_May_09_1413,Partial repeat,2021.2.3,59.89896219118593,
2,2,0,1,2,3,2,2,1,0,0,1,0,1,0,0,121,121,121,0,0,0,0,,,,,,,1059.2268680986017,None,1059.4917561989278,None,1060.5058206990361,None,s,1,0.6835133992135525,1060.5058206990361,None,None,None,,,,,,,15,21,female,15,2022_May_09_1413,Partial repeat,2021.2.3,59.89896219118593,
2,2,0,1,2,3,2,2,1,0,0,1,0,1,0,0,121,121,121,1,0,1,0,,,,,,,,,1061.2142101991922,None,1062.1426973994821,None,l,1,0.5986314993351698,1062.1426973994821,None,None,None,,,,,,,15,21,female,15,2022_May_09_1413,Partial repeat,2021.2.3,59.89896219118593,
2,2,0,1,2,3,2,2,1,0,0,1,0,1,0,0,121,121,121,,,,,,,,,,,,,,,,,,,,,,,,,,,,,,15,21,female,15,2022_May_09_1413,Partial repeat,2021.2.3,59.89896219118593,
2,2,0,1,2,2,1,2,0,0,1,0,1,1,0,0,122,122,122,0,0,0,0,,,,,,,1062.7557980995625,None,1064.2842686995864,None,1065.0647724997252,None,l,1,0.780536100268364,1065.0647724997252,None,None,None,,,,,,,15,21,female,15,2022_May_09_1413,Partial repeat,2021.2.3,59.89896219118593,
2,2,0,1,2,2,1,2,0,0,1,0,1,1,0,0,122,122,122,1,0,1,0,,,,,,,,,1065.86221379973,None,1066.7858636993915,None,l,1,0.49152970127761364,1066.7858636993915,None,None,None,,,,,,,15,21,female,15,2022_May_09_1413,Partial repeat,2021.2.3,59.89896219118593,
2,2,0,1,2,2,1,2,0,0,1,0,1,1,0,0,122,122,122,,,,,,,,,,,,,,,,,,,,,,,,,,,,,,15,21,female,15,2022_May_09_1413,Partial repeat,2021.2.3,59.89896219118593,
2,2,0,1,3,3,1,1,1,1,1,1,1,1,0,0,123,123,123,0,0,0,0,,,,,,,1067.2907239999622,None,1067.691077498719,None,1068.7051353994757,None,s,1,0.8921721000224352,1068.7051353994757,None,None,None,,,,,,,15,21,female,15,2022_May_09_1413,Partial repeat,2021.2.3,59.89896219118593,
2,2,0,1,3,3,1,1,1,1,1,1,1,1,0,0,123,123,123,1,0,1,0,,,,,,,,,1069.62058249861,None,1070.3416296001524,None,s,1,0.39969770051538944,1070.3416296001524,None,None,None,,,,,,,15,21,female,15,2022_May_09_1413,Partial repeat,2021.2.3,59.89896219118593,
2,2,0,1,3,3,1,1,1,1,1,1,1,1,0,0,123,123,123,,,,,,,,,,,,,,,,,,,,,,,,,,,,,,15,21,female,15,2022_May_09_1413,Partial repeat,2021.2.3,59.89896219118593,
2,2,0,1,3,3,1,2,0,0,1,0,1,1,0,0,124,124,124,0,0,0,0,,,,,,,1070.7584290001541,None,1071.0643147993833,None,1072.0783124994487,None,s,0,0.46308059990406036,1072.0783124994487,None,1072.549770699814,None,,,,,,,15,21,female,15,2022_May_09_1413,Partial repeat,2021.2.3,59.89896219118593,
2,2,0,1,3,3,1,2,0,0,1,0,1,1,0,0,124,124,124,1,0,1,0,,,,,,,,,1073.051493799314,None,1073.8149294983596,None,l,1,0.6544516999274492,1073.8149294983596,None,None,None,,,,,,,15,21,female,15,2022_May_09_1413,Partial repeat,2021.2.3,59.89896219118593,
2,2,0,1,3,3,1,2,0,0,1,0,1,1,0,0,124,124,124,,,,,,,,,,,,,,,,,,,,,,,,,,,,,,15,21,female,15,2022_May_09_1413,Partial repeat,2021.2.3,59.89896219118593,
2,2,0,1,3,2,1,2,0,0,0,0,1,1,0,0,125,125,125,0,0,0,0,,,,,,,1074.4863861985505,None,1074.9218121990561,None,1075.9358686991036,None,l,1,0.5574587993323803,1075.9358686991036,None,None,None,,,,,,,15,21,female,15,2022_May_09_1413,Partial repeat,2021.2.3,59.89896219118593,
2,2,0,1,3,2,1,2,0,0,0,0,1,1,0,0,125,125,125,1,0,1,0,,,,,,,,,1076.5177807994187,None,1077.4222792983055,None,l,1,0.47105509974062443,1077.4222792983055,None,None,None,,,,,,,15,21,female,15,2022_May_09_1413,Partial repeat,2021.2.3,59.89896219118593,
2,2,0,1,3,2,1,2,0,0,0,0,1,1,0,0,125,125,125,,,,,,,,,,,,,,,,,,,,,,,,,,,,,,15,21,female,15,2022_May_09_1413,Partial repeat,2021.2.3,59.89896219118593,
2,2,0,1,2,2,2,2,0,1,1,1,0,1,0,0,126,126,126,0,0,0,0,,,,,,,1077.9196464996785,None,1078.2616448998451,None,1079.2424276992679,None,l,1,0.38695820048451424,1079.2424276992679,None,None,None,,,,,,,15,21,female,15,2022_May_09_1413,Partial repeat,2021.2.3,59.89896219118593,
2,2,0,1,2,2,2,2,0,1,1,1,0,1,0,0,126,126,126,1,0,1,0,,,,,,,,,1079.6545618996024,None,1080.628565499559,None,s,1,0.4248759988695383,1080.628565499559,None,None,None,,,,,,,15,21,female,15,2022_May_09_1413,Partial repeat,2021.2.3,59.89896219118593,
2,2,0,1,2,2,2,2,0,1,1,1,0,1,0,0,126,126,126,,,,,,,,,,,,,,,,,,,,,,,,,,,,,,15,21,female,15,2022_May_09_1413,Partial repeat,2021.2.3,59.89896219118593,
2,2,0,1,3,3,1,2,0,1,1,0,0,1,0,0,127,127,127,0,0,0,0,,,,,,,1081.066519498825,None,1081.4512407984585,None,1082.331837600097,None,l,1,0.55339739844203,1082.331837600097,None,None,None,,,,,,,15,21,female,15,2022_May_09_1413,Partial repeat,2021.2.3,59.89896219118593,
2,2,0,1,3,3,1,2,0,1,1,0,0,1,0,0,127,127,127,1,0,1,0,,,,,,,,,1082.9110911991447,None,1083.7845469992608,None,s,1,0.4607791993767023,1083.7845469992608,None,None,None,,,,,,,15,21,female,15,2022_May_09_1413,Partial repeat,2021.2.3,59.89896219118593,
2,2,0,1,3,3,1,2,0,1,1,0,0,1,0,0,127,127,127,,,,,,,,,,,,,,,,,,,,,,,,,,,,,,15,21,female,15,2022_May_09_1413,Partial repeat,2021.2.3,59.89896219118593,
2,8,0,1,2,2,1,2,1,0,1,0,0,0,0,0,128,128,128,0,0,0,0,,,,,,,1084.5718225985765,None,1086.1269265990704,None,1086.8572231996804,None,l,0,0.5321018993854523,1086.8572231996804,None,1087.4034052994102,None,,,,,,,15,21,female,15,2022_May_09_1413,Partial repeat,2021.2.3,59.89896219118593,
2,8,0,1,2,2,1,2,1,0,1,0,0,0,0,0,128,128,128,1,0,1,0,,,,,,,,,1087.9137263000011,None,1088.7274046000093,None,l,1,1.541915500536561,1088.7274046000093,None,None,None,,,,,,,15,21,female,15,2022_May_09_1413,Partial repeat,2021.2.3,59.89896219118593,
2,8,0,1,2,2,1,2,1,0,1,0,0,0,0,0,128,128,128,,,,,,,,,,,,,,,,,,,,,,,,,,,,,,15,21,female,15,2022_May_09_1413,Partial repeat,2021.2.3,59.89896219118593,
6,7,0,1,2,3,2,1,0,1,0,0,0,0,0,0,129,129,129,0,0,0,0,,,,,,,1090.2939971983433,None,1090.9196130987257,None,1091.70009829849,None,l,1,0.6172493994235992,1091.70009829849,None,None,None,,,,,,,15,21,female,15,2022_May_09_1413,Partial repeat,2021.2.3,59.89896219118593,
6,7,0,1,2,3,2,1,0,1,0,0,0,0,0,0,129,129,129,1,0,1,0,,,,,,,,,1092.345044599846,None,1093.2194069996476,None,s,1,0.7539129983633757,1093.2194069996476,None,None,None,,,,,,,15,21,female,15,2022_May_09_1413,Partial repeat,2021.2.3,59.89896219118593,
6,7,0,1,2,3,2,1,0,1,0,0,0,0,0,0,129,129,129,,,,,,,,,,,,,,,,,,,,,,,,,,,,,,15,21,female,15,2022_May_09_1413,Partial repeat,2021.2.3,59.89896219118593,
8,4,0,1,2,3,1,1,0,1,0,1,0,0,0,0,130,130,130,0,0,0,0,,,,,,,1094.0021329000592,None,1094.5096183996648,None,1095.2569752000272,None,l,1,0.8284102007746696,1095.2569752000272,None,None,None,,,,,,,15,21,female,15,2022_May_09_1413,Partial repeat,2021.2.3,59.89896219118593,
8,4,0,1,2,3,1,1,0,1,0,1,0,0,0,0,130,130,130,1,0,1,0,,,,,,,,,1096.093896098435,None,1097.110724600032,None,s,1,0.6626304984092712,1097.110724600032,None,None,None,,,,,,,15,21,female,15,2022_May_09_1413,Partial repeat,2021.2.3,59.89896219118593,
8,4,0,1,2,3,1,1,0,1,0,1,0,0,0,0,130,130,130,,,,,,,,,,,,,,,,,,,,,,,,,,,,,,15,21,female,15,2022_May_09_1413,Partial repeat,2021.2.3,59.89896219118593,
5,6,0,1,3,3,1,2,0,0,1,0,1,0,0,0,131,131,131,0,0,0,0,,,,,,,1097.7863945998251,None,1098.200590999797,None,1099.0142007991672,None,s,0,0.5671567991375923,1099.0142007991672,None,1099.5953597985208,None,,,,,,,15,21,female,15,2022_May_09_1413,Partial repeat,2021.2.3,59.89896219118593,
5,6,0,1,3,3,1,2,0,0,1,0,1,0,0,0,131,131,131,1,0,1,0,,,,,,,,,1100.1040773000568,None,1101.034904198721,None,s,0,0.5944660995155573,1101.034904198721,None,1101.6392822992057,None,,,,,,,15,21,female,15,2022_May_09_1413,Partial repeat,2021.2.3,59.89896219118593,
5,6,0,1,3,3,1,2,0,0,1,0,1,0,0,0,131,131,131,,,,,,,,,,,,,,,,,,,,,,,,,,,,,,15,21,female,15,2022_May_09_1413,Partial repeat,2021.2.3,59.89896219118593,
8,1,0,1,3,3,1,2,1,1,1,0,1,0,0,0,132,132,132,0,0,0,0,,,,,,,1102.1414680983871,None,1102.2582990992814,None,1103.1553130988032,None,s,1,0.8499996997416019,1103.1553130988032,None,None,None,,,,,,,15,21,female,15,2022_May_09_1413,Partial repeat,2021.2.3,59.89896219118593,
8,1,0,1,3,3,1,2,1,1,1,0,1,0,0,0,132,132,132,1,0,1,0,,,,,,,,,1104.0306334998459,None,1105.0091161001474,None,s,1,0.6042503006756306,1105.0091161001474,None,None,None,,,,,,,15,21,female,15,2022_May_09_1413,Partial repeat,2021.2.3,59.89896219118593,
8,1,0,1,3,3,1,2,1,1,1,0,1,0,0,0,132,132,132,,,,,,,,,,,,,,,,,,,,,,,,,,,,,,15,21,female,15,2022_May_09_1413,Partial repeat,2021.2.3,59.89896219118593,
5,4,0,1,2,2,1,2,1,1,1,0,1,0,0,0,133,133,133,0,0,0,0,,,,,,,1105.640795899555,None,1105.9488478992134,None,1106.8297785986215,None,s,1,0.575560700148344,1106.8297785986215,None,None,None,,,,,,,15,21,female,15,2022_May_09_1413,Partial repeat,2021.2.3,59.89896219118593,
5,4,0,1,2,2,1,2,1,1,1,0,1,0,0,0,133,133,133,1,0,1,0,,,,,,,,,1107.4331824984401,None,1108.449057098478,None,s,1,0.5642614997923374,1108.449057098478,None,None,None,,,,,,,15,21,female,15,2022_May_09_1413,Partial repeat,2021.2.3,59.89896219118593,
5,4,0,1,2,2,1,2,1,1,1,0,1,0,0,0,133,133,133,,,,,,,,,,,,,,,,,,,,,,,,,,,,,,15,21,female,15,2022_May_09_1413,Partial repeat,2021.2.3,59.89896219118593,
6,5,0,1,2,3,1,2,0,1,0,0,0,0,0,0,134,134,134,0,0,0,0,,,,,,,1109.0338777992874,None,1109.3387485984713,None,1110.1192780993879,None,l,1,0.6780430004000664,1110.1192780993879,None,None,None,,,,,,,15,21,female,15,2022_May_09_1413,Partial repeat,2021.2.3,59.89896219118593,
6,5,0,1,2,3,1,2,0,1,0,0,0,0,0,0,134,134,134,1,0,1,0,,,,,,,,,1110.812327299267,None,1111.7056296989322,None,s,1,0.9797747004777193,1111.7056296989322,None,None,None,,,,,,,15,21,female,15,2022_May_09_1413,Partial repeat,2021.2.3,59.89896219118593,
6,5,0,1,2,3,1,2,0,1,0,0,0,0,0,0,134,134,134,,,,,,,,,,,,,,,,,,,,,,,,,,,,,,15,21,female,15,2022_May_09_1413,Partial repeat,2021.2.3,59.89896219118593,
8,6,0,1,2,2,2,1,0,0,1,0,1,0,0,0,135,135,135,0,0,0,0,,,,,,,1112.6990535985678,None,1113.212904099375,None,1113.9768429994583,None,l,1,0.8444907013326883,1113.9768429994583,None,None,None,,,,,,,15,21,female,15,2022_May_09_1413,Partial repeat,2021.2.3,59.89896219118593,
8,6,0,1,2,2,2,1,0,0,1,0,1,0,0,0,135,135,135,1,0,1,0,,,,,,,,,1114.8355121985078,None,1115.8469444997609,None,l,1,0.5023033991456032,1115.8469444997609,None,None,None,,,,,,,15,21,female,15,2022_May_09_1413,Partial repeat,2021.2.3,59.89896219118593,
8,6,0,1,2,2,2,1,0,0,1,0,1,0,0,0,135,135,135,,,,,,,,,,,,,,,,,,,,,,,,,,,,,,15,21,female,15,2022_May_09_1413,Partial repeat,2021.2.3,59.89896219118593,
5,2,0,1,2,3,2,2,0,0,0,1,1,0,0,0,136,136,136,0,0,0,0,,,,,,,1116.3687519989908,None,1116.6362138986588,None,1117.5668324995786,None,l,1,0.5424715001136065,1117.5668324995786,None,None,None,,,,,,,15,21,female,15,2022_May_09_1413,Partial repeat,2021.2.3,59.89896219118593,
5,2,0,1,2,3,2,2,0,0,0,1,1,0,0,0,136,136,136,1,0,1,0,,,,,,,,,1118.1275478992611,None,1118.8867353983223,None,l,1,0.5905431993305683,1118.8867353983223,None,None,None,,,,,,,15,21,female,15,2022_May_09_1413,Partial repeat,2021.2.3,59.89896219118593,
5,2,0,1,2,3,2,2,0,0,0,1,1,0,0,0,136,136,136,,,,,,,,,,,,,,,,,,,,,,,,,,,,,,15,21,female,15,2022_May_09_1413,Partial repeat,2021.2.3,59.89896219118593,
1,2,0,1,3,3,1,1,1,0,1,1,0,0,0,0,137,137,137,0,0,0,0,,,,,,,1119.4984350986779,None,1119.976156398654,None,1120.806451300159,None,s,1,0.6308510005474091,1120.806451300159,None,None,None,,,,,,,15,21,female,15,2022_May_09_1413,Partial repeat,2021.2.3,59.89896219118593,
1,2,0,1,3,3,1,1,1,0,1,1,0,0,0,0,137,137,137,1,0,1,0,,,,,,,,,1121.4547426998615,None,1122.3106105998158,None,s,0,0.4147407002747059,1122.3106105998158,None,1122.7466182988137,None,,,,,,,15,21,female,15,2022_May_09_1413,Partial repeat,2021.2.3,59.89896219118593,
1,2,0,1,3,3,1,1,1,0,1,1,0,0,0,0,137,137,137,,,,,,,,,,,,,,,,,,,,,,,,,,,,,,15,21,female,15,2022_May_09_1413,Partial repeat,2021.2.3,59.89896219118593,
4,5,0,1,2,2,1,1,0,1,1,1,0,0,0,0,138,138,138,0,0,0,0,,,,,,,1123.2489759996533,None,1123.3492479994893,None,1124.2965933997184,None,l,1,0.7407115995883942,1124.2965933997184,None,None,None,,,,,,,15,21,female,15,2022_May_09_1413,Partial repeat,2021.2.3,59.89896219118593,
4,5,0,1,2,2,1,1,0,1,1,1,0,0,0,0,138,138,138,1,0,1,0,,,,,,,,,1125.051562299952,None,1126.0164751000702,None,s,1,0.7168258000165224,1126.0164751000702,None,None,None,,,,,,,15,21,female,15,2022_May_09_1413,Partial repeat,2021.2.3,59.89896219118593,
4,5,0,1,2,2,1,1,0,1,1,1,0,0,0,0,138,138,138,,,,,,,,,,,,,,,,,,,,,,,,,,,,,,15,21,female,15,2022_May_09_1413,Partial repeat,2021.2.3,59.89896219118593,
3,3,0,1,2,3,2,2,1,1,0,1,1,0,0,0,139,139,139,0,0,0,0,,,,,,,1126.7522243000567,None,1127.323669699952,None,1128.3212155997753,None,s,1,0.6761333011090755,1128.3212155997753,None,None,None,,,,,,,15,21,female,15,2022_May_09_1413,Partial repeat,2021.2.3,59.89896219118593,
3,3,0,1,2,3,2,2,1,1,0,1,1,0,0,0,139,139,139,1,0,1,0,,,,,,,,,1129.010792799294,None,1129.7741701994091,None,s,1,0.49518810026347637,1129.7741701994091,None,None,None,,,,,,,15,21,female,15,2022_May_09_1413,Partial repeat,2021.2.3,59.89896219118593,
3,3,0,1,2,3,2,2,1,1,0,1,1,0,0,0,139,139,139,,,,,,,,,,,,,,,,,,,,,,,,,,,,,,15,21,female,15,2022_May_09_1413,Partial repeat,2021.2.3,59.89896219118593,
6,4,0,1,2,2,2,2,1,0,1,1,0,0,0,0,140,140,140,0,0,0,0,,,,,,,1130.2796192988753,None,1130.9307665992528,None,1131.6944273989648,None,s,1,0.6068543009459972,1131.6944273989648,None,None,None,,,,,,,15,21,female,15,2022_May_09_1413,Partial repeat,2021.2.3,59.89896219118593,
6,4,0,1,2,2,2,2,1,0,1,1,0,0,0,0,140,140,140,1,0,1,0,,,,,,,,,1132.329313499853,None,1133.2974613998085,None,l,1,0.8837618995457888,1133.2974613998085,None,None,None,,,,,,,15,21,female,15,2022_May_09_1413,Partial repeat,2021.2.3,59.89896219118593,
6,4,0,1,2,2,2,2,1,0,1,1,0,0,0,0,140,140,140,,,,,,,,,,,,,,,,,,,,,,,,,,,,,,15,21,female,15,2022_May_09_1413,Partial repeat,2021.2.3,59.89896219118593,
6,2,0,1,2,3,1,1,0,0,0,1,1,0,0,0,141,141,141,0,0,0,0,,,,,,,1134.2029046993703,None,1134.470981899649,None,1135.335269799456,None,l,1,0.622163699939847,1135.335269799456,None,None,None,,,,,,,15,21,female,15,2022_May_09_1413,Partial repeat,2021.2.3,59.89896219118593,
6,2,0,1,2,3,1,1,0,0,0,1,1,0,0,0,141,141,141,1,0,1,0,,,,,,,,,1135.9673999994993,None,1136.8210923988372,None,l,1,0.7922074999660254,1136.8210923988372,None,None,None,,,,,,,15,21,female,15,2022_May_09_1413,Partial repeat,2021.2.3,59.89896219118593,
6,2,0,1,2,3,1,1,0,0,0,1,1,0,0,0,141,141,141,,,,,,,,,,,,,,,,,,,,,,,,,,,,,,15,21,female,15,2022_May_09_1413,Partial repeat,2021.2.3,59.89896219118593,
8,5,0,1,2,3,1,2,1,1,0,0,1,0,0,0,142,142,142,0,0,0,0,,,,,,,1137.6400121990591,None,1139.4473186992109,None,1140.3948518987745,None,s,1,0.8345241006463766,1140.3948518987745,None,None,None,,,,,,,15,21,female,15,2022_May_09_1413,Partial repeat,2021.2.3,59.89896219118593,
8,5,0,1,2,3,1,2,1,1,0,0,1,0,0,0,142,142,142,1,0,1,0,,,,,,,,,1141.2526734992862,None,1142.131498299539,None,s,1,0.44982950016856194,1142.131498299539,None,None,None,,,,,,,15,21,female,15,2022_May_09_1413,Partial repeat,2021.2.3,59.89896219118593,
8,5,0,1,2,3,1,2,1,1,0,0,1,0,0,0,142,142,142,,,,,,,,,,,,,,,,,,,,,,,,,,,,,,15,21,female,15,2022_May_09_1413,Partial repeat,2021.2.3,59.89896219118593,
3,2,0,1,2,3,2,2,1,0,0,1,0,0,0,0,143,143,143,0,0,0,0,,,,,,,1142.591939099133,None,1143.0376054998487,None,1143.8682121001184,None,s,1,0.6170947998762131,1143.8682121001184,None,None,None,,,,,,,15,21,female,15,2022_May_09_1413,Partial repeat,2021.2.3,59.89896219118593,
3,2,0,1,2,3,2,2,1,0,0,1,0,0,0,0,143,143,143,1,0,1,0,,,,,,,,,1144.513765098527,None,1145.4208744000643,None,l,1,0.6083886995911598,1145.4208744000643,None,None,None,,,,,,,15,21,female,15,2022_May_09_1413,Partial repeat,2021.2.3,59.89896219118593,
3,2,0,1,2,3,2,2,1,0,0,1,0,0,0,0,143,143,143,,,,,,,,,,,,,,,,,,,,,,,,,,,,,,15,21,female,15,2022_May_09_1413,Partial repeat,2021.2.3,59.89896219118593,
3,7,0,1,3,2,2,2,0,0,0,1,1,0,0,0,144,144,144,0,0,0,0,,,,,,,1146.050518900156,None,1146.410880498588,None,1147.4084708988667,None,l,1,0.7328156996518373,1147.4084708988667,None,None,None,,,,,,,15,21,female,15,2022_May_09_1413,Partial repeat,2021.2.3,59.89896219118593,
3,7,0,1,3,2,2,2,0,0,0,1,1,0,0,0,144,144,144,1,0,1,0,,,,,,,,,1148.16402320005,None,1149.0115034990013,None,l,1,0.521866999566555,1149.0115034990013,None,None,None,,,,,,,15,21,female,15,2022_May_09_1413,Partial repeat,2021.2.3,59.89896219118593,
3,7,0,1,3,2,2,2,0,0,0,1,1,0,0,0,144,144,144,,,,,,,,,,,,,,,,,,,,,,,,,,,,,,15,21,female,15,2022_May_09_1413,Partial repeat,2021.2.3,59.89896219118593,
4,7,0,1,3,2,1,2,1,0,0,0,0,0,0,0,145,145,145,0,0,0,0,,,,,,,1149.5544236991554,None,1149.9177113994956,None,1150.6647552996874,None,s,1,0.5726961996406317,1150.6647552996874,None,None,None,,,,,,,15,21,female,15,2022_May_09_1413,Partial repeat,2021.2.3,59.89896219118593,
4,7,0,1,3,2,1,2,1,0,0,0,0,0,0,0,145,145,145,1,0,1,0,,,,,,,,,1151.248312998563,None,1152.2010965999216,None,l,1,0.636250801384449,1152.2010965999216,None,None,None,,,,,,,15,21,female,15,2022_May_09_1413,Partial repeat,2021.2.3,59.89896219118593,
4,7,0,1,3,2,1,2,1,0,0,0,0,0,0,0,145,145,145,,,,,,,,,,,,,,,,,,,,,,,,,,,,,,15,21,female,15,2022_May_09_1413,Partial repeat,2021.2.3,59.89896219118593,
7,4,0,1,3,3,2,1,0,0,1,0,1,0,0,0,146,146,146,0,0,0,0,,,,,,,1152.8482022993267,None,1153.3076076991856,None,1154.3216338995844,None,l,1,0.6756754983216524,1154.3216338995844,None,None,None,,,,,,,15,21,female,15,2022_May_09_1413,Partial repeat,2021.2.3,59.89896219118593,
7,4,0,1,3,3,2,1,0,0,1,0,1,0,0,0,146,146,146,1,0,1,0,,,,,,,,,1155.009294198826,None,1155.8247416000813,None,l,1,1.4125529993325472,1155.8247416000813,None,None,None,,,,,,,15,21,female,15,2022_May_09_1413,Partial repeat,2021.2.3,59.89896219118593,
7,4,0,1,3,3,2,1,0,0,1,0,1,0,0,0,146,146,146,,,,,,,,,,,,,,,,,,,,,,,,,,,,,,15,21,female,15,2022_May_09_1413,Partial repeat,2021.2.3,59.89896219118593,
2,2,0,1,3,2,2,1,0,1,0,0,0,0,0,0,147,147,147,0,0,0,0,,,,,,,1157.2678199987859,None,1157.7328921984881,None,1158.6969425994903,None,l,1,0.6123417001217604,1158.6969425994903,None,None,None,,,,,,,15,21,female,15,2022_May_09_1413,Partial repeat,2021.2.3,59.89896219118593,
2,2,0,1,3,2,2,1,0,1,0,0,0,0,0,0,147,147,147,1,0,1,0,,,,,,,,,1159.329938000068,None,1160.1496735997498,None,s,1,0.5757313016802073,1160.1496735997498,None,None,None,,,,,,,15,21,female,15,2022_May_09_1413,Partial repeat,2021.2.3,59.89896219118593,
2,2,0,1,3,2,2,1,0,1,0,0,0,0,0,0,147,147,147,,,,,,,,,,,,,,,,,,,,,,,,,,,,,,15,21,female,15,2022_May_09_1413,Partial repeat,2021.2.3,59.89896219118593,
1,4,0,1,3,3,2,2,1,0,1,1,0,0,0,0,148,148,148,0,0,0,0,,,,,,,1160.7388978991657,None,1161.1895840987563,None,1161.9870445989072,None,l,0,0.73021399974823,1161.9870445989072,None,1162.7429259996861,None,,,,,,,15,21,female,15,2022_May_09_1413,Partial repeat,2021.2.3,59.89896219118593,
1,4,0,1,3,3,2,2,1,0,1,1,0,0,0,0,148,148,148,1,0,1,0,,,,,,,,,1163.2434716988355,None,1164.057368999347,None,l,1,0.7158760987222195,1164.057368999347,None,None,None,,,,,,,15,21,female,15,2022_May_09_1413,Partial repeat,2021.2.3,59.89896219118593,
1,4,0,1,3,3,2,2,1,0,1,1,0,0,0,0,148,148,148,,,,,,,,,,,,,,,,,,,,,,,,,,,,,,15,21,female,15,2022_May_09_1413,Partial repeat,2021.2.3,59.89896219118593,
1,3,0,1,3,3,1,1,0,0,1,1,1,0,0,0,149,149,149,0,0,0,0,,,,,,,1164.7896438986063,None,1165.06375749968,None,1165.961304899305,None,l,1,0.6359443999826908,1165.961304899305,None,None,None,,,,,,,15,21,female,15,2022_May_09_1413,Partial repeat,2021.2.3,59.89896219118593,
1,3,0,1,3,3,1,1,0,0,1,1,1,0,0,0,149,149,149,1,0,1,0,,,,,,,,,1166.611087899655,None,1167.5476968996227,None,l,1,0.5216508992016315,1167.5476968996227,None,None,None,,,,,,,15,21,female,15,2022_May_09_1413,Partial repeat,2021.2.3,59.89896219118593,
1,3,0,1,3,3,1,1,0,0,1,1,1,0,0,0,149,149,149,,,,,,,,,,,,,,,,,,,,,,,,,,,,,,15,21,female,15,2022_May_09_1413,Partial repeat,2021.2.3,59.89896219118593,
6,6,0,1,3,3,1,2,1,0,1,0,0,0,0,0,150,150,150,0,0,0,0,,,,,,,1168.094088198617,None,1168.9547350984067,None,1169.9686675984412,None,s,1,0.7087239008396864,1169.9686675984412,None,None,None,,,,,,,15,21,female,15,2022_May_09_1413,Partial repeat,2021.2.3,59.89896219118593,
6,6,0,1,3,3,1,2,1,0,1,0,0,0,0,0,150,150,150,1,0,1,0,,,,,,,,,1170.7057628985494,None,1171.672535199672,None,l,1,0.6047369986772537,1171.672535199672,None,None,None,,,,,,,15,21,female,15,2022_May_09_1413,Partial repeat,2021.2.3,59.89896219118593,
6,6,0,1,3,3,1,2,1,0,1,0,0,0,0,0,150,150,150,,,,,,,,,,,,,,,,,,,,,,,,,,,,,,15,21,female,15,2022_May_09_1413,Partial repeat,2021.2.3,59.89896219118593,
