prime_tar_pos,probe_tar_pos,dimension,tar_color,prime_dist_color,probe_dist_color,prime_dist_shape,probe_dist_shape,prime_tar_dot_pos,probe_tar_dot_pos,col_rep,shape_rep,resp_rep,pos_fixed,sparse,MainLoop.thisRepN,MainLoop.thisTrialN,MainLoop.thisN,MainLoop.thisIndex,PrimeProbe.thisRepN,PrimeProbe.thisTrialN,PrimeProbe.thisN,PrimeProbe.thisIndex,Instruction.started,Instruction.stopped,instruction_key.keys,instruction_key.rt,instruction_key.started,instruction_key.stopped,PairStartText.started,PairStartText.stopped,FixCross.started,FixCross.stopped,SearchFixCross.started,SearchFixCross.stopped,key_resp.keys,key_resp.corr,key_resp.rt,key_resp.started,key_resp.stopped,feedback_text.started,feedback_text.stopped,text_finish.started,text_finish.stopped,finish_key.keys,finish_key.rt,finish_key.started,finish_key.stopped,participant,age,gender,group,date,expName,psychopyVersion,frameRate,
,,,,,,,,,,,,,,,,,,,,,,,655.2320461999625,None,space,45.24875379912555,655.2320461999625,None,,,,,,,,,,,,,,,,,,,,16,23,male,16,2022_May_09_1415,Partial repeat,2021.2.3,59.8389259270434,
8,8,0,1,2,3,2,1,1,0,0,0,0,1,0,0,0,0,0,0,0,0,0,,,,,,,700.6043360996991,None,703.3356243986636,None,704.2054461985826,None,s,1,0.771230299025774,704.2054461985826,None,None,None,,,,,,,16,23,male,16,2022_May_09_1415,Partial repeat,2021.2.3,59.8389259270434,
8,8,0,1,2,3,2,1,1,0,0,0,0,1,0,0,0,0,0,1,0,1,0,,,,,,,,,704.9884168989956,None,706.0028712991625,None,l,1,0.6936534009873867,706.0028712991625,None,None,None,,,,,,,16,23,male,16,2022_May_09_1415,Partial repeat,2021.2.3,59.8389259270434,
8,8,0,1,2,3,2,1,1,0,0,0,0,1,0,0,0,0,0,,,,,,,,,,,,,,,,,,,,,,,,,,,,,,16,23,male,16,2022_May_09_1415,Partial repeat,2021.2.3,59.8389259270434,
8,8,0,1,3,3,2,2,0,0,1,1,1,1,0,0,1,1,1,0,0,0,0,,,,,,,706.7112194001675,None,708.495733300224,None,709.3094677999616,None,l,1,0.6350749991834164,709.3094677999616,None,None,None,,,,,,,16,23,male,16,2022_May_09_1415,Partial repeat,2021.2.3,59.8389259270434,
8,8,0,1,3,3,2,2,0,0,1,1,1,1,0,0,1,1,1,1,0,1,0,,,,,,,,,709.9706209003925,None,710.7129378002137,None,l,1,0.5917077008634806,710.7129378002137,None,None,None,,,,,,,16,23,male,16,2022_May_09_1415,Partial repeat,2021.2.3,59.8389259270434,
8,8,0,1,3,3,2,2,0,0,1,1,1,1,0,0,1,1,1,,,,,,,,,,,,,,,,,,,,,,,,,,,,,,16,23,male,16,2022_May_09_1415,Partial repeat,2021.2.3,59.8389259270434,
8,8,0,1,2,2,2,2,1,0,1,1,0,1,0,0,2,2,2,0,0,0,0,,,,,,,711.3155643995851,None,712.3198082000017,None,713.1676339991391,None,s,1,0.5608978997915983,713.1676339991391,None,None,None,,,,,,,16,23,male,16,2022_May_09_1415,Partial repeat,2021.2.3,59.8389259270434,
8,8,0,1,2,2,2,2,1,0,1,1,0,1,0,0,2,2,2,1,0,1,0,,,,,,,,,713.7441345993429,None,714.7030274998397,None,l,1,0.8495032005012035,714.7030274998397,None,None,None,,,,,,,16,23,male,16,2022_May_09_1415,Partial repeat,2021.2.3,59.8389259270434,
8,8,0,1,2,2,2,2,1,0,1,1,0,1,0,0,2,2,2,,,,,,,,,,,,,,,,,,,,,,,,,,,,,,16,23,male,16,2022_May_09_1415,Partial repeat,2021.2.3,59.8389259270434,
8,8,0,1,3,3,2,1,1,1,1,0,1,1,0,0,3,3,3,0,0,0,0,,,,,,,715.5802040994167,None,716.9120702985674,None,717.8427050001919,None,s,1,0.5738337002694607,717.8427050001919,None,None,None,,,,,,,16,23,male,16,2022_May_09_1415,Partial repeat,2021.2.3,59.8389259270434,
8,8,0,1,3,3,2,1,1,1,1,0,1,1,0,0,3,3,3,1,0,1,0,,,,,,,,,718.4388462994248,None,719.2619356997311,None,s,1,0.522589199244976,719.2619356997311,None,None,None,,,,,,,16,23,male,16,2022_May_09_1415,Partial repeat,2021.2.3,59.8389259270434,
8,8,0,1,3,3,2,1,1,1,1,0,1,1,0,0,3,3,3,,,,,,,,,,,,,,,,,,,,,,,,,,,,,,16,23,male,16,2022_May_09_1415,Partial repeat,2021.2.3,59.8389259270434,
8,8,0,1,3,2,1,2,0,1,0,0,0,1,0,0,4,4,4,0,0,0,0,,,,,,,719.80457219854,None,721.9218335002661,None,722.685480799526,None,l,1,0.5390429999679327,722.685480799526,None,None,None,,,,,,,16,23,male,16,2022_May_09_1415,Partial repeat,2021.2.3,59.8389259270434,
8,8,0,1,3,2,1,2,0,1,0,0,0,1,0,0,4,4,4,1,0,1,0,,,,,,,,,723.2424209993333,None,723.9710946995765,None,s,1,0.6614337004721165,723.9710946995765,None,None,None,,,,,,,16,23,male,16,2022_May_09_1415,Partial repeat,2021.2.3,59.8389259270434,
8,8,0,1,3,2,1,2,0,1,0,0,0,1,0,0,4,4,4,,,,,,,,,,,,,,,,,,,,,,,,,,,,,,16,23,male,16,2022_May_09_1415,Partial repeat,2021.2.3,59.8389259270434,
8,8,0,1,2,2,2,1,1,0,1,0,0,1,0,0,5,5,5,0,0,0,0,,,,,,,724.659845398739,None,725.7459396999329,None,726.5262135993689,None,s,1,0.514308899641037,726.5262135993689,None,None,None,,,,,,,16,23,male,16,2022_May_09_1415,Partial repeat,2021.2.3,59.8389259270434,
8,8,0,1,2,2,2,1,1,0,1,0,0,1,0,0,5,5,5,1,0,1,0,,,,,,,,,727.058429999277,None,727.9457200989127,None,l,1,0.6708365008234978,727.9457200989127,None,None,None,,,,,,,16,23,male,16,2022_May_09_1415,Partial repeat,2021.2.3,59.8389259270434,
8,8,0,1,2,2,2,1,1,0,1,0,0,1,0,0,5,5,5,,,,,,,,,,,,,,,,,,,,,,,,,,,,,,16,23,male,16,2022_May_09_1415,Partial repeat,2021.2.3,59.8389259270434,
8,8,0,1,2,3,2,2,1,0,0,1,0,1,0,0,6,6,6,0,0,0,0,,,,,,,728.6313653998077,None,729.4030373003334,None,730.2500841002911,None,s,1,0.4624934997409582,730.2500841002911,None,None,None,,,,,,,16,23,male,16,2022_May_09_1415,Partial repeat,2021.2.3,59.8389259270434,
8,8,0,1,2,3,2,2,1,0,0,1,0,1,0,0,6,6,6,1,0,1,0,,,,,,,,,730.7403041999787,None,731.5367457997054,None,l,1,0.5997972991317511,731.5367457997054,None,None,None,,,,,,,16,23,male,16,2022_May_09_1415,Partial repeat,2021.2.3,59.8389259270434,
8,8,0,1,2,3,2,2,1,0,0,1,0,1,0,0,6,6,6,,,,,,,,,,,,,,,,,,,,,,,,,,,,,,16,23,male,16,2022_May_09_1415,Partial repeat,2021.2.3,59.8389259270434,
8,8,0,1,3,2,1,1,1,0,0,1,0,1,0,0,7,7,7,0,0,0,0,,,,,,,732.1619049999863,None,733.6780466996133,None,734.625304300338,None,l,0,0.5992248002439737,734.625304300338,None,735.2436910998076,None,,,,,,,16,23,male,16,2022_May_09_1415,Partial repeat,2021.2.3,59.8389259270434,
8,8,0,1,3,2,1,1,1,0,0,1,0,1,0,0,7,7,7,1,0,1,0,,,,,,,,,735.7487480994314,None,736.7460182998329,None,l,1,0.6305183004587889,736.7460182998329,None,None,None,,,,,,,16,23,male,16,2022_May_09_1415,Partial repeat,2021.2.3,59.8389259270434,
8,8,0,1,3,2,1,1,1,0,0,1,0,1,0,0,7,7,7,,,,,,,,,,,,,,,,,,,,,,,,,,,,,,16,23,male,16,2022_May_09_1415,Partial repeat,2021.2.3,59.8389259270434,
8,8,0,1,3,2,2,2,1,0,0,1,0,1,0,0,8,8,8,0,0,0,0,,,,,,,737.3912239000201,None,739.4058595001698,None,740.235999500379,None,s,1,0.48453519865870476,740.235999500379,None,None,None,,,,,,,16,23,male,16,2022_May_09_1415,Partial repeat,2021.2.3,59.8389259270434,
8,8,0,1,3,2,2,2,1,0,0,1,0,1,0,0,8,8,8,1,0,1,0,,,,,,,,,740.7491512987763,None,741.539145398885,None,l,1,0.7973823007196188,741.539145398885,None,None,None,,,,,,,16,23,male,16,2022_May_09_1415,Partial repeat,2021.2.3,59.8389259270434,
8,8,0,1,3,2,2,2,1,0,0,1,0,1,0,0,8,8,8,,,,,,,,,,,,,,,,,,,,,,,,,,,,,,16,23,male,16,2022_May_09_1415,Partial repeat,2021.2.3,59.8389259270434,
8,8,0,1,2,2,2,1,1,1,1,0,1,1,0,0,9,9,9,0,0,0,0,,,,,,,742.3552131988108,None,744.4656654987484,None,745.2460639998317,None,l,0,0.618452301248908,745.2460639998317,None,745.886764800176,None,,,,,,,16,23,male,16,2022_May_09_1415,Partial repeat,2021.2.3,59.8389259270434,
8,8,0,1,2,2,2,1,1,1,1,0,1,1,0,0,9,9,9,1,0,1,0,,,,,,,,,746.386005198583,None,747.3842060994357,None,s,1,0.5763225015252829,747.3842060994357,None,None,None,,,,,,,16,23,male,16,2022_May_09_1415,Partial repeat,2021.2.3,59.8389259270434,
8,8,0,1,2,2,2,1,1,1,1,0,1,1,0,0,9,9,9,,,,,,,,,,,,,,,,,,,,,,,,,,,,,,16,23,male,16,2022_May_09_1415,Partial repeat,2021.2.3,59.8389259270434,
8,8,0,1,3,2,2,1,0,0,0,0,1,1,0,0,10,10,10,0,0,0,0,,,,,,,747.98975360021,None,748.6404883991927,None,749.5207919999957,None,l,1,0.5837348997592926,749.5207919999957,None,None,None,,,,,,,16,23,male,16,2022_May_09_1415,Partial repeat,2021.2.3,59.8389259270434,
8,8,0,1,3,2,2,1,0,0,0,0,1,1,0,0,10,10,10,1,0,1,0,,,,,,,,,750.126711498946,None,751.1072116997093,None,l,1,0.5813037995249033,751.1072116997093,None,None,None,,,,,,,16,23,male,16,2022_May_09_1415,Partial repeat,2021.2.3,59.8389259270434,
8,8,0,1,3,2,2,1,0,0,0,0,1,1,0,0,10,10,10,,,,,,,,,,,,,,,,,,,,,,,,,,,,,,16,23,male,16,2022_May_09_1415,Partial repeat,2021.2.3,59.8389259270434,
8,8,0,1,2,2,1,2,1,0,1,0,0,1,0,0,11,11,11,0,0,0,0,,,,,,,751.7071674987674,None,752.2308229990304,None,753.0442951992154,None,s,1,0.5402357000857592,753.0442951992154,None,None,None,,,,,,,16,23,male,16,2022_May_09_1415,Partial repeat,2021.2.3,59.8389259270434,
8,8,0,1,2,2,1,2,1,0,1,0,0,1,0,0,11,11,11,1,0,1,0,,,,,,,,,753.5973140001297,None,754.4805356990546,None,l,1,0.44800070114433765,754.4805356990546,None,None,None,,,,,,,16,23,male,16,2022_May_09_1415,Partial repeat,2021.2.3,59.8389259270434,
8,8,0,1,2,2,1,2,1,0,1,0,0,1,0,0,11,11,11,,,,,,,,,,,,,,,,,,,,,,,,,,,,,,16,23,male,16,2022_May_09_1415,Partial repeat,2021.2.3,59.8389259270434,
8,8,0,1,2,2,1,1,0,1,1,1,0,1,0,0,12,12,12,0,0,0,0,,,,,,,754.9557274989784,None,755.7543512992561,None,756.5677553992718,None,l,1,0.4487618003040552,756.5677553992718,None,None,None,,,,,,,16,23,male,16,2022_May_09_1415,Partial repeat,2021.2.3,59.8389259270434,
8,8,0,1,2,2,1,1,0,1,1,1,0,1,0,0,12,12,12,1,0,1,0,,,,,,,,,757.0351864993572,None,757.90447479859,None,s,1,0.344039399176836,757.90447479859,None,None,None,,,,,,,16,23,male,16,2022_May_09_1415,Partial repeat,2021.2.3,59.8389259270434,
8,8,0,1,2,2,1,1,0,1,1,1,0,1,0,0,12,12,12,,,,,,,,,,,,,,,,,,,,,,,,,,,,,,16,23,male,16,2022_May_09_1415,Partial repeat,2021.2.3,59.8389259270434,
8,8,0,1,3,3,2,1,0,1,1,0,0,1,0,0,13,13,13,0,0,0,0,,,,,,,758.2759117987007,None,758.9772654995322,None,759.7743180990219,None,l,1,0.5382486991584301,759.7743180990219,None,None,None,,,,,,,16,23,male,16,2022_May_09_1415,Partial repeat,2021.2.3,59.8389259270434,
8,8,0,1,3,3,2,1,0,1,1,0,0,1,0,0,13,13,13,1,0,1,0,,,,,,,,,760.3313411995769,None,761.1101564988494,None,s,1,0.362449299544096,761.1101564988494,None,None,None,,,,,,,16,23,male,16,2022_May_09_1415,Partial repeat,2021.2.3,59.8389259270434,
8,8,0,1,3,3,2,1,0,1,1,0,0,1,0,0,13,13,13,,,,,,,,,,,,,,,,,,,,,,,,,,,,,,16,23,male,16,2022_May_09_1415,Partial repeat,2021.2.3,59.8389259270434,
8,8,0,1,3,3,2,2,1,0,1,1,0,1,0,0,14,14,14,0,0,0,0,,,,,,,761.4835706986487,None,762.0499371998012,None,762.9804109986871,None,s,1,0.7561913002282381,762.9804109986871,None,None,None,,,,,,,16,23,male,16,2022_May_09_1415,Partial repeat,2021.2.3,59.8389259270434,
8,8,0,1,3,3,2,2,1,0,1,1,0,1,0,0,14,14,14,1,0,1,0,,,,,,,,,763.7458534985781,None,764.6507120989263,None,l,1,0.37387250177562237,764.6507120989263,None,None,None,,,,,,,16,23,male,16,2022_May_09_1415,Partial repeat,2021.2.3,59.8389259270434,
8,8,0,1,3,3,2,2,1,0,1,1,0,1,0,0,14,14,14,,,,,,,,,,,,,,,,,,,,,,,,,,,,,,16,23,male,16,2022_May_09_1415,Partial repeat,2021.2.3,59.8389259270434,
8,8,0,1,3,2,2,2,1,1,0,1,1,1,0,0,15,15,15,0,0,0,0,,,,,,,765.0419271998107,None,766.3249018993229,None,767.1718252003193,None,s,1,0.4608127009123564,767.1718252003193,None,None,None,,,,,,,16,23,male,16,2022_May_09_1415,Partial repeat,2021.2.3,59.8389259270434,
8,8,0,1,3,2,2,2,1,1,0,1,1,1,0,0,15,15,15,1,0,1,0,,,,,,,,,767.6426512002945,None,768.3743760995567,None,s,1,0.6821352988481522,768.3743760995567,None,None,None,,,,,,,16,23,male,16,2022_May_09_1415,Partial repeat,2021.2.3,59.8389259270434,
8,8,0,1,3,2,2,2,1,1,0,1,1,1,0,0,15,15,15,,,,,,,,,,,,,,,,,,,,,,,,,,,,,,16,23,male,16,2022_May_09_1415,Partial repeat,2021.2.3,59.8389259270434,
8,8,0,1,3,3,2,2,0,1,1,1,0,1,0,0,16,16,16,0,0,0,0,,,,,,,769.0776099003851,None,769.8317269999534,None,770.7122798990458,None,l,1,0.48825399950146675,770.7122798990458,None,None,None,,,,,,,16,23,male,16,2022_May_09_1415,Partial repeat,2021.2.3,59.8389259270434,
8,8,0,1,3,3,2,2,0,1,1,1,0,1,0,0,16,16,16,1,0,1,0,,,,,,,,,771.2268254999071,None,772.1481125000864,None,s,1,0.43642159923911095,772.1481125000864,None,None,None,,,,,,,16,23,male,16,2022_May_09_1415,Partial repeat,2021.2.3,59.8389259270434,
8,8,0,1,3,3,2,2,0,1,1,1,0,1,0,0,16,16,16,,,,,,,,,,,,,,,,,,,,,,,,,,,,,,16,23,male,16,2022_May_09_1415,Partial repeat,2021.2.3,59.8389259270434,
8,8,0,1,3,3,2,1,1,0,1,0,0,1,0,0,17,17,17,0,0,0,0,,,,,,,772.6039204001427,None,773.0879858992994,None,773.8683217000216,None,s,1,0.4922132007777691,773.8683217000216,None,None,None,,,,,,,16,23,male,16,2022_May_09_1415,Partial repeat,2021.2.3,59.8389259270434,
8,8,0,1,3,3,2,1,1,0,1,0,0,1,0,0,17,17,17,1,0,1,0,,,,,,,,,774.3796113003045,None,775.1873926986009,None,l,1,0.6291390992701054,775.1873926986009,None,None,None,,,,,,,16,23,male,16,2022_May_09_1415,Partial repeat,2021.2.3,59.8389259270434,
8,8,0,1,3,3,2,1,1,0,1,0,0,1,0,0,17,17,17,,,,,,,,,,,,,,,,,,,,,,,,,,,,,,16,23,male,16,2022_May_09_1415,Partial repeat,2021.2.3,59.8389259270434,
8,8,0,1,3,2,2,1,0,1,0,0,0,1,0,0,18,18,18,0,0,0,0,,,,,,,775.8339070994407,None,777.1626899000257,None,778.0429174993187,None,l,1,0.5176095999777317,778.0429174993187,None,None,None,,,,,,,16,23,male,16,2022_May_09_1415,Partial repeat,2021.2.3,59.8389259270434,
8,8,0,1,3,2,2,1,0,1,0,0,0,1,0,0,18,18,18,1,0,1,0,,,,,,,,,778.5771051999182,None,779.562594698742,None,s,1,0.4620228987187147,779.562594698742,None,None,None,,,,,,,16,23,male,16,2022_May_09_1415,Partial repeat,2021.2.3,59.8389259270434,
8,8,0,1,3,2,2,1,0,1,0,0,0,1,0,0,18,18,18,,,,,,,,,,,,,,,,,,,,,,,,,,,,,,16,23,male,16,2022_May_09_1415,Partial repeat,2021.2.3,59.8389259270434,
8,8,0,1,2,3,2,2,1,1,0,1,1,1,0,0,19,19,19,0,0,0,0,,,,,,,780.0363957993686,None,780.6360563002527,None,781.6500349994749,None,s,1,0.5744947008788586,781.6500349994749,None,None,None,,,,,,,16,23,male,16,2022_May_09_1415,Partial repeat,2021.2.3,59.8389259270434,
8,8,0,1,2,3,2,2,1,1,0,1,1,1,0,0,19,19,19,1,0,1,0,,,,,,,,,782.2486151997,None,783.2032853998244,None,s,1,0.5652438998222351,783.2032853998244,None,None,None,,,,,,,16,23,male,16,2022_May_09_1415,Partial repeat,2021.2.3,59.8389259270434,
8,8,0,1,2,3,2,2,1,1,0,1,1,1,0,0,19,19,19,,,,,,,,,,,,,,,,,,,,,,,,,,,,,,16,23,male,16,2022_May_09_1415,Partial repeat,2021.2.3,59.8389259270434,
8,8,0,1,3,3,2,1,0,0,1,0,1,1,0,0,20,20,20,0,0,0,0,,,,,,,783.7859798986465,None,784.3767168987542,None,785.1904367990792,None,l,1,0.5141137987375259,785.1904367990792,None,None,None,,,,,,,16,23,male,16,2022_May_09_1415,Partial repeat,2021.2.3,59.8389259270434,
8,8,0,1,3,3,2,1,0,0,1,0,1,1,0,0,20,20,20,1,0,1,0,,,,,,,,,785.7133066989481,None,786.5930076986551,None,l,1,0.3435019999742508,786.5930076986551,None,None,None,,,,,,,16,23,male,16,2022_May_09_1415,Partial repeat,2021.2.3,59.8389259270434,
8,8,0,1,3,3,2,1,0,0,1,0,1,1,0,0,20,20,20,,,,,,,,,,,,,,,,,,,,,,,,,,,,,,16,23,male,16,2022_May_09_1415,Partial repeat,2021.2.3,59.8389259270434,
8,8,0,1,3,3,1,1,0,0,1,1,1,1,0,0,21,21,21,0,0,0,0,,,,,,,786.9636573996395,None,787.5328513998538,None,788.3966278992593,None,l,1,0.40387379936873913,788.3966278992593,None,None,None,,,,,,,16,23,male,16,2022_May_09_1415,Partial repeat,2021.2.3,59.8389259270434,
8,8,0,1,3,3,1,1,0,0,1,1,1,1,0,0,21,21,21,1,0,1,0,,,,,,,,,788.827893499285,None,789.8492299988866,None,l,1,0.35927060060203075,789.8492299988866,None,None,None,,,,,,,16,23,male,16,2022_May_09_1415,Partial repeat,2021.2.3,59.8389259270434,
8,8,0,1,3,3,1,1,0,0,1,1,1,1,0,0,21,21,21,,,,,,,,,,,,,,,,,,,,,,,,,,,,,,16,23,male,16,2022_May_09_1415,Partial repeat,2021.2.3,59.8389259270434,
8,8,0,1,3,2,2,2,0,0,0,1,1,1,0,0,22,22,22,0,0,0,0,,,,,,,790.239119598642,None,790.7223806995898,None,791.4861068986356,None,l,1,0.4904219005256891,791.4861068986356,None,None,None,,,,,,,16,23,male,16,2022_May_09_1415,Partial repeat,2021.2.3,59.8389259270434,
8,8,0,1,3,2,2,2,0,0,0,1,1,1,0,0,22,22,22,1,0,1,0,,,,,,,,,791.9993348997086,None,792.8216554000974,None,l,1,0.3868875000625849,792.8216554000974,None,None,None,,,,,,,16,23,male,16,2022_May_09_1415,Partial repeat,2021.2.3,59.8389259270434,
8,8,0,1,3,2,2,2,0,0,0,1,1,1,0,0,22,22,22,,,,,,,,,,,,,,,,,,,,,,,,,,,,,,16,23,male,16,2022_May_09_1415,Partial repeat,2021.2.3,59.8389259270434,
8,8,0,1,2,2,1,2,0,0,1,0,1,1,0,0,23,23,23,0,0,0,0,,,,,,,793.2359458003193,None,793.6614062003791,None,794.4753472991288,None,l,1,0.40518829971551895,794.4753472991288,None,None,None,,,,,,,16,23,male,16,2022_May_09_1415,Partial repeat,2021.2.3,59.8389259270434,
8,8,0,1,2,2,1,2,0,0,1,0,1,1,0,0,23,23,23,1,0,1,0,,,,,,,,,794.906672200188,None,795.8609557989985,None,l,1,0.32357440143823624,795.8609557989985,None,None,None,,,,,,,16,23,male,16,2022_May_09_1415,Partial repeat,2021.2.3,59.8389259270434,
8,8,0,1,2,2,1,2,0,0,1,0,1,1,0,0,23,23,23,,,,,,,,,,,,,,,,,,,,,,,,,,,,,,16,23,male,16,2022_May_09_1415,Partial repeat,2021.2.3,59.8389259270434,
8,8,0,1,3,3,1,1,1,1,1,1,1,1,0,0,24,24,24,0,0,0,0,,,,,,,796.2100434992462,None,796.6339012999088,None,797.415119599551,None,s,1,0.41741340048611164,797.415119599551,None,None,None,,,,,,,16,23,male,16,2022_May_09_1415,Partial repeat,2021.2.3,59.8389259270434,
8,8,0,1,3,3,1,1,1,1,1,1,1,1,0,0,24,24,24,1,0,1,0,,,,,,,,,797.8448893986642,None,798.7835326995701,None,s,1,0.3050338998436928,798.7835326995701,None,None,None,,,,,,,16,23,male,16,2022_May_09_1415,Partial repeat,2021.2.3,59.8389259270434,
8,8,0,1,3,3,1,1,1,1,1,1,1,1,0,0,24,24,24,,,,,,,,,,,,,,,,,,,,,,,,,,,,,,16,23,male,16,2022_May_09_1415,Partial repeat,2021.2.3,59.8389259270434,
8,8,0,1,2,2,2,2,0,1,1,1,0,1,0,0,25,25,25,0,0,0,0,,,,,,,799.1105483993888,None,799.5727840997279,None,800.4367161989212,None,l,1,0.7798167001456022,800.4367161989212,None,None,None,,,,,,,16,23,male,16,2022_May_09_1415,Partial repeat,2021.2.3,59.8389259270434,
8,8,0,1,2,2,2,2,0,1,1,1,0,1,0,0,25,25,25,1,0,1,0,,,,,,,,,801.2440986000001,None,802.1565696988255,None,s,1,0.42796630039811134,802.1565696988255,None,None,None,,,,,,,16,23,male,16,2022_May_09_1415,Partial repeat,2021.2.3,59.8389259270434,
8,8,0,1,2,2,2,2,0,1,1,1,0,1,0,0,25,25,25,,,,,,,,,,,,,,,,,,,,,,,,,,,,,,16,23,male,16,2022_May_09_1415,Partial repeat,2021.2.3,59.8389259270434,
8,8,0,1,2,3,1,1,1,1,0,1,1,1,0,0,26,26,26,0,0,0,0,,,,,,,802.6110641993582,None,803.3302531987429,None,804.1941927988082,None,s,1,0.4623312000185251,804.1941927988082,None,None,None,,,,,,,16,23,male,16,2022_May_09_1415,Partial repeat,2021.2.3,59.8389259270434,
8,8,0,1,2,3,1,1,1,1,0,1,1,1,0,0,26,26,26,1,0,1,0,,,,,,,,,804.6691789999604,None,805.4129402991384,None,s,1,0.4275742992758751,805.4129402991384,None,None,None,,,,,,,16,23,male,16,2022_May_09_1415,Partial repeat,2021.2.3,59.8389259270434,
8,8,0,1,2,3,1,1,1,1,0,1,1,1,0,0,26,26,26,,,,,,,,,,,,,,,,,,,,,,,,,,,,,,16,23,male,16,2022_May_09_1415,Partial repeat,2021.2.3,59.8389259270434,
8,8,0,1,3,3,1,1,0,1,1,1,0,1,0,0,27,27,27,0,0,0,0,,,,,,,805.8705917987972,None,806.6199954990298,None,807.4672634992748,None,l,1,0.4292686004191637,807.4672634992748,None,None,None,,,,,,,16,23,male,16,2022_May_09_1415,Partial repeat,2021.2.3,59.8389259270434,
8,8,0,1,3,3,1,1,0,1,1,1,0,1,0,0,27,27,27,1,0,1,0,,,,,,,,,807.9205679986626,None,808.6525285001844,None,s,1,0.3801735006272793,808.6525285001844,None,None,None,,,,,,,16,23,male,16,2022_May_09_1415,Partial repeat,2021.2.3,59.8389259270434,
8,8,0,1,3,3,1,1,0,1,1,1,0,1,0,0,27,27,27,,,,,,,,,,,,,,,,,,,,,,,,,,,,,,16,23,male,16,2022_May_09_1415,Partial repeat,2021.2.3,59.8389259270434,
8,8,0,1,2,3,1,2,0,0,0,0,1,1,0,0,28,28,28,0,0,0,0,,,,,,,809.0445284992456,None,809.559007300064,None,810.556312000379,None,l,1,0.44419299997389317,810.556312000379,None,None,None,,,,,,,16,23,male,16,2022_May_09_1415,Partial repeat,2021.2.3,59.8389259270434,
8,8,0,1,2,3,1,2,0,0,0,0,1,1,0,0,28,28,28,1,0,1,0,,,,,,,,,811.0252062994987,None,811.858746599406,None,l,1,0.3817836008965969,811.858746599406,None,None,None,,,,,,,16,23,male,16,2022_May_09_1415,Partial repeat,2021.2.3,59.8389259270434,
8,8,0,1,2,3,1,2,0,0,0,0,1,1,0,0,28,28,28,,,,,,,,,,,,,,,,,,,,,,,,,,,,,,16,23,male,16,2022_May_09_1415,Partial repeat,2021.2.3,59.8389259270434,
8,8,0,1,3,2,1,1,0,0,0,1,1,1,0,0,29,29,29,0,0,0,0,,,,,,,812.2679782994092,None,812.6984870992601,None,813.5956455990672,None,l,1,0.4928890001028776,813.5956455990672,None,None,None,,,,,,,16,23,male,16,2022_May_09_1415,Partial repeat,2021.2.3,59.8389259270434,
8,8,0,1,3,2,1,1,0,0,0,1,1,1,0,0,29,29,29,1,0,1,0,,,,,,,,,814.1063182987273,None,814.9987730998546,None,l,1,0.3537584003061056,814.9987730998546,None,None,None,,,,,,,16,23,male,16,2022_May_09_1415,Partial repeat,2021.2.3,59.8389259270434,
8,8,0,1,3,2,1,1,0,0,0,1,1,1,0,0,29,29,29,,,,,,,,,,,,,,,,,,,,,,,,,,,,,,16,23,male,16,2022_May_09_1415,Partial repeat,2021.2.3,59.8389259270434,
8,8,0,1,2,2,2,1,0,0,1,0,1,1,0,0,30,30,30,0,0,0,0,,,,,,,815.3697145991027,None,815.8211648985744,None,816.7014153990895,None,l,1,0.39512080140411854,816.7014153990895,None,None,None,,,,,,,16,23,male,16,2022_May_09_1415,Partial repeat,2021.2.3,59.8389259270434,
8,8,0,1,2,2,2,1,0,0,1,0,1,1,0,0,30,30,30,1,0,1,0,,,,,,,,,817.1089734993875,None,818.0210090987384,None,l,1,0.33956010080873966,818.0210090987384,None,None,None,,,,,,,16,23,male,16,2022_May_09_1415,Partial repeat,2021.2.3,59.8389259270434,
8,8,0,1,2,2,2,1,0,0,1,0,1,1,0,0,30,30,30,,,,,,,,,,,,,,,,,,,,,,,,,,,,,,16,23,male,16,2022_May_09_1415,Partial repeat,2021.2.3,59.8389259270434,
8,8,0,1,3,3,1,2,1,1,1,0,1,1,0,0,31,31,31,0,0,0,0,,,,,,,818.390931500122,None,818.9272154998034,None,819.6405923999846,None,s,1,0.4879859983921051,819.6405923999846,None,None,None,,,,,,,16,23,male,16,2022_May_09_1415,Partial repeat,2021.2.3,59.8389259270434,
8,8,0,1,3,3,1,2,1,1,1,0,1,1,0,0,31,31,31,1,0,1,0,,,,,,,,,820.1565415989608,None,821.093544298783,None,s,1,0.28299159929156303,821.093544298783,None,None,None,,,,,,,16,23,male,16,2022_May_09_1415,Partial repeat,2021.2.3,59.8389259270434,
8,8,0,1,3,3,1,2,1,1,1,0,1,1,0,0,31,31,31,,,,,,,,,,,,,,,,,,,,,,,,,,,,,,16,23,male,16,2022_May_09_1415,Partial repeat,2021.2.3,59.8389259270434,
8,8,0,1,3,2,1,2,1,0,0,0,0,1,0,0,32,32,32,0,0,0,0,,,,,,,821.3990780003369,None,821.8830257002264,None,822.8649038989097,None,s,1,0.34362639859318733,822.8649038989097,None,None,None,,,,,,,16,23,male,16,2022_May_09_1415,Partial repeat,2021.2.3,59.8389259270434,
8,8,0,1,3,2,1,2,1,0,0,0,0,1,0,0,32,32,32,1,0,1,0,,,,,,,,,823.2320389002562,None,824.1826658993959,None,l,1,0.3698686007410288,824.1826658993959,None,None,None,,,,,,,16,23,male,16,2022_May_09_1415,Partial repeat,2021.2.3,59.8389259270434,
8,8,0,1,3,2,1,2,1,0,0,0,0,1,0,0,32,32,32,,,,,,,,,,,,,,,,,,,,,,,,,,,,,,16,23,male,16,2022_May_09_1415,Partial repeat,2021.2.3,59.8389259270434,
8,8,0,1,2,3,1,1,1,0,0,1,0,1,0,0,33,33,33,0,0,0,0,,,,,,,824.5661075003445,None,825.172751000151,None,826.0700284987688,None,s,1,0.39449840039014816,826.0700284987688,None,None,None,,,,,,,16,23,male,16,2022_May_09_1415,Partial repeat,2021.2.3,59.8389259270434,
8,8,0,1,2,3,1,1,1,0,0,1,0,1,0,0,33,33,33,1,0,1,0,,,,,,,,,826.4790348988026,None,827.4223681986332,None,l,1,0.37014379911124706,827.4223681986332,None,None,None,,,,,,,16,23,male,16,2022_May_09_1415,Partial repeat,2021.2.3,59.8389259270434,
8,8,0,1,2,3,1,1,1,0,0,1,0,1,0,0,33,33,33,,,,,,,,,,,,,,,,,,,,,,,,,,,,,,16,23,male,16,2022_May_09_1415,Partial repeat,2021.2.3,59.8389259270434,
8,8,0,1,3,2,1,1,0,1,0,1,0,1,0,0,34,34,34,0,0,0,0,,,,,,,827.8138827998191,None,828.31218819879,None,829.2426050994545,None,l,1,0.41393009945750237,829.2426050994545,None,None,None,,,,,,,16,23,male,16,2022_May_09_1415,Partial repeat,2021.2.3,59.8389259270434,
8,8,0,1,3,2,1,1,0,1,0,1,0,1,0,0,34,34,34,1,0,1,0,,,,,,,,,829.6732952985913,None,830.428021799773,None,s,1,0.41254299879074097,830.428021799773,None,None,None,,,,,,,16,23,male,16,2022_May_09_1415,Partial repeat,2021.2.3,59.8389259270434,
8,8,0,1,3,2,1,1,0,1,0,1,0,1,0,0,34,34,34,,,,,,,,,,,,,,,,,,,,,,,,,,,,,,16,23,male,16,2022_May_09_1415,Partial repeat,2021.2.3,59.8389259270434,
8,8,0,1,2,2,2,1,0,1,1,0,0,1,0,0,35,35,35,0,0,0,0,,,,,,,830.8664197996259,None,831.3514424990863,None,832.1315658986568,None,l,1,0.636998999863863,832.1315658986568,None,None,None,,,,,,,16,23,male,16,2022_May_09_1415,Partial repeat,2021.2.3,59.8389259270434,
8,8,0,1,2,2,2,1,0,1,1,0,0,1,0,0,35,35,35,1,0,1,0,,,,,,,,,832.7918790988624,None,833.801371999085,None,s,1,0.7992166988551617,833.801371999085,None,None,None,,,,,,,16,23,male,16,2022_May_09_1415,Partial repeat,2021.2.3,59.8389259270434,
8,8,0,1,2,2,2,1,0,1,1,0,0,1,0,0,35,35,35,,,,,,,,,,,,,,,,,,,,,,,,,,,,,,16,23,male,16,2022_May_09_1415,Partial repeat,2021.2.3,59.8389259270434,
8,8,0,1,2,3,1,2,0,1,0,0,0,1,0,0,36,36,36,0,0,0,0,,,,,,,834.614009000361,None,835.1252496987581,None,836.0725787002593,None,l,1,0.6720385998487473,836.0725787002593,None,None,None,,,,,,,16,23,male,16,2022_May_09_1415,Partial repeat,2021.2.3,59.8389259270434,
8,8,0,1,2,3,1,2,0,1,0,0,0,1,0,0,36,36,36,1,0,1,0,,,,,,,,,836.7540891990066,None,837.5086803995073,None,s,1,0.5558534003794193,837.5086803995073,None,None,None,,,,,,,16,23,male,16,2022_May_09_1415,Partial repeat,2021.2.3,59.8389259270434,
8,8,0,1,2,3,1,2,0,1,0,0,0,1,0,0,36,36,36,,,,,,,,,,,,,,,,,,,,,,,,,,,,,,16,23,male,16,2022_May_09_1415,Partial repeat,2021.2.3,59.8389259270434,
8,8,0,1,2,3,1,2,1,1,0,0,1,1,0,0,37,37,37,0,0,0,0,,,,,,,838.0872414000332,None,838.5821908991784,None,839.4293627999723,None,l,0,0.49916720017790794,839.4293627999723,None,839.9452433995903,None,,,,,,,16,23,male,16,2022_May_09_1415,Partial repeat,2021.2.3,59.8389259270434,
8,8,0,1,2,3,1,2,1,1,0,0,1,1,0,0,37,37,37,1,0,1,0,,,,,,,,,840.4525029994547,None,841.2491381987929,None,s,1,0.48736430145800114,841.2491381987929,None,None,None,,,,,,,16,23,male,16,2022_May_09_1415,Partial repeat,2021.2.3,59.8389259270434,
8,8,0,1,2,3,1,2,1,1,0,0,1,1,0,0,37,37,37,,,,,,,,,,,,,,,,,,,,,,,,,,,,,,16,23,male,16,2022_May_09_1415,Partial repeat,2021.2.3,59.8389259270434,
8,8,0,1,2,2,1,1,1,1,1,1,1,1,0,0,38,38,38,0,0,0,0,,,,,,,841.7476527988911,None,842.3228022996336,None,843.2364172991365,None,s,1,0.42010430060327053,843.2364172991365,None,None,None,,,,,,,16,23,male,16,2022_May_09_1415,Partial repeat,2021.2.3,59.8389259270434,
8,8,0,1,2,2,1,1,1,1,1,1,1,1,0,0,38,38,38,1,0,1,0,,,,,,,,,843.6680413987488,None,844.3887794986367,None,s,1,0.3957697991281748,844.3887794986367,None,None,None,,,,,,,16,23,male,16,2022_May_09_1415,Partial repeat,2021.2.3,59.8389259270434,
8,8,0,1,2,2,1,1,1,1,1,1,1,1,0,0,38,38,38,,,,,,,,,,,,,,,,,,,,,,,,,,,,,,16,23,male,16,2022_May_09_1415,Partial repeat,2021.2.3,59.8389259270434,
8,8,0,1,2,3,2,1,0,0,0,0,1,1,0,0,39,39,39,0,0,0,0,,,,,,,844.805049398914,None,845.3286211993545,None,846.1090005990118,None,l,1,0.43554010055959225,846.1090005990118,None,None,None,,,,,,,16,23,male,16,2022_May_09_1415,Partial repeat,2021.2.3,59.8389259270434,
8,8,0,1,2,3,2,1,0,0,0,0,1,1,0,0,39,39,39,1,0,1,0,,,,,,,,,846.5570688992739,None,847.2945386003703,None,l,1,0.43396580033004284,847.2945386003703,None,None,None,,,,,,,16,23,male,16,2022_May_09_1415,Partial repeat,2021.2.3,59.8389259270434,
8,8,0,1,2,3,2,1,0,0,0,0,1,1,0,0,39,39,39,,,,,,,,,,,,,,,,,,,,,,,,,,,,,,16,23,male,16,2022_May_09_1415,Partial repeat,2021.2.3,59.8389259270434,
8,8,0,1,3,2,2,2,0,1,0,1,0,1,0,0,40,40,40,0,0,0,0,,,,,,,847.744038099423,None,848.1841809991747,None,848.9318533986807,None,l,1,0.3966825995594263,848.9318533986807,None,None,None,,,,,,,16,23,male,16,2022_May_09_1415,Partial repeat,2021.2.3,59.8389259270434,
8,8,0,1,3,2,2,2,0,1,0,1,0,1,0,0,40,40,40,1,0,1,0,,,,,,,,,849.3417929001153,None,850.167050300166,None,s,1,0.3294849991798401,850.167050300166,None,None,None,,,,,,,16,23,male,16,2022_May_09_1415,Partial repeat,2021.2.3,59.8389259270434,
8,8,0,1,3,2,2,2,0,1,0,1,0,1,0,0,40,40,40,,,,,,,,,,,,,,,,,,,,,,,,,,,,,,16,23,male,16,2022_May_09_1415,Partial repeat,2021.2.3,59.8389259270434,
8,8,0,1,3,3,1,1,1,0,1,1,0,1,0,0,41,41,41,0,0,0,0,,,,,,,850.5174620002508,None,851.4739116001874,None,852.2709050998092,None,s,1,0.3856410998851061,852.2709050998092,None,None,None,,,,,,,16,23,male,16,2022_May_09_1415,Partial repeat,2021.2.3,59.8389259270434,
8,8,0,1,3,3,1,1,1,0,1,1,0,1,0,0,41,41,41,1,0,1,0,,,,,,,,,852.6804737988859,None,853.7069015000015,None,l,1,0.37362759932875633,853.7069015000015,None,None,None,,,,,,,16,23,male,16,2022_May_09_1415,Partial repeat,2021.2.3,59.8389259270434,
8,8,0,1,3,3,1,1,1,0,1,1,0,1,0,0,41,41,41,,,,,,,,,,,,,,,,,,,,,,,,,,,,,,16,23,male,16,2022_May_09_1415,Partial repeat,2021.2.3,59.8389259270434,
8,8,0,1,3,3,2,2,1,1,1,1,1,1,0,0,42,42,42,0,0,0,0,,,,,,,854.0987598989159,None,854.6133564990014,None,855.3600509986281,None,s,1,0.8564792014658451,855.3600509986281,None,None,None,,,,,,,16,23,male,16,2022_May_09_1415,Partial repeat,2021.2.3,59.8389259270434,
8,8,0,1,3,3,2,2,1,1,1,1,1,1,0,0,42,42,42,1,0,1,0,,,,,,,,,856.2301994990557,None,857.180622600019,None,s,1,0.4119032006710768,857.180622600019,None,None,None,,,,,,,16,23,male,16,2022_May_09_1415,Partial repeat,2021.2.3,59.8389259270434,
8,8,0,1,3,3,2,2,1,1,1,1,1,1,0,0,42,42,42,,,,,,,,,,,,,,,,,,,,,,,,,,,,,,16,23,male,16,2022_May_09_1415,Partial repeat,2021.2.3,59.8389259270434,
8,8,0,1,2,2,2,2,0,0,1,1,1,1,0,0,43,43,43,0,0,0,0,,,,,,,857.6145086996257,None,859.0219384990633,None,860.0024584997445,None,l,1,0.44607049971818924,860.0024584997445,None,None,None,,,,,,,16,23,male,16,2022_May_09_1415,Partial repeat,2021.2.3,59.8389259270434,
8,8,0,1,2,2,2,2,0,0,1,1,1,1,0,0,43,43,43,1,0,1,0,,,,,,,,,860.4725188985467,None,861.4218343999237,None,l,1,0.35477999970316887,861.4218343999237,None,None,None,,,,,,,16,23,male,16,2022_May_09_1415,Partial repeat,2021.2.3,59.8389259270434,
8,8,0,1,2,2,2,2,0,0,1,1,1,1,0,0,43,43,43,,,,,,,,,,,,,,,,,,,,,,,,,,,,,,16,23,male,16,2022_May_09_1415,Partial repeat,2021.2.3,59.8389259270434,
8,8,0,1,2,3,1,2,1,0,0,0,0,1,0,0,44,44,44,0,0,0,0,,,,,,,861.7895978987217,None,862.2448937986046,None,863.1087225992233,None,s,1,0.411812299862504,863.1087225992233,None,None,None,,,,,,,16,23,male,16,2022_May_09_1415,Partial repeat,2021.2.3,59.8389259270434,
8,8,0,1,2,3,1,2,1,0,0,0,0,1,0,0,44,44,44,1,0,1,0,,,,,,,,,863.5438626985997,None,864.5461042989045,None,l,1,0.37445960007607937,864.5461042989045,None,None,None,,,,,,,16,23,male,16,2022_May_09_1415,Partial repeat,2021.2.3,59.8389259270434,
8,8,0,1,2,3,1,2,1,0,0,0,0,1,0,0,44,44,44,,,,,,,,,,,,,,,,,,,,,,,,,,,,,,16,23,male,16,2022_May_09_1415,Partial repeat,2021.2.3,59.8389259270434,
8,8,0,1,3,3,1,2,0,0,1,0,1,1,0,0,45,45,45,0,0,0,0,,,,,,,864.9390091001987,None,865.4343862999231,None,866.3984548989683,None,l,1,0.4181443005800247,866.3984548989683,None,None,None,,,,,,,16,23,male,16,2022_May_09_1415,Partial repeat,2021.2.3,59.8389259270434,
8,8,0,1,3,3,1,2,0,0,1,0,1,1,0,0,45,45,45,1,0,1,0,,,,,,,,,866.8445154987276,None,867.8178939986974,None,l,1,0.36661479994654655,867.8178939986974,None,None,None,,,,,,,16,23,male,16,2022_May_09_1415,Partial repeat,2021.2.3,59.8389259270434,
8,8,0,1,3,3,1,2,0,0,1,0,1,1,0,0,45,45,45,,,,,,,,,,,,,,,,,,,,,,,,,,,,,,16,23,male,16,2022_May_09_1415,Partial repeat,2021.2.3,59.8389259270434,
8,8,0,1,2,2,1,2,1,1,1,0,1,1,0,0,46,46,46,0,0,0,0,,,,,,,868.2059613987803,None,868.6574076991528,None,869.522266600281,None,s,1,0.4383220002055168,869.522266600281,None,None,None,,,,,,,16,23,male,16,2022_May_09_1415,Partial repeat,2021.2.3,59.8389259270434,
8,8,0,1,2,2,1,2,1,1,1,0,1,1,0,0,46,46,46,1,0,1,0,,,,,,,,,869.9694071989506,None,870.9572743996978,None,s,1,0.3472629990428686,870.9572743996978,None,None,None,,,,,,,16,23,male,16,2022_May_09_1415,Partial repeat,2021.2.3,59.8389259270434,
8,8,0,1,2,2,1,2,1,1,1,0,1,1,0,0,46,46,46,,,,,,,,,,,,,,,,,,,,,,,,,,,,,,16,23,male,16,2022_May_09_1415,Partial repeat,2021.2.3,59.8389259270434,
8,8,0,1,2,3,1,1,0,0,0,1,1,1,0,0,47,47,47,0,0,0,0,,,,,,,871.3244608994573,None,871.8301973994821,None,872.8276015985757,None,l,1,0.4449783004820347,872.8276015985757,None,None,None,,,,,,,16,23,male,16,2022_May_09_1415,Partial repeat,2021.2.3,59.8389259270434,
8,8,0,1,2,3,1,1,0,0,0,1,1,1,0,0,47,47,47,1,0,1,0,,,,,,,,,873.3008212000132,None,874.1976843997836,None,l,1,0.3308552000671625,874.1976843997836,None,None,None,,,,,,,16,23,male,16,2022_May_09_1415,Partial repeat,2021.2.3,59.8389259270434,
8,8,0,1,2,3,1,1,0,0,0,1,1,1,0,0,47,47,47,,,,,,,,,,,,,,,,,,,,,,,,,,,,,,16,23,male,16,2022_May_09_1415,Partial repeat,2021.2.3,59.8389259270434,
8,8,0,1,2,2,1,1,1,0,1,1,0,1,0,0,48,48,48,0,0,0,0,,,,,,,874.5486837998033,None,875.0364551991224,None,875.9671074002981,None,s,1,0.4334254004061222,875.9671074002981,None,None,None,,,,,,,16,23,male,16,2022_May_09_1415,Partial repeat,2021.2.3,59.8389259270434,
8,8,0,1,2,2,1,1,1,0,1,1,0,1,0,0,48,48,48,1,0,1,0,,,,,,,,,876.4151127003133,None,877.3194891996682,None,l,1,0.385045500472188,877.3194891996682,None,None,None,,,,,,,16,23,male,16,2022_May_09_1415,Partial repeat,2021.2.3,59.8389259270434,
8,8,0,1,2,2,1,1,1,0,1,1,0,1,0,0,48,48,48,,,,,,,,,,,,,,,,,,,,,,,,,,,,,,16,23,male,16,2022_May_09_1415,Partial repeat,2021.2.3,59.8389259270434,
8,8,0,1,2,3,2,1,1,1,0,0,1,1,0,0,49,49,49,0,0,0,0,,,,,,,877.7327656000853,None,878.1758353989571,None,878.9226616993546,None,s,1,0.4458769001066685,878.9226616993546,None,None,None,,,,,,,16,23,male,16,2022_May_09_1415,Partial repeat,2021.2.3,59.8389259270434,
8,8,0,1,2,3,2,1,1,1,0,0,1,1,0,0,49,49,49,1,0,1,0,,,,,,,,,879.3945846986026,None,880.141692198813,None,s,1,0.3948453012853861,880.141692198813,None,None,None,,,,,,,16,23,male,16,2022_May_09_1415,Partial repeat,2021.2.3,59.8389259270434,
8,8,0,1,2,3,2,1,1,1,0,0,1,1,0,0,49,49,49,,,,,,,,,,,,,,,,,,,,,,,,,,,,,,16,23,male,16,2022_May_09_1415,Partial repeat,2021.2.3,59.8389259270434,
8,8,0,1,2,2,1,2,0,1,1,0,0,1,0,0,50,50,50,0,0,0,0,,,,,,,880.5535589996725,None,881.1316526997834,None,881.9619714990258,None,l,1,0.5185630992054939,881.9619714990258,None,None,None,,,,,,,16,23,male,16,2022_May_09_1415,Partial repeat,2021.2.3,59.8389259270434,
8,8,0,1,2,2,1,2,0,1,1,0,0,1,0,0,50,50,50,1,0,1,0,,,,,,,,,882.502795400098,None,883.4481290988624,None,s,1,0.4164071995764971,883.4481290988624,None,None,None,,,,,,,16,23,male,16,2022_May_09_1415,Partial repeat,2021.2.3,59.8389259270434,
8,8,0,1,2,2,1,2,0,1,1,0,0,1,0,0,50,50,50,,,,,,,,,,,,,,,,,,,,,,,,,,,,,,16,23,male,16,2022_May_09_1415,Partial repeat,2021.2.3,59.8389259270434,
8,8,0,1,3,3,1,2,1,0,1,0,0,1,0,0,51,51,51,0,0,0,0,,,,,,,883.8837992995977,None,884.3378790002316,None,885.2182842995971,None,s,1,0.41422849893569946,885.2182842995971,None,None,None,,,,,,,16,23,male,16,2022_May_09_1415,Partial repeat,2021.2.3,59.8389259270434,
8,8,0,1,3,3,1,2,1,0,1,0,0,1,0,0,51,51,51,1,0,1,0,,,,,,,,,885.6495577003807,None,886.5373502988368,None,l,1,0.3671835996210575,886.5373502988368,None,None,None,,,,,,,16,23,male,16,2022_May_09_1415,Partial repeat,2021.2.3,59.8389259270434,
8,8,0,1,3,3,1,2,1,0,1,0,0,1,0,0,51,51,51,,,,,,,,,,,,,,,,,,,,,,,,,,,,,,16,23,male,16,2022_May_09_1415,Partial repeat,2021.2.3,59.8389259270434,
8,8,0,1,2,3,2,2,0,1,0,1,0,1,0,0,52,52,52,0,0,0,0,,,,,,,886.928340299055,None,887.4272150993347,None,888.4087250996381,None,l,1,0.40780239924788475,888.4087250996381,None,None,None,,,,,,,16,23,male,16,2022_May_09_1415,Partial repeat,2021.2.3,59.8389259270434,
8,8,0,1,2,3,2,2,0,1,0,1,0,1,0,0,52,52,52,1,0,1,0,,,,,,,,,888.8362939003855,None,889.6271914001554,None,s,1,0.37333779968321323,889.6271914001554,None,None,None,,,,,,,16,23,male,16,2022_May_09_1415,Partial repeat,2021.2.3,59.8389259270434,
8,8,0,1,2,3,2,2,0,1,0,1,0,1,0,0,52,52,52,,,,,,,,,,,,,,,,,,,,,,,,,,,,,,16,23,male,16,2022_May_09_1415,Partial repeat,2021.2.3,59.8389259270434,
8,8,0,1,2,3,1,1,0,1,0,1,0,1,0,0,53,53,53,0,0,0,0,,,,,,,890.0193256996572,None,890.4998517986387,None,891.3804665990174,None,l,1,0.4441366009414196,891.3804665990174,None,None,None,,,,,,,16,23,male,16,2022_May_09_1415,Partial repeat,2021.2.3,59.8389259270434,
8,8,0,1,2,3,1,1,0,1,0,1,0,1,0,0,53,53,53,1,0,1,0,,,,,,,,,891.8522487003356,None,892.8166653998196,None,s,1,0.3919290993362665,892.8166653998196,None,None,None,,,,,,,16,23,male,16,2022_May_09_1415,Partial repeat,2021.2.3,59.8389259270434,
8,8,0,1,2,3,1,1,0,1,0,1,0,1,0,0,53,53,53,,,,,,,,,,,,,,,,,,,,,,,,,,,,,,16,23,male,16,2022_May_09_1415,Partial repeat,2021.2.3,59.8389259270434,
8,8,0,1,3,2,1,1,1,1,0,1,1,1,0,0,54,54,54,0,0,0,0,,,,,,,893.2198428995907,None,893.6226234994829,None,894.5196764990687,None,s,1,0.36086490005254745,894.5196764990687,None,None,None,,,,,,,16,23,male,16,2022_May_09_1415,Partial repeat,2021.2.3,59.8389259270434,
8,8,0,1,3,2,1,1,1,1,0,1,1,1,0,0,54,54,54,1,0,1,0,,,,,,,,,894.9040478989482,None,895.6217241995037,None,s,1,0.40283169969916344,895.6217241995037,None,None,None,,,,,,,16,23,male,16,2022_May_09_1415,Partial repeat,2021.2.3,59.8389259270434,
8,8,0,1,3,2,1,1,1,1,0,1,1,1,0,0,54,54,54,,,,,,,,,,,,,,,,,,,,,,,,,,,,,,16,23,male,16,2022_May_09_1415,Partial repeat,2021.2.3,59.8389259270434,
8,8,0,1,2,2,1,1,0,0,1,1,1,1,0,0,55,55,55,0,0,0,0,,,,,,,896.0351487994194,None,896.511530900374,None,897.3083828985691,None,l,1,0.380187701433897,897.3083828985691,None,None,None,,,,,,,16,23,male,16,2022_May_09_1415,Partial repeat,2021.2.3,59.8389259270434,
8,8,0,1,2,2,1,1,0,0,1,1,1,1,0,0,55,55,55,1,0,1,0,,,,,,,,,897.717251399532,None,898.4942359998822,None,l,1,0.3142967000603676,898.4942359998822,None,None,None,,,,,,,16,23,male,16,2022_May_09_1415,Partial repeat,2021.2.3,59.8389259270434,
8,8,0,1,2,2,1,1,0,0,1,1,1,1,0,0,55,55,55,,,,,,,,,,,,,,,,,,,,,,,,,,,,,,16,23,male,16,2022_May_09_1415,Partial repeat,2021.2.3,59.8389259270434,
8,8,0,1,2,2,2,2,1,1,1,1,1,1,0,0,56,56,56,0,0,0,0,,,,,,,898.8237101994455,None,899.250210698694,None,900.2477324996144,None,s,1,0.3608877994120121,900.2477324996144,None,None,None,,,,,,,16,23,male,16,2022_May_09_1415,Partial repeat,2021.2.3,59.8389259270434,
8,8,0,1,2,2,2,2,1,1,1,1,1,1,0,0,56,56,56,1,0,1,0,,,,,,,,,900.6367367990315,None,901.4833426997066,None,s,1,0.37318800017237663,901.4833426997066,None,None,None,,,,,,,16,23,male,16,2022_May_09_1415,Partial repeat,2021.2.3,59.8389259270434,
8,8,0,1,2,2,2,2,1,1,1,1,1,1,0,0,56,56,56,,,,,,,,,,,,,,,,,,,,,,,,,,,,,,16,23,male,16,2022_May_09_1415,Partial repeat,2021.2.3,59.8389259270434,
8,8,0,1,3,2,2,1,1,0,0,0,0,1,0,0,57,57,57,0,0,0,0,,,,,,,901.8732855003327,None,902.3896890003234,None,903.3872926998883,None,s,1,0.37326839938759804,903.3872926998883,None,None,None,,,,,,,16,23,male,16,2022_May_09_1415,Partial repeat,2021.2.3,59.8389259270434,
8,8,0,1,3,2,2,1,1,0,0,0,0,1,0,0,57,57,57,1,0,1,0,,,,,,,,,903.7780357990414,None,904.5227042995393,None,l,1,0.3738317992538214,904.5227042995393,None,None,None,,,,,,,16,23,male,16,2022_May_09_1415,Partial repeat,2021.2.3,59.8389259270434,
8,8,0,1,3,2,2,1,1,0,0,0,0,1,0,0,57,57,57,,,,,,,,,,,,,,,,,,,,,,,,,,,,,,16,23,male,16,2022_May_09_1415,Partial repeat,2021.2.3,59.8389259270434,
8,8,0,1,3,2,1,2,0,0,0,0,1,1,0,0,58,58,58,0,0,0,0,,,,,,,904.9131923988461,None,905.345435500145,None,906.3596896994859,None,l,1,0.37684729881584644,906.3596896994859,None,None,None,,,,,,,16,23,male,16,2022_May_09_1415,Partial repeat,2021.2.3,59.8389259270434,
8,8,0,1,3,2,1,2,0,0,0,0,1,1,0,0,58,58,58,1,0,1,0,,,,,,,,,906.7500515989959,None,907.6288145985454,None,l,1,0.3477187994867563,907.6288145985454,None,None,None,,,,,,,16,23,male,16,2022_May_09_1415,Partial repeat,2021.2.3,59.8389259270434,
8,8,0,1,3,2,1,2,0,0,0,0,1,1,0,0,58,58,58,,,,,,,,,,,,,,,,,,,,,,,,,,,,,,16,23,male,16,2022_May_09_1415,Partial repeat,2021.2.3,59.8389259270434,
8,8,0,1,2,3,2,2,0,0,0,1,1,1,0,0,59,59,59,0,0,0,0,,,,,,,908.0003308989108,None,908.4681804999709,None,909.2659683991224,None,l,1,0.39861850067973137,909.2659683991224,None,None,None,,,,,,,16,23,male,16,2022_May_09_1415,Partial repeat,2021.2.3,59.8389259270434,
8,8,0,1,2,3,2,2,0,0,0,1,1,1,0,0,59,59,59,1,0,1,0,,,,,,,,,909.6757027991116,None,910.6682588998228,None,l,1,0.364334799349308,910.6682588998228,None,None,None,,,,,,,16,23,male,16,2022_May_09_1415,Partial repeat,2021.2.3,59.8389259270434,
8,8,0,1,2,3,2,2,0,0,0,1,1,1,0,0,59,59,59,,,,,,,,,,,,,,,,,,,,,,,,,,,,,,16,23,male,16,2022_May_09_1415,Partial repeat,2021.2.3,59.8389259270434,
8,8,0,1,3,2,2,1,1,1,0,0,1,1,0,0,60,60,60,0,0,0,0,,,,,,,911.0608610995114,None,911.5241254996508,None,912.4392120987177,None,s,1,0.3853139001876116,912.4392120987177,None,None,None,,,,,,,16,23,male,16,2022_May_09_1415,Partial repeat,2021.2.3,59.8389259270434,
8,8,0,1,3,2,2,1,1,1,0,0,1,1,0,0,60,60,60,1,0,1,0,,,,,,,,,912.8498362991959,None,913.8571803998202,None,s,1,0.30337260104715824,913.8571803998202,None,None,None,,,,,,,16,23,male,16,2022_May_09_1415,Partial repeat,2021.2.3,59.8389259270434,
8,8,0,1,3,2,2,1,1,1,0,0,1,1,0,0,60,60,60,,,,,,,,,,,,,,,,,,,,,,,,,,,,,,16,23,male,16,2022_May_09_1415,Partial repeat,2021.2.3,59.8389259270434,
8,8,0,1,2,3,2,1,0,1,0,0,0,1,0,0,61,61,61,0,0,0,0,,,,,,,914.1868798993528,None,914.6969540994614,None,915.6606636997312,None,l,1,0.40389310009777546,915.6606636997312,None,None,None,,,,,,,16,23,male,16,2022_May_09_1415,Partial repeat,2021.2.3,59.8389259270434,
8,8,0,1,2,3,2,1,0,1,0,0,0,1,0,0,61,61,61,1,0,1,0,,,,,,,,,916.0916942991316,None,916.9468248002231,None,s,1,0.3657738994807005,916.9468248002231,None,None,None,,,,,,,16,23,male,16,2022_May_09_1415,Partial repeat,2021.2.3,59.8389259270434,
8,8,0,1,2,3,2,1,0,1,0,0,0,1,0,0,61,61,61,,,,,,,,,,,,,,,,,,,,,,,,,,,,,,16,23,male,16,2022_May_09_1415,Partial repeat,2021.2.3,59.8389259270434,
8,8,0,1,3,2,1,2,1,1,0,0,1,1,0,0,62,62,62,0,0,0,0,,,,,,,917.3354105986655,None,917.8029781002551,None,918.6332622990012,None,s,1,0.4233023002743721,918.6332622990012,None,None,None,,,,,,,16,23,male,16,2022_May_09_1415,Partial repeat,2021.2.3,59.8389259270434,
8,8,0,1,3,2,1,2,1,1,0,0,1,1,0,0,62,62,62,1,0,1,0,,,,,,,,,919.0830260999501,None,919.9215013999492,None,s,1,0.33511910028755665,919.9215013999492,None,None,None,,,,,,,16,23,male,16,2022_May_09_1415,Partial repeat,2021.2.3,59.8389259270434,
8,8,0,1,3,2,1,2,1,1,0,0,1,1,0,0,62,62,62,,,,,,,,,,,,,,,,,,,,,,,,,,,,,,16,23,male,16,2022_May_09_1415,Partial repeat,2021.2.3,59.8389259270434,
8,8,0,1,3,3,1,2,0,1,1,0,0,1,0,0,63,63,63,0,0,0,0,,,,,,,920.2699098996818,None,920.7253644000739,None,921.4887959994376,None,l,1,0.44773790054023266,921.4887959994376,None,None,None,,,,,,,16,23,male,16,2022_May_09_1415,Partial repeat,2021.2.3,59.8389259270434,
8,8,0,1,3,3,1,2,0,1,1,0,0,1,0,0,63,63,63,1,0,1,0,,,,,,,,,921.9494994003326,None,922.7413793001324,None,s,1,0.3791572991758585,922.7413793001324,None,None,None,,,,,,,16,23,male,16,2022_May_09_1415,Partial repeat,2021.2.3,59.8389259270434,
8,8,0,1,3,3,1,2,0,1,1,0,0,1,0,0,63,63,63,,,,,,,,,,,,,,,,,,,,,,,,,,,,,,16,23,male,16,2022_May_09_1415,Partial repeat,2021.2.3,59.8389259270434,
6,7,0,1,2,2,2,2,1,1,1,1,1,0,0,0,64,64,64,0,0,0,0,,,,,,,943.5685427989811,None,944.7554327994585,None,945.6026661992073,None,s,1,0.581870298832655,945.6026661992073,None,None,None,,,,,,,16,23,male,16,2022_May_09_1415,Partial repeat,2021.2.3,59.8389259270434,
6,7,0,1,2,2,2,2,1,1,1,1,1,0,0,0,64,64,64,1,0,1,0,,,,,,,,,946.2104045003653,None,947.1558694001287,None,s,1,0.5966616999357939,947.1558694001287,None,None,None,,,,,,,16,23,male,16,2022_May_09_1415,Partial repeat,2021.2.3,59.8389259270434,
6,7,0,1,2,2,2,2,1,1,1,1,1,0,0,0,64,64,64,,,,,,,,,,,,,,,,,,,,,,,,,,,,,,16,23,male,16,2022_May_09_1415,Partial repeat,2021.2.3,59.8389259270434,
2,2,0,1,3,3,1,2,1,1,1,0,1,0,0,0,65,65,65,0,0,0,0,,,,,,,947.7790251988918,None,948.4625979997218,None,949.3431073985994,None,s,1,0.7215527016669512,949.3431073985994,None,None,None,,,,,,,16,23,male,16,2022_May_09_1415,Partial repeat,2021.2.3,59.8389259270434,
2,2,0,1,3,3,1,2,1,1,1,0,1,0,0,0,65,65,65,1,0,1,0,,,,,,,,,950.0916530992836,None,950.8964991997927,None,s,1,0.44010020047426224,950.8964991997927,None,None,None,,,,,,,16,23,male,16,2022_May_09_1415,Partial repeat,2021.2.3,59.8389259270434,
2,2,0,1,3,3,1,2,1,1,1,0,1,0,0,0,65,65,65,,,,,,,,,,,,,,,,,,,,,,,,,,,,,,16,23,male,16,2022_May_09_1415,Partial repeat,2021.2.3,59.8389259270434,
3,1,0,1,2,2,1,2,0,1,1,0,0,0,0,0,66,66,66,0,0,0,0,,,,,,,951.3534981999546,None,951.9360047988594,None,952.7840822003782,None,l,1,0.8164690006524324,952.7840822003782,None,None,None,,,,,,,16,23,male,16,2022_May_09_1415,Partial repeat,2021.2.3,59.8389259270434,
3,1,0,1,2,2,1,2,0,1,1,0,0,0,0,0,66,66,66,1,0,1,0,,,,,,,,,953.6229500994086,None,954.6377269998193,None,s,1,0.5788186006247997,954.6377269998193,None,None,None,,,,,,,16,23,male,16,2022_May_09_1415,Partial repeat,2021.2.3,59.8389259270434,
3,1,0,1,2,2,1,2,0,1,1,0,0,0,0,0,66,66,66,,,,,,,,,,,,,,,,,,,,,,,,,,,,,,16,23,male,16,2022_May_09_1415,Partial repeat,2021.2.3,59.8389259270434,
7,4,0,1,3,2,2,2,0,0,0,1,1,0,0,0,67,67,67,0,0,0,0,,,,,,,955.243800399825,None,955.7435077000409,None,956.758046599105,None,l,1,0.5866622999310493,956.758046599105,None,None,None,,,,,,,16,23,male,16,2022_May_09_1415,Partial repeat,2021.2.3,59.8389259270434,
7,4,0,1,3,2,2,2,0,0,0,1,1,0,0,0,67,67,67,1,0,1,0,,,,,,,,,957.35580150038,None,958.244731400162,None,l,1,0.5878209006041288,958.244731400162,None,None,None,,,,,,,16,23,male,16,2022_May_09_1415,Partial repeat,2021.2.3,59.8389259270434,
7,4,0,1,3,2,2,2,0,0,0,1,1,0,0,0,67,67,67,,,,,,,,,,,,,,,,,,,,,,,,,,,,,,16,23,male,16,2022_May_09_1415,Partial repeat,2021.2.3,59.8389259270434,
7,7,0,1,3,2,1,1,0,0,0,1,1,0,0,0,68,68,68,0,0,0,0,,,,,,,958.8479961995035,None,959.2837119996548,None,960.1309112999588,None,l,1,0.5736287012696266,960.1309112999588,None,None,None,,,,,,,16,23,male,16,2022_May_09_1415,Partial repeat,2021.2.3,59.8389259270434,
7,7,0,1,3,2,1,1,0,0,0,1,1,0,0,0,68,68,68,1,0,1,0,,,,,,,,,960.7271152995527,None,961.6002360992134,None,l,1,0.46444630064070225,961.6002360992134,None,None,None,,,,,,,16,23,male,16,2022_May_09_1415,Partial repeat,2021.2.3,59.8389259270434,
7,7,0,1,3,2,1,1,0,0,0,1,1,0,0,0,68,68,68,,,,,,,,,,,,,,,,,,,,,,,,,,,,,,16,23,male,16,2022_May_09_1415,Partial repeat,2021.2.3,59.8389259270434,
5,5,0,1,2,3,1,1,0,0,0,1,1,0,0,0,69,69,69,0,0,0,0,,,,,,,962.0779317989945,None,962.5566907003522,None,963.3704365994781,None,l,1,0.534128000959754,963.3704365994781,None,None,None,,,,,,,16,23,male,16,2022_May_09_1415,Partial repeat,2021.2.3,59.8389259270434,
5,5,0,1,2,3,1,1,0,0,0,1,1,0,0,0,69,69,69,1,0,1,0,,,,,,,,,963.9244964998215,None,964.9232858996838,None,l,1,1.6132240016013384,964.9232858996838,None,None,None,,,,,,,16,23,male,16,2022_May_09_1415,Partial repeat,2021.2.3,59.8389259270434,
5,5,0,1,2,3,1,1,0,0,0,1,1,0,0,0,69,69,69,,,,,,,,,,,,,,,,,,,,,,,,,,,,,,16,23,male,16,2022_May_09_1415,Partial repeat,2021.2.3,59.8389259270434,
2,3,0,1,3,3,2,2,1,1,1,1,1,0,0,0,70,70,70,0,0,0,0,,,,,,,966.5640238989145,None,967.2158156000078,None,968.1299088001251,None,s,1,0.6466242987662554,968.1299088001251,None,None,None,,,,,,,16,23,male,16,2022_May_09_1415,Partial repeat,2021.2.3,59.8389259270434,
2,3,0,1,3,3,2,2,1,1,1,1,1,0,0,0,70,70,70,1,0,1,0,,,,,,,,,968.794325299561,None,969.7163427993655,None,s,1,0.4521885998547077,969.7163427993655,None,None,None,,,,,,,16,23,male,16,2022_May_09_1415,Partial repeat,2021.2.3,59.8389259270434,
2,3,0,1,3,3,2,2,1,1,1,1,1,0,0,0,70,70,70,,,,,,,,,,,,,,,,,,,,,,,,,,,,,,16,23,male,16,2022_May_09_1415,Partial repeat,2021.2.3,59.8389259270434,
1,6,0,1,3,2,1,2,1,0,0,0,0,0,0,0,71,71,71,0,0,0,0,,,,,,,970.1967139001936,None,970.6558509990573,None,971.6029336992651,None,s,1,0.5176017992198467,971.6029336992651,None,None,None,,,,,,,16,23,male,16,2022_May_09_1415,Partial repeat,2021.2.3,59.8389259270434,
1,6,0,1,3,2,1,2,1,0,0,0,0,0,0,0,71,71,71,1,0,1,0,,,,,,,,,972.1400637999177,None,973.1560939997435,None,l,1,0.5164374001324177,973.1560939997435,None,None,None,,,,,,,16,23,male,16,2022_May_09_1415,Partial repeat,2021.2.3,59.8389259270434,
1,6,0,1,3,2,1,2,1,0,0,0,0,0,0,0,71,71,71,,,,,,,,,,,,,,,,,,,,,,,,,,,,,,16,23,male,16,2022_May_09_1415,Partial repeat,2021.2.3,59.8389259270434,
4,8,0,1,2,2,2,2,0,1,1,1,0,0,0,0,72,72,72,0,0,0,0,,,,,,,973.6963259987533,None,974.1960757989436,None,975.0430517997593,None,l,1,0.6294899005442858,975.0430517997593,None,None,None,,,,,,,16,23,male,16,2022_May_09_1415,Partial repeat,2021.2.3,59.8389259270434,
4,8,0,1,2,2,2,2,0,1,1,1,0,0,0,0,72,72,72,1,0,1,0,,,,,,,,,975.6845603995025,None,976.4626201000065,None,s,1,0.4899833984673023,976.4626201000065,None,None,None,,,,,,,16,23,male,16,2022_May_09_1415,Partial repeat,2021.2.3,59.8389259270434,
4,8,0,1,2,2,2,2,0,1,1,1,0,0,0,0,72,72,72,,,,,,,,,,,,,,,,,,,,,,,,,,,,,,16,23,male,16,2022_May_09_1415,Partial repeat,2021.2.3,59.8389259270434,
8,6,0,1,2,3,2,1,0,1,0,0,0,0,0,0,73,73,73,0,0,0,0,,,,,,,976.981846800074,None,977.4691081997007,None,978.2511045001447,None,l,1,0.413459999486804,978.2511045001447,None,None,None,,,,,,,16,23,male,16,2022_May_09_1415,Partial repeat,2021.2.3,59.8389259270434,
8,6,0,1,2,3,2,1,0,1,0,0,0,0,0,0,73,73,73,1,0,1,0,,,,,,,,,978.6812474988401,None,979.452359398827,None,s,1,0.4842616990208626,979.452359398827,None,None,None,,,,,,,16,23,male,16,2022_May_09_1415,Partial repeat,2021.2.3,59.8389259270434,
8,6,0,1,2,3,2,1,0,1,0,0,0,0,0,0,73,73,73,,,,,,,,,,,,,,,,,,,,,,,,,,,,,,16,23,male,16,2022_May_09_1415,Partial repeat,2021.2.3,59.8389259270434,
7,3,0,1,2,2,2,1,0,1,1,0,0,0,0,0,74,74,74,0,0,0,0,,,,,,,979.9469628985971,None,980.3914347998798,None,981.1882521994412,None,l,1,0.48442299850285053,981.1882521994412,None,None,None,,,,,,,16,23,male,16,2022_May_09_1415,Partial repeat,2021.2.3,59.8389259270434,
7,3,0,1,2,2,2,1,0,1,1,0,0,0,0,0,74,74,74,1,0,1,0,,,,,,,,,981.6813206002116,None,982.6412665992975,None,s,1,0.599321398884058,982.6412665992975,None,None,None,,,,,,,16,23,male,16,2022_May_09_1415,Partial repeat,2021.2.3,59.8389259270434,
7,3,0,1,2,2,2,1,0,1,1,0,0,0,0,0,74,74,74,,,,,,,,,,,,,,,,,,,,,,,,,,,,,,16,23,male,16,2022_May_09_1415,Partial repeat,2021.2.3,59.8389259270434,
1,8,0,1,2,2,2,1,1,0,1,0,0,0,0,0,75,75,75,0,0,0,0,,,,,,,983.2643425986171,None,983.664502300322,None,984.6116586998105,None,s,1,0.5328875984996557,984.6116586998105,None,None,None,,,,,,,16,23,male,16,2022_May_09_1415,Partial repeat,2021.2.3,59.8389259270434,
1,8,0,1,2,2,2,1,1,0,1,0,0,0,0,0,75,75,75,1,0,1,0,,,,,,,,,985.1679026000202,None,986.0814368985593,None,l,1,0.46318489871919155,986.0814368985593,None,None,None,,,,,,,16,23,male,16,2022_May_09_1415,Partial repeat,2021.2.3,59.8389259270434,
1,8,0,1,2,2,2,1,1,0,1,0,0,0,0,0,75,75,75,,,,,,,,,,,,,,,,,,,,,,,,,,,,,,16,23,male,16,2022_May_09_1415,Partial repeat,2021.2.3,59.8389259270434,
4,7,0,1,2,3,2,2,1,0,0,1,0,0,0,0,76,76,76,0,0,0,0,,,,,,,986.5581013988703,None,986.9707813002169,None,987.9515445996076,None,s,1,0.5689938999712467,987.9515445996076,None,None,None,,,,,,,16,23,male,16,2022_May_09_1415,Partial repeat,2021.2.3,59.8389259270434,
4,7,0,1,2,3,2,2,1,0,0,1,0,0,0,0,76,76,76,1,0,1,0,,,,,,,,,988.5335165988654,None,989.4713481999934,None,s,0,0.48122950084507465,989.4713481999934,None,989.9691121000797,None,,,,,,,16,23,male,16,2022_May_09_1415,Partial repeat,2021.2.3,59.8389259270434,
4,7,0,1,2,3,2,2,1,0,0,1,0,0,0,0,76,76,76,,,,,,,,,,,,,,,,,,,,,,,,,,,,,,16,23,male,16,2022_May_09_1415,Partial repeat,2021.2.3,59.8389259270434,
3,4,0,1,2,3,1,1,1,0,0,1,0,0,0,0,77,77,77,0,0,0,0,,,,,,,990.4777805991471,None,991.2125177998096,None,992.1931685991585,None,s,1,0.5753672998398542,992.1931685991585,None,None,None,,,,,,,16,23,male,16,2022_May_09_1415,Partial repeat,2021.2.3,59.8389259270434,
3,4,0,1,2,3,1,1,1,0,0,1,0,0,0,0,77,77,77,1,0,1,0,,,,,,,,,992.7901694998145,None,993.7627082001418,None,l,1,0.5498856995254755,993.7627082001418,None,None,None,,,,,,,16,23,male,16,2022_May_09_1415,Partial repeat,2021.2.3,59.8389259270434,
3,4,0,1,2,3,1,1,1,0,0,1,0,0,0,0,77,77,77,,,,,,,,,,,,,,,,,,,,,,,,,,,,,,16,23,male,16,2022_May_09_1415,Partial repeat,2021.2.3,59.8389259270434,
8,7,0,1,3,2,1,1,1,1,0,1,1,0,0,0,78,78,78,0,0,0,0,,,,,,,994.3247124999762,None,994.7694374993443,None,995.500392800197,None,s,1,0.6681804992258549,995.500392800197,None,None,None,,,,,,,16,23,male,16,2022_May_09_1415,Partial repeat,2021.2.3,59.8389259270434,
8,7,0,1,3,2,1,1,1,1,0,1,1,0,0,0,78,78,78,1,0,1,0,,,,,,,,,996.1906730998307,None,997.17063540034,None,s,1,0.5019049011170864,997.17063540034,None,None,None,,,,,,,16,23,male,16,2022_May_09_1415,Partial repeat,2021.2.3,59.8389259270434,
8,7,0,1,3,2,1,1,1,1,0,1,1,0,0,0,78,78,78,,,,,,,,,,,,,,,,,,,,,,,,,,,,,,16,23,male,16,2022_May_09_1415,Partial repeat,2021.2.3,59.8389259270434,
4,6,0,1,3,3,2,1,1,0,1,0,0,0,0,0,79,79,79,0,0,0,0,,,,,,,997.687912799418,None,998.1593647990376,None,999.1568963993341,None,s,1,0.4916388001292944,999.1568963993341,None,None,None,,,,,,,16,23,male,16,2022_May_09_1415,Partial repeat,2021.2.3,59.8389259270434,
4,6,0,1,3,3,2,1,1,0,1,0,0,0,0,0,79,79,79,1,0,1,0,,,,,,,,,999.6720279995352,None,1000.3923027999699,None,l,1,0.5122402999550104,1000.3923027999699,None,None,None,,,,,,,16,23,male,16,2022_May_09_1415,Partial repeat,2021.2.3,59.8389259270434,
4,6,0,1,3,3,2,1,1,0,1,0,0,0,0,0,79,79,79,,,,,,,,,,,,,,,,,,,,,,,,,,,,,,16,23,male,16,2022_May_09_1415,Partial repeat,2021.2.3,59.8389259270434,
6,3,0,1,3,2,1,2,0,1,0,0,0,0,0,0,80,80,80,0,0,0,0,,,,,,,1000.926507299766,None,1001.4992464985698,None,1002.3965058997273,None,l,1,0.5000561010092497,1002.3965058997273,None,None,None,,,,,,,16,23,male,16,2022_May_09_1415,Partial repeat,2021.2.3,59.8389259270434,
6,3,0,1,3,2,1,2,0,1,0,0,0,0,0,0,80,80,80,1,0,1,0,,,,,,,,,1002.9113191999495,None,1003.9161951988935,None,s,1,0.540336299687624,1003.9161951988935,None,None,None,,,,,,,16,23,male,16,2022_May_09_1415,Partial repeat,2021.2.3,59.8389259270434,
6,3,0,1,3,2,1,2,0,1,0,0,0,0,0,0,80,80,80,,,,,,,,,,,,,,,,,,,,,,,,,,,,,,16,23,male,16,2022_May_09_1415,Partial repeat,2021.2.3,59.8389259270434,
8,4,0,1,3,3,2,1,0,0,1,0,1,0,0,0,81,81,81,0,0,0,0,,,,,,,1004.4800741989166,None,1004.9224894996732,None,1005.904446600005,None,l,1,0.4960962012410164,1005.904446600005,None,None,None,,,,,,,16,23,male,16,2022_May_09_1415,Partial repeat,2021.2.3,59.8389259270434,
8,4,0,1,3,3,2,1,0,0,1,0,1,0,0,0,81,81,81,1,0,1,0,,,,,,,,,1006.4224380999804,None,1007.2567234989256,None,s,0,0.559816999360919,1007.2567234989256,None,1007.8410167992115,None,,,,,,,16,23,male,16,2022_May_09_1415,Partial repeat,2021.2.3,59.8389259270434,
8,4,0,1,3,3,2,1,0,0,1,0,1,0,0,0,81,81,81,,,,,,,,,,,,,,,,,,,,,,,,,,,,,,16,23,male,16,2022_May_09_1415,Partial repeat,2021.2.3,59.8389259270434,
3,8,0,1,2,2,1,1,0,0,1,1,1,0,0,0,82,82,82,0,0,0,0,,,,,,,1008.3459038995206,None,1009.8821306992322,None,1010.7461434993893,None,l,1,0.5824031997472048,1010.7461434993893,None,None,None,,,,,,,16,23,male,16,2022_May_09_1415,Partial repeat,2021.2.3,59.8389259270434,
3,8,0,1,2,2,1,1,0,0,1,1,1,0,0,0,82,82,82,1,0,1,0,,,,,,,,,1011.3397412989289,None,1012.0986164994538,None,l,1,0.4619324989616871,1012.0986164994538,None,None,None,,,,,,,16,23,male,16,2022_May_09_1415,Partial repeat,2021.2.3,59.8389259270434,
3,8,0,1,2,2,1,1,0,0,1,1,1,0,0,0,82,82,82,,,,,,,,,,,,,,,,,,,,,,,,,,,,,,16,23,male,16,2022_May_09_1415,Partial repeat,2021.2.3,59.8389259270434,
5,7,0,1,3,3,2,1,1,1,1,0,1,0,0,0,83,83,83,0,0,0,0,,,,,,,1012.5774163994938,None,1012.9882008992136,None,1013.9191484991461,None,s,1,0.45739359967410564,1013.9191484991461,None,None,None,,,,,,,16,23,male,16,2022_May_09_1415,Partial repeat,2021.2.3,59.8389259270434,
5,7,0,1,3,3,2,1,1,1,1,0,1,0,0,0,83,83,83,1,0,1,0,,,,,,,,,1014.4032296985388,None,1015.3548517003655,None,s,1,0.48569250106811523,1015.3548517003655,None,None,None,,,,,,,16,23,male,16,2022_May_09_1415,Partial repeat,2021.2.3,59.8389259270434,
5,7,0,1,3,3,2,1,1,1,1,0,1,0,0,0,83,83,83,,,,,,,,,,,,,,,,,,,,,,,,,,,,,,16,23,male,16,2022_May_09_1415,Partial repeat,2021.2.3,59.8389259270434,
1,2,0,1,3,3,1,1,1,1,1,1,1,0,0,0,84,84,84,0,0,0,0,,,,,,,1015.8563391994685,None,1016.344706999138,None,1017.3254703003913,None,s,1,0.5551082007586956,1017.3254703003913,None,None,None,,,,,,,16,23,male,16,2022_May_09_1415,Partial repeat,2021.2.3,59.8389259270434,
1,2,0,1,3,3,1,1,1,1,1,1,1,0,0,0,84,84,84,1,0,1,0,,,,,,,,,1017.8994234986603,None,1018.7279598992318,None,s,1,0.48862010054290295,1018.7279598992318,None,None,None,,,,,,,16,23,male,16,2022_May_09_1415,Partial repeat,2021.2.3,59.8389259270434,
1,2,0,1,3,3,1,1,1,1,1,1,1,0,0,0,84,84,84,,,,,,,,,,,,,,,,,,,,,,,,,,,,,,16,23,male,16,2022_May_09_1415,Partial repeat,2021.2.3,59.8389259270434,
7,5,0,1,2,2,1,1,1,0,1,1,0,0,0,0,85,85,85,0,0,0,0,,,,,,,1019.2471471987665,None,1019.6845829002559,None,1020.54906369932,None,s,1,0.4035205002874136,1020.54906369932,None,None,None,,,,,,,16,23,male,16,2022_May_09_1415,Partial repeat,2021.2.3,59.8389259270434,
7,5,0,1,2,2,1,1,1,0,1,1,0,0,0,0,85,85,85,1,0,1,0,,,,,,,,,1020.9795101992786,None,1021.8340176995844,None,s,0,0.3825601991266012,1021.8340176995844,None,1022.244126599282,None,,,,,,,16,23,male,16,2022_May_09_1415,Partial repeat,2021.2.3,59.8389259270434,
7,5,0,1,2,2,1,1,1,0,1,1,0,0,0,0,85,85,85,,,,,,,,,,,,,,,,,,,,,,,,,,,,,,16,23,male,16,2022_May_09_1415,Partial repeat,2021.2.3,59.8389259270434,
8,1,0,1,3,2,1,1,0,1,0,1,0,0,0,0,86,86,86,0,0,0,0,,,,,,,1022.75728629902,None,1023.3750707991421,None,1024.1396947000176,None,l,1,0.4928379990160465,1024.1396947000176,None,None,None,,,,,,,16,23,male,16,2022_May_09_1415,Partial repeat,2021.2.3,59.8389259270434,
8,1,0,1,3,2,1,1,0,1,0,1,0,0,0,0,86,86,86,1,0,1,0,,,,,,,,,1024.6548541001976,None,1025.5245831999928,None,s,1,0.5000097993761301,1025.5245831999928,None,None,None,,,,,,,16,23,male,16,2022_May_09_1415,Partial repeat,2021.2.3,59.8389259270434,
8,1,0,1,3,2,1,1,0,1,0,1,0,0,0,0,86,86,86,,,,,,,,,,,,,,,,,,,,,,,,,,,,,,16,23,male,16,2022_May_09_1415,Partial repeat,2021.2.3,59.8389259270434,
5,6,0,1,2,3,2,1,0,0,0,0,1,0,0,0,87,87,87,0,0,0,0,,,,,,,1026.042577099055,None,1026.497849298641,None,1027.294730000198,None,l,1,0.5058830995112658,1027.294730000198,None,None,None,,,,,,,16,23,male,16,2022_May_09_1415,Partial repeat,2021.2.3,59.8389259270434,
5,6,0,1,2,3,2,1,0,0,0,0,1,0,0,0,87,87,87,1,0,1,0,,,,,,,,,1027.8113368991762,None,1028.6475585997105,None,l,1,0.5050157997757196,1028.6475585997105,None,None,None,,,,,,,16,23,male,16,2022_May_09_1415,Partial repeat,2021.2.3,59.8389259270434,
5,6,0,1,2,3,2,1,0,0,0,0,1,0,0,0,87,87,87,,,,,,,,,,,,,,,,,,,,,,,,,,,,,,16,23,male,16,2022_May_09_1415,Partial repeat,2021.2.3,59.8389259270434,
2,7,0,1,3,2,2,1,1,1,0,0,1,0,0,0,88,88,88,0,0,0,0,,,,,,,1029.1672919988632,None,1029.6372979003936,None,1030.5855285003781,None,s,1,0.5669826995581388,1030.5855285003781,None,None,None,,,,,,,16,23,male,16,2022_May_09_1415,Partial repeat,2021.2.3,59.8389259270434,
2,7,0,1,3,2,2,1,1,1,0,0,1,0,0,0,88,88,88,1,0,1,0,,,,,,,,,1031.1641520988196,None,1032.1709284000099,None,s,1,0.5176191013306379,1032.1709284000099,None,None,None,,,,,,,16,23,male,16,2022_May_09_1415,Partial repeat,2021.2.3,59.8389259270434,
2,7,0,1,3,2,2,1,1,1,0,0,1,0,0,0,88,88,88,,,,,,,,,,,,,,,,,,,,,,,,,,,,,,16,23,male,16,2022_May_09_1415,Partial repeat,2021.2.3,59.8389259270434,
3,7,0,1,3,2,2,2,0,1,0,1,0,0,0,0,89,89,89,0,0,0,0,,,,,,,1032.710329098627,None,1033.1608199998736,None,1034.0919195003808,None,l,1,0.5726181995123625,1034.0919195003808,None,None,None,,,,,,,16,23,male,16,2022_May_09_1415,Partial repeat,2021.2.3,59.8389259270434,
3,7,0,1,3,2,2,2,0,1,0,1,0,0,0,0,89,89,89,1,0,1,0,,,,,,,,,1034.6887208987027,None,1035.6777577996254,None,s,1,0.4587801992893219,1035.6777577996254,None,None,None,,,,,,,16,23,male,16,2022_May_09_1415,Partial repeat,2021.2.3,59.8389259270434,
3,7,0,1,3,2,2,2,0,1,0,1,0,0,0,0,89,89,89,,,,,,,,,,,,,,,,,,,,,,,,,,,,,,16,23,male,16,2022_May_09_1415,Partial repeat,2021.2.3,59.8389259270434,
5,2,0,1,2,2,1,2,1,0,1,0,0,0,0,0,90,90,90,0,0,0,0,,,,,,,1036.1534788999707,None,1036.5507340002805,None,1037.3309751991183,None,s,1,0.7255636993795633,1037.3309751991183,None,None,None,,,,,,,16,23,male,16,2022_May_09_1415,Partial repeat,2021.2.3,59.8389259270434,
5,2,0,1,2,2,1,2,1,0,1,0,0,0,0,0,90,90,90,1,0,1,0,,,,,,,,,1038.0808965992182,None,1038.9009859003127,None,l,1,0.5635556988418102,1038.9009859003127,None,None,None,,,,,,,16,23,male,16,2022_May_09_1415,Partial repeat,2021.2.3,59.8389259270434,
5,2,0,1,2,2,1,2,1,0,1,0,0,0,0,0,90,90,90,,,,,,,,,,,,,,,,,,,,,,,,,,,,,,16,23,male,16,2022_May_09_1415,Partial repeat,2021.2.3,59.8389259270434,
8,8,0,1,2,3,2,2,1,1,0,1,1,0,0,0,91,91,91,0,0,0,0,,,,,,,1039.4858803991228,None,1039.974010899663,None,1040.887802598998,None,s,1,0.4727430995553732,1040.887802598998,None,None,None,,,,,,,16,23,male,16,2022_May_09_1415,Partial repeat,2021.2.3,59.8389259270434,
8,8,0,1,2,3,2,2,1,1,0,1,1,0,0,0,91,91,91,1,0,1,0,,,,,,,,,1041.3807906992733,None,1042.3418904989958,None,s,1,0.4667001999914646,1042.3418904989958,None,None,None,,,,,,,16,23,male,16,2022_May_09_1415,Partial repeat,2021.2.3,59.8389259270434,
8,8,0,1,2,3,2,2,1,1,0,1,1,0,0,0,91,91,91,,,,,,,,,,,,,,,,,,,,,,,,,,,,,,16,23,male,16,2022_May_09_1415,Partial repeat,2021.2.3,59.8389259270434,
7,1,0,1,2,2,2,2,1,0,1,1,0,0,0,0,92,92,92,0,0,0,0,,,,,,,1042.8196829985827,None,1043.8816736992449,None,1044.8288549985737,None,s,1,0.411692101508379,1044.8288549985737,None,None,None,,,,,,,16,23,male,16,2022_May_09_1415,Partial repeat,2021.2.3,59.8389259270434,
7,1,0,1,2,2,2,2,1,0,1,1,0,0,0,0,92,92,92,1,0,1,0,,,,,,,,,1045.2582938987762,None,1046.1981562990695,None,l,1,0.49838919937610626,1046.1981562990695,None,None,None,,,,,,,16,23,male,16,2022_May_09_1415,Partial repeat,2021.2.3,59.8389259270434,
7,1,0,1,2,2,2,2,1,0,1,1,0,0,0,0,92,92,92,,,,,,,,,,,,,,,,,,,,,,,,,,,,,,16,23,male,16,2022_May_09_1415,Partial repeat,2021.2.3,59.8389259270434,
2,1,0,1,2,2,1,1,1,1,1,1,1,0,0,0,93,93,93,0,0,0,0,,,,,,,1046.717090299353,None,1047.3551035989076,None,1048.1352046001703,None,s,1,0.5213342998176813,1048.1352046001703,None,None,None,,,,,,,16,23,male,16,2022_May_09_1415,Partial repeat,2021.2.3,59.8389259270434,
2,1,0,1,2,2,1,1,1,1,1,1,1,0,0,0,93,93,93,1,0,1,0,,,,,,,,,1048.6781695000827,None,1049.688264399767,None,s,1,0.4403351005166769,1049.688264399767,None,None,None,,,,,,,16,23,male,16,2022_May_09_1415,Partial repeat,2021.2.3,59.8389259270434,
2,1,0,1,2,2,1,1,1,1,1,1,1,0,0,0,93,93,93,,,,,,,,,,,,,,,,,,,,,,,,,,,,,,16,23,male,16,2022_May_09_1415,Partial repeat,2021.2.3,59.8389259270434,
4,3,0,1,3,3,2,2,1,0,1,1,0,0,0,0,94,94,94,0,0,0,0,,,,,,,1050.1427081990987,None,1050.8619400002062,None,1051.6923887003213,None,s,1,0.4921531993895769,1051.6923887003213,None,None,None,,,,,,,16,23,male,16,2022_May_09_1415,Partial repeat,2021.2.3,59.8389259270434,
4,3,0,1,3,3,2,2,1,0,1,1,0,0,0,0,94,94,94,1,0,1,0,,,,,,,,,1052.2065851986408,None,1053.0784257985651,None,l,1,0.5781180988997221,1053.0784257985651,None,None,None,,,,,,,16,23,male,16,2022_May_09_1415,Partial repeat,2021.2.3,59.8389259270434,
4,3,0,1,3,3,2,2,1,0,1,1,0,0,0,0,94,94,94,,,,,,,,,,,,,,,,,,,,,,,,,,,,,,16,23,male,16,2022_May_09_1415,Partial repeat,2021.2.3,59.8389259270434,
3,2,0,1,3,2,1,2,0,0,0,0,1,0,0,0,95,95,95,0,0,0,0,,,,,,,1053.6828907001764,None,1054.5690252985805,None,1055.3659160993993,None,l,1,0.5546482987701893,1055.3659160993993,None,None,None,,,,,,,16,23,male,16,2022_May_09_1415,Partial repeat,2021.2.3,59.8389259270434,
3,2,0,1,3,2,1,2,0,0,0,0,1,0,0,0,95,95,95,1,0,1,0,,,,,,,,,1055.945768199861,None,1056.885849500075,None,l,1,0.5307802986353636,1056.885849500075,None,None,None,,,,,,,16,23,male,16,2022_May_09_1415,Partial repeat,2021.2.3,59.8389259270434,
3,2,0,1,3,2,1,2,0,0,0,0,1,0,0,0,95,95,95,,,,,,,,,,,,,,,,,,,,,,,,,,,,,,16,23,male,16,2022_May_09_1415,Partial repeat,2021.2.3,59.8389259270434,
5,8,0,1,3,2,2,2,1,1,0,1,1,0,0,0,96,96,96,0,0,0,0,,,,,,,1057.4271740000695,None,1057.9256729986519,None,1058.9404616989195,None,s,1,0.5160636007785797,1058.9404616989195,None,None,None,,,,,,,16,23,male,16,2022_May_09_1415,Partial repeat,2021.2.3,59.8389259270434,
5,8,0,1,3,2,2,2,1,1,0,1,1,0,0,0,96,96,96,1,0,1,0,,,,,,,,,1059.4792472999543,None,1060.2925076000392,None,s,1,0.4040060993283987,1060.2925076000392,None,None,None,,,,,,,16,23,male,16,2022_May_09_1415,Partial repeat,2021.2.3,59.8389259270434,
5,8,0,1,3,2,2,2,1,1,0,1,1,0,0,0,96,96,96,,,,,,,,,,,,,,,,,,,,,,,,,,,,,,16,23,male,16,2022_May_09_1415,Partial repeat,2021.2.3,59.8389259270434,
5,1,0,1,2,2,1,2,0,0,1,0,1,0,0,0,97,97,97,0,0,0,0,,,,,,,1060.7254644986242,None,1061.1819965988398,None,1062.0625818986446,None,l,1,0.5139079000800848,1062.0625818986446,None,None,None,,,,,,,16,23,male,16,2022_May_09_1415,Partial repeat,2021.2.3,59.8389259270434,
5,1,0,1,2,2,1,2,0,0,1,0,1,0,0,0,97,97,97,1,0,1,0,,,,,,,,,1062.6015932001173,None,1063.4659430999309,None,l,1,0.4305680003017187,1063.4659430999309,None,None,None,,,,,,,16,23,male,16,2022_May_09_1415,Partial repeat,2021.2.3,59.8389259270434,
5,1,0,1,2,2,1,2,0,0,1,0,1,0,0,0,97,97,97,,,,,,,,,,,,,,,,,,,,,,,,,,,,,,16,23,male,16,2022_May_09_1415,Partial repeat,2021.2.3,59.8389259270434,
2,5,0,1,2,3,2,1,1,0,0,0,0,0,0,0,98,98,98,0,0,0,0,,,,,,,1063.922723999247,None,1064.4046753998846,None,1065.2708630003035,None,s,1,0.5536061991006136,1065.2708630003035,None,None,None,,,,,,,16,23,male,16,2022_May_09_1415,Partial repeat,2021.2.3,59.8389259270434,
2,5,0,1,2,3,2,1,1,0,0,0,0,0,0,0,98,98,98,1,0,1,0,,,,,,,,,1065.8392647989094,None,1066.771608799696,None,l,1,0.5169462002813816,1066.771608799696,None,None,None,,,,,,,16,23,male,16,2022_May_09_1415,Partial repeat,2021.2.3,59.8389259270434,
2,5,0,1,2,3,2,1,1,0,0,0,0,0,0,0,98,98,98,,,,,,,,,,,,,,,,,,,,,,,,,,,,,,16,23,male,16,2022_May_09_1415,Partial repeat,2021.2.3,59.8389259270434,
1,7,0,1,3,2,2,2,1,0,0,1,0,0,0,0,99,99,99,0,0,0,0,,,,,,,1067.3149001989514,None,1067.894795699045,None,1068.8600379992276,None,s,1,0.47655950114130974,1068.8600379992276,None,None,None,,,,,,,16,23,male,16,2022_May_09_1415,Partial repeat,2021.2.3,59.8389259270434,
1,7,0,1,3,2,2,2,1,0,0,1,0,0,0,0,99,99,99,1,0,1,0,,,,,,,,,1069.357495199889,None,1070.1953159999102,None,l,1,0.49322110041975975,1070.1953159999102,None,None,None,,,,,,,16,23,male,16,2022_May_09_1415,Partial repeat,2021.2.3,59.8389259270434,
1,7,0,1,3,2,2,2,1,0,0,1,0,0,0,0,99,99,99,,,,,,,,,,,,,,,,,,,,,,,,,,,,,,16,23,male,16,2022_May_09_1415,Partial repeat,2021.2.3,59.8389259270434,
3,5,0,1,3,3,1,2,0,0,1,0,1,0,0,0,100,100,100,0,0,0,0,,,,,,,1070.7203267998993,None,1071.1680177003145,None,1071.9499832987785,None,l,1,0.5945087000727654,1071.9499832987785,None,None,None,,,,,,,16,23,male,16,2022_May_09_1415,Partial repeat,2021.2.3,59.8389259270434,
3,5,0,1,3,3,1,2,0,0,1,0,1,0,0,0,100,100,100,1,0,1,0,,,,,,,,,1072.5649643987417,None,1073.5177560988814,None,l,1,0.4667939990758896,1073.5177560988814,None,None,None,,,,,,,16,23,male,16,2022_May_09_1415,Partial repeat,2021.2.3,59.8389259270434,
3,5,0,1,3,3,1,2,0,0,1,0,1,0,0,0,100,100,100,,,,,,,,,,,,,,,,,,,,,,,,,,,,,,16,23,male,16,2022_May_09_1415,Partial repeat,2021.2.3,59.8389259270434,
1,3,0,1,2,3,1,1,1,1,0,1,1,0,0,0,101,101,101,0,0,0,0,,,,,,,1074.0050591994077,None,1074.4244292993098,None,1075.355163699016,None,s,1,0.4773965012282133,1075.355163699016,None,None,None,,,,,,,16,23,male,16,2022_May_09_1415,Partial repeat,2021.2.3,59.8389259270434,
1,3,0,1,2,3,1,1,1,1,0,1,1,0,0,0,101,101,101,1,0,1,0,,,,,,,,,1075.8455611988902,None,1076.6575419995934,None,s,1,0.5750452000647783,1076.6575419995934,None,None,None,,,,,,,16,23,male,16,2022_May_09_1415,Partial repeat,2021.2.3,59.8389259270434,
1,3,0,1,2,3,1,1,1,1,0,1,1,0,0,0,101,101,101,,,,,,,,,,,,,,,,,,,,,,,,,,,,,,16,23,male,16,2022_May_09_1415,Partial repeat,2021.2.3,59.8389259270434,
6,2,0,1,3,3,1,1,1,0,1,1,0,0,0,0,102,102,102,0,0,0,0,,,,,,,1077.2428425997496,None,1077.8477002996951,None,1078.7114474996924,None,s,1,0.4891638997942209,1078.7114474996924,None,None,None,,,,,,,16,23,male,16,2022_May_09_1415,Partial repeat,2021.2.3,59.8389259270434,
6,2,0,1,3,3,1,1,1,0,1,1,0,0,0,0,102,102,102,1,0,1,0,,,,,,,,,1079.2227312996984,None,1080.0639979988337,None,l,1,0.5365463998168707,1080.0639979988337,None,None,None,,,,,,,16,23,male,16,2022_May_09_1415,Partial repeat,2021.2.3,59.8389259270434,
6,2,0,1,3,3,1,1,1,0,1,1,0,0,0,0,102,102,102,,,,,,,,,,,,,,,,,,,,,,,,,,,,,,16,23,male,16,2022_May_09_1415,Partial repeat,2021.2.3,59.8389259270434,
4,5,0,1,2,2,1,1,0,1,1,1,0,0,0,0,103,103,103,0,0,0,0,,,,,,,1080.624155798927,None,1081.0540020987391,None,1081.9677242990583,None,l,1,0.5288843009620905,1081.9677242990583,None,None,None,,,,,,,16,23,male,16,2022_May_09_1415,Partial repeat,2021.2.3,59.8389259270434,
4,5,0,1,2,2,1,1,0,1,1,1,0,0,0,0,103,103,103,1,0,1,0,,,,,,,,,1082.5239435993135,None,1083.438242899254,None,s,1,0.44227389991283417,1083.438242899254,None,None,None,,,,,,,16,23,male,16,2022_May_09_1415,Partial repeat,2021.2.3,59.8389259270434,
4,5,0,1,2,2,1,1,0,1,1,1,0,0,0,0,103,103,103,,,,,,,,,,,,,,,,,,,,,,,,,,,,,,16,23,male,16,2022_May_09_1415,Partial repeat,2021.2.3,59.8389259270434,
3,6,0,1,3,3,1,1,0,0,1,1,1,0,0,0,104,104,104,0,0,0,0,,,,,,,1083.8991556987166,None,1084.4772741999477,None,1085.491700898856,None,l,1,0.47681340016424656,1085.491700898856,None,None,None,,,,,,,16,23,male,16,2022_May_09_1415,Partial repeat,2021.2.3,59.8389259270434,
3,6,0,1,3,3,1,1,0,0,1,1,1,0,0,0,104,104,104,1,0,1,0,,,,,,,,,1085.987131498754,None,1086.8273024000227,None,l,1,0.5093571990728378,1086.8273024000227,None,None,None,,,,,,,16,23,male,16,2022_May_09_1415,Partial repeat,2021.2.3,59.8389259270434,
3,6,0,1,3,3,1,1,0,0,1,1,1,0,0,0,104,104,104,,,,,,,,,,,,,,,,,,,,,,,,,,,,,,16,23,male,16,2022_May_09_1415,Partial repeat,2021.2.3,59.8389259270434,
4,2,0,1,3,2,2,1,0,0,0,0,1,0,0,0,105,105,105,0,0,0,0,,,,,,,1087.3479698002338,None,1088.501801399514,None,1089.4823995996267,None,l,1,0.5261863004416227,1089.4823995996267,None,None,None,,,,,,,16,23,male,16,2022_May_09_1415,Partial repeat,2021.2.3,59.8389259270434,
4,2,0,1,3,2,2,1,0,0,0,0,1,0,0,0,105,105,105,1,0,1,0,,,,,,,,,1090.0374419,None,1090.9017960987985,None,l,1,0.43475160002708435,1090.9017960987985,None,None,None,,,,,,,16,23,male,16,2022_May_09_1415,Partial repeat,2021.2.3,59.8389259270434,
4,2,0,1,3,2,2,1,0,0,0,0,1,0,0,0,105,105,105,,,,,,,,,,,,,,,,,,,,,,,,,,,,,,16,23,male,16,2022_May_09_1415,Partial repeat,2021.2.3,59.8389259270434,
1,5,0,1,3,3,1,1,0,1,1,1,0,0,0,0,106,106,106,0,0,0,0,,,,,,,1091.3553400989622,None,1091.9584686998278,None,1092.955767199397,None,l,1,0.476783299818635,1092.955767199397,None,None,None,,,,,,,16,23,male,16,2022_May_09_1415,Partial repeat,2021.2.3,59.8389259270434,
1,5,0,1,3,3,1,1,0,1,1,1,0,0,0,0,106,106,106,1,0,1,0,,,,,,,,,1093.4508202988654,None,1094.3418166991323,None,s,1,0.5706869997084141,1094.3418166991323,None,None,None,,,,,,,16,23,male,16,2022_May_09_1415,Partial repeat,2021.2.3,59.8389259270434,
1,5,0,1,3,3,1,1,0,1,1,1,0,0,0,0,106,106,106,,,,,,,,,,,,,,,,,,,,,,,,,,,,,,16,23,male,16,2022_May_09_1415,Partial repeat,2021.2.3,59.8389259270434,
8,3,0,1,3,2,2,1,0,1,0,0,0,0,0,0,107,107,107,0,0,0,0,,,,,,,1094.9230265002698,None,1095.4486739002168,None,1096.2792125996202,None,l,1,0.5213362015783787,1096.2792125996202,None,None,None,,,,,,,16,23,male,16,2022_May_09_1415,Partial repeat,2021.2.3,59.8389259270434,
8,3,0,1,3,2,2,1,0,1,0,0,0,0,0,0,107,107,107,1,0,1,0,,,,,,,,,1096.8138056993484,None,1097.6148655992001,None,s,1,0.5777182001620531,1097.6148655992001,None,None,None,,,,,,,16,23,male,16,2022_May_09_1415,Partial repeat,2021.2.3,59.8389259270434,
8,3,0,1,3,2,2,1,0,1,0,0,0,0,0,0,107,107,107,,,,,,,,,,,,,,,,,,,,,,,,,,,,,,16,23,male,16,2022_May_09_1415,Partial repeat,2021.2.3,59.8389259270434,
1,4,0,1,3,3,1,2,1,0,1,0,0,0,0,0,108,108,108,0,0,0,0,,,,,,,1098.2175880987197,None,1098.8886465001851,None,1099.6187616996467,None,s,1,0.48581700026988983,1099.6187616996467,None,None,None,,,,,,,16,23,male,16,2022_May_09_1415,Partial repeat,2021.2.3,59.8389259270434,
1,4,0,1,3,3,1,2,1,0,1,0,0,0,0,0,108,108,108,1,0,1,0,,,,,,,,,1100.1333830989897,None,1101.155187498778,None,l,1,0.4933643005788326,1101.155187498778,None,None,None,,,,,,,16,23,male,16,2022_May_09_1415,Partial repeat,2021.2.3,59.8389259270434,
1,4,0,1,3,3,1,2,1,0,1,0,0,0,0,0,108,108,108,,,,,,,,,,,,,,,,,,,,,,,,,,,,,,16,23,male,16,2022_May_09_1415,Partial repeat,2021.2.3,59.8389259270434,
3,3,0,1,2,3,1,2,0,1,0,0,0,0,0,0,109,109,109,0,0,0,0,,,,,,,1101.6754350997508,None,1102.1283547990024,None,1102.9752845987678,None,l,1,0.4412718005478382,1102.9752845987678,None,None,None,,,,,,,16,23,male,16,2022_May_09_1415,Partial repeat,2021.2.3,59.8389259270434,
3,3,0,1,2,3,1,2,0,1,0,0,0,0,0,0,109,109,109,1,0,1,0,,,,,,,,,1103.4283203985542,None,1104.4281310997903,None,s,1,0.5484054014086723,1104.4281310997903,None,None,None,,,,,,,16,23,male,16,2022_May_09_1415,Partial repeat,2021.2.3,59.8389259270434,
3,3,0,1,2,3,1,2,0,1,0,0,0,0,0,0,109,109,109,,,,,,,,,,,,,,,,,,,,,,,,,,,,,,16,23,male,16,2022_May_09_1415,Partial repeat,2021.2.3,59.8389259270434,
2,4,0,1,3,2,1,2,1,1,0,0,1,0,0,0,110,110,110,0,0,0,0,,,,,,,1104.9905225001276,None,1105.5683685988188,None,1106.4323664996773,None,s,1,0.4801815003156662,1106.4323664996773,None,None,None,,,,,,,16,23,male,16,2022_May_09_1415,Partial repeat,2021.2.3,59.8389259270434,
2,4,0,1,3,2,1,2,1,1,0,0,1,0,0,0,110,110,110,1,0,1,0,,,,,,,,,1106.9335976988077,None,1107.8518869001418,None,s,1,0.45267219841480255,1107.8518869001418,None,None,None,,,,,,,16,23,male,16,2022_May_09_1415,Partial repeat,2021.2.3,59.8389259270434,
2,4,0,1,3,2,1,2,1,1,0,0,1,0,0,0,110,110,110,,,,,,,,,,,,,,,,,,,,,,,,,,,,,,16,23,male,16,2022_May_09_1415,Partial repeat,2021.2.3,59.8389259270434,
6,8,0,1,2,3,1,1,0,1,0,1,0,0,0,0,111,111,111,0,0,0,0,,,,,,,1108.3296501003206,None,1108.7913093995303,None,1109.554907798767,None,l,1,0.5256996992975473,1109.554907798767,None,None,None,,,,,,,16,23,male,16,2022_May_09_1415,Partial repeat,2021.2.3,59.8389259270434,
6,8,0,1,2,3,1,1,0,1,0,1,0,0,0,0,111,111,111,1,0,1,0,,,,,,,,,1110.0921815000474,None,1110.9240927994251,None,s,1,0.524465300142765,1110.9240927994251,None,None,None,,,,,,,16,23,male,16,2022_May_09_1415,Partial repeat,2021.2.3,59.8389259270434,
6,8,0,1,2,3,1,1,0,1,0,1,0,0,0,0,111,111,111,,,,,,,,,,,,,,,,,,,,,,,,,,,,,,16,23,male,16,2022_May_09_1415,Partial repeat,2021.2.3,59.8389259270434,
5,4,0,1,2,2,1,2,1,1,1,0,1,0,0,0,112,112,112,0,0,0,0,,,,,,,1111.4639360997826,None,1111.9474276993424,None,1112.7945831995457,None,s,1,0.45395199954509735,1112.7945831995457,None,None,None,,,,,,,16,23,male,16,2022_May_09_1415,Partial repeat,2021.2.3,59.8389259270434,
5,4,0,1,2,2,1,2,1,1,1,0,1,0,0,0,112,112,112,1,0,1,0,,,,,,,,,1113.265605399385,None,1114.11355930008,None,s,1,0.4789940007030964,1114.11355930008,None,None,None,,,,,,,16,23,male,16,2022_May_09_1415,Partial repeat,2021.2.3,59.8389259270434,
5,4,0,1,2,2,1,2,1,1,1,0,1,0,0,0,112,112,112,,,,,,,,,,,,,,,,,,,,,,,,,,,,,,16,23,male,16,2022_May_09_1415,Partial repeat,2021.2.3,59.8389259270434,
6,1,0,1,2,2,2,1,1,1,1,0,1,0,0,0,113,113,113,0,0,0,0,,,,,,,1114.6123353987932,None,1115.1536782998592,None,1116.151932099834,None,s,1,0.40058659948408604,1116.151932099834,None,None,None,,,,,,,16,23,male,16,2022_May_09_1415,Partial repeat,2021.2.3,59.8389259270434,
6,1,0,1,2,2,2,1,1,1,1,0,1,0,0,0,113,113,113,1,0,1,0,,,,,,,,,1116.562105199322,None,1117.586980799213,None,s,1,0.5497678983956575,1117.586980799213,None,None,None,,,,,,,16,23,male,16,2022_May_09_1415,Partial repeat,2021.2.3,59.8389259270434,
6,1,0,1,2,2,2,1,1,1,1,0,1,0,0,0,113,113,113,,,,,,,,,,,,,,,,,,,,,,,,,,,,,,16,23,male,16,2022_May_09_1415,Partial repeat,2021.2.3,59.8389259270434,
5,3,0,1,2,3,2,1,1,1,0,0,1,0,0,0,114,114,114,0,0,0,0,,,,,,,1118.1480315998197,None,1118.6435540989041,None,1119.6577402986586,None,s,1,0.43880819901824,1119.6577402986586,None,None,None,,,,,,,16,23,male,16,2022_May_09_1415,Partial repeat,2021.2.3,59.8389259270434,
5,3,0,1,2,3,2,1,1,1,0,0,1,0,0,0,114,114,114,1,0,1,0,,,,,,,,,1120.1078727003187,None,1120.8436488993466,None,s,1,0.5088902991265059,1120.8436488993466,None,None,None,,,,,,,16,23,male,16,2022_May_09_1415,Partial repeat,2021.2.3,59.8389259270434,
5,3,0,1,2,3,2,1,1,1,0,0,1,0,0,0,114,114,114,,,,,,,,,,,,,,,,,,,,,,,,,,,,,,16,23,male,16,2022_May_09_1415,Partial repeat,2021.2.3,59.8389259270434,
6,5,0,1,3,3,2,2,0,1,1,1,0,0,0,0,115,115,115,0,0,0,0,,,,,,,1121.3769179992378,None,1121.9001240003854,None,1122.7472134996206,None,l,1,0.5813565999269485,1122.7472134996206,None,None,None,,,,,,,16,23,male,16,2022_May_09_1415,Partial repeat,2021.2.3,59.8389259270434,
6,5,0,1,3,3,2,2,0,1,1,1,0,0,0,0,115,115,115,1,0,1,0,,,,,,,,,1123.3432380985469,None,1124.0666681993753,None,s,1,0.5338618997484446,1124.0666681993753,None,None,None,,,,,,,16,23,male,16,2022_May_09_1415,Partial repeat,2021.2.3,59.8389259270434,
6,5,0,1,3,3,2,2,0,1,1,1,0,0,0,0,115,115,115,,,,,,,,,,,,,,,,,,,,,,,,,,,,,,16,23,male,16,2022_May_09_1415,Partial repeat,2021.2.3,59.8389259270434,
6,4,0,1,2,3,2,2,0,0,0,1,1,0,0,0,116,116,116,0,0,0,0,,,,,,,1124.630699498579,None,1125.1063769999892,None,1126.0880046002567,None,l,1,0.5525318998843431,1126.0880046002567,None,None,None,,,,,,,16,23,male,16,2022_May_09_1415,Partial repeat,2021.2.3,59.8389259270434,
6,4,0,1,2,3,2,2,0,0,0,1,1,0,0,0,116,116,116,1,0,1,0,,,,,,,,,1126.6664330996573,None,1127.5901302993298,None,l,1,0.5464197006076574,1127.5901302993298,None,None,None,,,,,,,16,23,male,16,2022_May_09_1415,Partial repeat,2021.2.3,59.8389259270434,
6,4,0,1,2,3,2,2,0,0,0,1,1,0,0,0,116,116,116,,,,,,,,,,,,,,,,,,,,,,,,,,,,,,16,23,male,16,2022_May_09_1415,Partial repeat,2021.2.3,59.8389259270434,
2,6,0,1,3,2,2,1,1,0,0,0,0,0,0,0,117,117,117,0,0,0,0,,,,,,,1128.1545692998916,None,1128.8469527997077,None,1129.6605476997793,None,s,1,0.5159943010658026,1129.6605476997793,None,None,None,,,,,,,16,23,male,16,2022_May_09_1415,Partial repeat,2021.2.3,59.8389259270434,
2,6,0,1,3,2,2,1,1,0,0,0,0,0,0,0,117,117,117,1,0,1,0,,,,,,,,,1130.1952561996877,None,1131.0298311989754,None,l,1,0.5547593999654055,1131.0298311989754,None,None,None,,,,,,,16,23,male,16,2022_May_09_1415,Partial repeat,2021.2.3,59.8389259270434,
2,6,0,1,3,2,2,1,1,0,0,0,0,0,0,0,117,117,117,,,,,,,,,,,,,,,,,,,,,,,,,,,,,,16,23,male,16,2022_May_09_1415,Partial repeat,2021.2.3,59.8389259270434,
4,1,0,1,2,3,1,2,1,0,0,0,0,0,0,0,118,118,118,0,0,0,0,,,,,,,1131.6142737995833,None,1133.773221200332,None,1134.6704262997955,None,s,1,0.5461148004978895,1134.6704262997955,None,None,None,,,,,,,16,23,male,16,2022_May_09_1415,Partial repeat,2021.2.3,59.8389259270434,
4,1,0,1,2,3,1,2,1,0,0,0,0,0,0,0,118,118,118,1,0,1,0,,,,,,,,,1135.2259198985994,None,1136.1233622990549,None,l,1,0.47719530016183853,1136.1233622990549,None,None,None,,,,,,,16,23,male,16,2022_May_09_1415,Partial repeat,2021.2.3,59.8389259270434,
4,1,0,1,2,3,1,2,1,0,0,0,0,0,0,0,118,118,118,,,,,,,,,,,,,,,,,,,,,,,,,,,,,,16,23,male,16,2022_May_09_1415,Partial repeat,2021.2.3,59.8389259270434,
1,1,0,1,2,2,2,1,0,0,1,0,1,0,0,0,119,119,119,0,0,0,0,,,,,,,1136.6206836998463,None,1137.4804736990482,None,1138.4110674988478,None,l,1,0.4455008991062641,1138.4110674988478,None,None,None,,,,,,,16,23,male,16,2022_May_09_1415,Partial repeat,2021.2.3,59.8389259270434,
1,1,0,1,2,2,2,1,0,0,1,0,1,0,0,0,119,119,119,1,0,1,0,,,,,,,,,1138.8795670997351,None,1139.6645785998553,None,l,1,0.4079721011221409,1139.6645785998553,None,None,None,,,,,,,16,23,male,16,2022_May_09_1415,Partial repeat,2021.2.3,59.8389259270434,
1,1,0,1,2,2,2,1,0,0,1,0,1,0,0,0,119,119,119,,,,,,,,,,,,,,,,,,,,,,,,,,,,,,16,23,male,16,2022_May_09_1415,Partial repeat,2021.2.3,59.8389259270434,
7,2,0,1,2,3,1,2,0,0,0,0,1,0,0,0,120,120,120,0,0,0,0,,,,,,,1140.1012907996774,None,1140.6533102001995,None,1141.4010821003467,None,l,1,0.5754655003547668,1141.4010821003467,None,None,None,,,,,,,16,23,male,16,2022_May_09_1415,Partial repeat,2021.2.3,59.8389259270434,
7,2,0,1,2,3,1,2,0,0,0,0,1,0,0,0,120,120,120,1,0,1,0,,,,,,,,,1142.000497199595,None,1142.8363426998258,None,l,1,0.41221330128610134,1142.8363426998258,None,None,None,,,,,,,16,23,male,16,2022_May_09_1415,Partial repeat,2021.2.3,59.8389259270434,
7,2,0,1,2,3,1,2,0,0,0,0,1,0,0,0,120,120,120,,,,,,,,,,,,,,,,,,,,,,,,,,,,,,16,23,male,16,2022_May_09_1415,Partial repeat,2021.2.3,59.8389259270434,
2,8,0,1,3,3,2,2,0,0,1,1,1,0,0,0,121,121,121,0,0,0,0,,,,,,,1143.270312199369,None,1143.6925358995795,None,1144.4563041999936,None,l,1,0.4322570003569126,1144.4563041999936,None,None,None,,,,,,,16,23,male,16,2022_May_09_1415,Partial repeat,2021.2.3,59.8389259270434,
2,8,0,1,3,3,2,2,0,0,1,1,1,0,0,0,121,121,121,1,0,1,0,,,,,,,,,1144.9111543986946,None,1145.6418445985764,None,l,1,0.44668749906122684,1145.6418445985764,None,None,None,,,,,,,16,23,male,16,2022_May_09_1415,Partial repeat,2021.2.3,59.8389259270434,
2,8,0,1,3,3,2,2,0,0,1,1,1,0,0,0,121,121,121,,,,,,,,,,,,,,,,,,,,,,,,,,,,,,16,23,male,16,2022_May_09_1415,Partial repeat,2021.2.3,59.8389259270434,
7,6,0,1,3,3,1,2,0,1,1,0,0,0,0,0,122,122,122,0,0,0,0,,,,,,,1146.119458399713,None,1146.5981376990676,None,1147.5809492990375,None,l,1,0.4835952017456293,1147.5809492990375,None,None,None,,,,,,,16,23,male,16,2022_May_09_1415,Partial repeat,2021.2.3,59.8389259270434,
7,6,0,1,3,3,1,2,0,1,1,0,0,0,0,0,122,122,122,1,0,1,0,,,,,,,,,1148.0785191003233,None,1148.8984075002372,None,s,1,0.41414299979805946,1148.8984075002372,None,None,None,,,,,,,16,23,male,16,2022_May_09_1415,Partial repeat,2021.2.3,59.8389259270434,
7,6,0,1,3,3,1,2,0,1,1,0,0,0,0,0,122,122,122,,,,,,,,,,,,,,,,,,,,,,,,,,,,,,16,23,male,16,2022_May_09_1415,Partial repeat,2021.2.3,59.8389259270434,
6,6,0,1,2,3,2,2,0,1,0,1,0,0,0,0,123,123,123,0,0,0,0,,,,,,,1149.331358699128,None,1149.9046559985727,None,1150.6346805989742,None,l,1,0.4938613008707762,1150.6346805989742,None,None,None,,,,,,,16,23,male,16,2022_May_09_1415,Partial repeat,2021.2.3,59.8389259270434,
6,6,0,1,2,3,2,2,0,1,0,1,0,0,0,0,123,123,123,1,0,1,0,,,,,,,,,1151.1523758992553,None,1151.9550361000001,None,s,1,0.509587399661541,1151.9550361000001,None,None,None,,,,,,,16,23,male,16,2022_May_09_1415,Partial repeat,2021.2.3,59.8389259270434,
6,6,0,1,2,3,2,2,0,1,0,1,0,0,0,0,123,123,123,,,,,,,,,,,,,,,,,,,,,,,,,,,,,,16,23,male,16,2022_May_09_1415,Partial repeat,2021.2.3,59.8389259270434,
4,4,0,1,2,2,2,2,0,0,1,1,1,0,0,0,124,124,124,0,0,0,0,,,,,,,1152.4771650992334,None,1152.8771055992693,None,1153.6240771003067,None,l,1,0.49644479900598526,1153.6240771003067,None,None,None,,,,,,,16,23,male,16,2022_May_09_1415,Partial repeat,2021.2.3,59.8389259270434,
4,4,0,1,2,2,2,2,0,0,1,1,1,0,0,0,124,124,124,1,0,1,0,,,,,,,,,1154.1381858997047,None,1155.0766915995628,None,l,1,0.7558258008211851,1155.0766915995628,None,None,None,,,,,,,16,23,male,16,2022_May_09_1415,Partial repeat,2021.2.3,59.8389259270434,
4,4,0,1,2,2,2,2,0,0,1,1,1,0,0,0,124,124,124,,,,,,,,,,,,,,,,,,,,,,,,,,,,,,16,23,male,16,2022_May_09_1415,Partial repeat,2021.2.3,59.8389259270434,
8,5,0,1,2,3,1,2,1,1,0,0,1,0,0,0,125,125,125,0,0,0,0,,,,,,,1155.8498371988535,None,1156.3671991992742,None,1157.097203599289,None,s,1,0.7433392014354467,1157.097203599289,None,None,None,,,,,,,16,23,male,16,2022_May_09_1415,Partial repeat,2021.2.3,59.8389259270434,
8,5,0,1,2,3,1,2,1,1,0,0,1,0,0,0,125,125,125,1,0,1,0,,,,,,,,,1157.8627099003643,None,1158.834006300196,None,s,1,0.42249760031700134,1158.834006300196,None,None,None,,,,,,,16,23,male,16,2022_May_09_1415,Partial repeat,2021.2.3,59.8389259270434,
8,5,0,1,2,3,1,2,1,1,0,0,1,0,0,0,125,125,125,,,,,,,,,,,,,,,,,,,,,,,,,,,,,,16,23,male,16,2022_May_09_1415,Partial repeat,2021.2.3,59.8389259270434,
8,2,0,1,3,3,2,1,0,1,1,0,0,0,0,0,126,126,126,0,0,0,0,,,,,,,1159.2681702990085,None,1159.6569066997617,None,1160.437429100275,None,l,1,0.5711221005767584,1160.437429100275,None,None,None,,,,,,,16,23,male,16,2022_May_09_1415,Partial repeat,2021.2.3,59.8389259270434,
8,2,0,1,3,3,2,1,0,1,1,0,0,0,0,0,126,126,126,1,0,1,0,,,,,,,,,1161.0306780003011,None,1162.040516199544,None,s,1,0.5200308002531528,1162.040516199544,None,None,None,,,,,,,16,23,male,16,2022_May_09_1415,Partial repeat,2021.2.3,59.8389259270434,
8,2,0,1,3,3,2,1,0,1,1,0,0,0,0,0,126,126,126,,,,,,,,,,,,,,,,,,,,,,,,,,,,,,16,23,male,16,2022_May_09_1415,Partial repeat,2021.2.3,59.8389259270434,
7,8,0,1,3,2,1,1,1,0,0,1,0,0,0,0,127,127,127,0,0,0,0,,,,,,,1162.58806299977,None,1162.963394999504,None,1163.7602519989014,None,s,1,0.6083375997841358,1163.7602519989014,None,None,None,,,,,,,16,23,male,16,2022_May_09_1415,Partial repeat,2021.2.3,59.8389259270434,
7,8,0,1,3,2,1,1,1,0,0,1,0,0,0,0,127,127,127,1,0,1,0,,,,,,,,,1164.3826802987605,None,1165.3803420998156,None,l,1,0.5482892002910376,1165.3803420998156,None,None,None,,,,,,,16,23,male,16,2022_May_09_1415,Partial repeat,2021.2.3,59.8389259270434,
7,8,0,1,3,2,1,1,1,0,0,1,0,0,0,0,127,127,127,,,,,,,,,,,,,,,,,,,,,,,,,,,,,,16,23,male,16,2022_May_09_1415,Partial repeat,2021.2.3,59.8389259270434,
1,1,0,1,2,2,1,2,0,0,1,0,1,1,0,0,128,128,128,0,0,0,0,,,,,,,1171.592366900295,None,1172.3816799987108,None,1173.2799047995359,None,l,1,0.4647195991128683,1173.2799047995359,None,None,None,,,,,,,16,23,male,16,2022_May_09_1415,Partial repeat,2021.2.3,59.8389259270434,
1,1,0,1,2,2,1,2,0,0,1,0,1,1,0,0,128,128,128,1,0,1,0,,,,,,,,,1173.7535234987736,None,1174.4980151988566,None,l,1,0.430546298623085,1174.4980151988566,None,None,None,,,,,,,16,23,male,16,2022_May_09_1415,Partial repeat,2021.2.3,59.8389259270434,
1,1,0,1,2,2,1,2,0,0,1,0,1,1,0,0,128,128,128,,,,,,,,,,,,,,,,,,,,,,,,,,,,,,16,23,male,16,2022_May_09_1415,Partial repeat,2021.2.3,59.8389259270434,
1,1,0,1,3,3,2,1,1,0,1,0,0,1,0,0,129,129,129,0,0,0,0,,,,,,,1174.9544085990638,None,1175.4209684990346,None,1176.3181373998523,None,s,1,0.48239680007100105,1176.3181373998523,None,None,None,,,,,,,16,23,male,16,2022_May_09_1415,Partial repeat,2021.2.3,59.8389259270434,
1,1,0,1,3,3,2,1,1,0,1,0,0,1,0,0,129,129,129,1,0,1,0,,,,,,,,,1176.8120894990861,None,1177.57080199942,None,l,1,0.47775520011782646,1177.57080199942,None,None,None,,,,,,,16,23,male,16,2022_May_09_1415,Partial repeat,2021.2.3,59.8389259270434,
1,1,0,1,3,3,2,1,1,0,1,0,0,1,0,0,129,129,129,,,,,,,,,,,,,,,,,,,,,,,,,,,,,,16,23,male,16,2022_May_09_1415,Partial repeat,2021.2.3,59.8389259270434,
1,1,0,1,3,3,2,1,0,0,1,0,1,1,0,0,130,130,130,0,0,0,0,,,,,,,1178.0714189000428,None,1178.5436662994325,None,1179.3406287003309,None,l,1,0.9239275008440018,1179.3406287003309,None,None,None,,,,,,,16,23,male,16,2022_May_09_1415,Partial repeat,2021.2.3,59.8389259270434,
1,1,0,1,3,3,2,1,0,0,1,0,1,1,0,0,130,130,130,1,0,1,0,,,,,,,,,1180.2775782998651,None,1181.1777726002038,None,l,1,0.5587910991162062,1181.1777726002038,None,None,None,,,,,,,16,23,male,16,2022_May_09_1415,Partial repeat,2021.2.3,59.8389259270434,
1,1,0,1,3,3,2,1,0,0,1,0,1,1,0,0,130,130,130,,,,,,,,,,,,,,,,,,,,,,,,,,,,,,16,23,male,16,2022_May_09_1415,Partial repeat,2021.2.3,59.8389259270434,
1,1,0,1,2,3,2,1,0,0,0,0,1,1,0,0,131,131,131,0,0,0,0,,,,,,,1181.75968080014,None,1182.2008274998516,None,1183.032077100128,None,l,1,0.40853470005095005,1183.032077100128,None,None,None,,,,,,,16,23,male,16,2022_May_09_1415,Partial repeat,2021.2.3,59.8389259270434,
1,1,0,1,2,3,2,1,0,0,0,0,1,1,0,0,131,131,131,1,0,1,0,,,,,,,,,1183.4635317996144,None,1184.4504557996988,None,l,1,0.4380623996257782,1184.4504557996988,None,None,None,,,,,,,16,23,male,16,2022_May_09_1415,Partial repeat,2021.2.3,59.8389259270434,
1,1,0,1,2,3,2,1,0,0,0,0,1,1,0,0,131,131,131,,,,,,,,,,,,,,,,,,,,,,,,,,,,,,16,23,male,16,2022_May_09_1415,Partial repeat,2021.2.3,59.8389259270434,
1,1,0,1,3,3,2,1,1,1,1,0,1,1,0,0,132,132,132,0,0,0,0,,,,,,,1184.9056221991777,None,1185.2901456989348,None,1186.2541949003935,None,s,1,0.5223586987704039,1186.2541949003935,None,None,None,,,,,,,16,23,male,16,2022_May_09_1415,Partial repeat,2021.2.3,59.8389259270434,
1,1,0,1,3,3,2,1,1,1,1,0,1,1,0,0,132,132,132,1,0,1,0,,,,,,,,,1186.7964280992746,None,1187.6065165996552,None,s,1,0.4821146000176668,1187.6065165996552,None,None,None,,,,,,,16,23,male,16,2022_May_09_1415,Partial repeat,2021.2.3,59.8389259270434,
1,1,0,1,3,3,2,1,1,1,1,0,1,1,0,0,132,132,132,,,,,,,,,,,,,,,,,,,,,,,,,,,,,,16,23,male,16,2022_May_09_1415,Partial repeat,2021.2.3,59.8389259270434,
1,1,0,1,2,3,1,2,1,0,0,0,0,1,0,0,133,133,133,0,0,0,0,,,,,,,1188.1005336996168,None,1188.5297890994698,None,1189.5439841002226,None,s,1,0.4325652997940779,1189.5439841002226,None,None,None,,,,,,,16,23,male,16,2022_May_09_1415,Partial repeat,2021.2.3,59.8389259270434,
1,1,0,1,2,3,1,2,1,0,0,0,0,1,0,0,133,133,133,1,0,1,0,,,,,,,,,1189.993829799816,None,1190.9130946993828,None,l,1,0.3674637991935015,1190.9130946993828,None,None,None,,,,,,,16,23,male,16,2022_May_09_1415,Partial repeat,2021.2.3,59.8389259270434,
1,1,0,1,2,3,1,2,1,0,0,0,0,1,0,0,133,133,133,,,,,,,,,,,,,,,,,,,,,,,,,,,,,,16,23,male,16,2022_May_09_1415,Partial repeat,2021.2.3,59.8389259270434,
1,1,0,1,3,3,2,2,0,1,1,1,0,1,0,0,134,134,134,0,0,0,0,,,,,,,1191.3059789985418,None,1191.6691857986152,None,1192.4337140992284,None,l,1,0.4148294012993574,1192.4337140992284,None,None,None,,,,,,,16,23,male,16,2022_May_09_1415,Partial repeat,2021.2.3,59.8389259270434,
1,1,0,1,3,3,2,2,0,1,1,1,0,1,0,0,134,134,134,1,0,1,0,,,,,,,,,1192.865466300398,None,1193.7184902988374,None,s,1,0.4661675002425909,1193.7184902988374,None,None,None,,,,,,,16,23,male,16,2022_May_09_1415,Partial repeat,2021.2.3,59.8389259270434,
1,1,0,1,3,3,2,2,0,1,1,1,0,1,0,0,134,134,134,,,,,,,,,,,,,,,,,,,,,,,,,,,,,,16,23,male,16,2022_May_09_1415,Partial repeat,2021.2.3,59.8389259270434,
1,1,0,1,2,3,1,1,0,1,0,1,0,1,0,0,135,135,135,0,0,0,0,,,,,,,1194.1960402000695,None,1194.6248374003917,None,1195.5055297985673,None,l,1,0.4870203994214535,1195.5055297985673,None,None,None,,,,,,,16,23,male,16,2022_May_09_1415,Partial repeat,2021.2.3,59.8389259270434,
1,1,0,1,2,3,1,1,0,1,0,1,0,1,0,0,135,135,135,1,0,1,0,,,,,,,,,1196.0198083985597,None,1196.8579532001168,None,s,1,0.43863319978117943,1196.8579532001168,None,None,None,,,,,,,16,23,male,16,2022_May_09_1415,Partial repeat,2021.2.3,59.8389259270434,
1,1,0,1,2,3,1,1,0,1,0,1,0,1,0,0,135,135,135,,,,,,,,,,,,,,,,,,,,,,,,,,,,,,16,23,male,16,2022_May_09_1415,Partial repeat,2021.2.3,59.8389259270434,
1,1,0,1,3,2,2,1,1,1,0,0,1,1,0,0,136,136,136,0,0,0,0,,,,,,,1197.3155485000461,None,1197.847897099331,None,1198.761946098879,None,s,1,0.3746380992233753,1198.761946098879,None,None,None,,,,,,,16,23,male,16,2022_May_09_1415,Partial repeat,2021.2.3,59.8389259270434,
1,1,0,1,3,2,2,1,1,1,0,0,1,1,0,0,136,136,136,1,0,1,0,,,,,,,,,1199.1481916997582,None,1200.030880600214,None,s,1,0.3616728000342846,1200.030880600214,None,None,None,,,,,,,16,23,male,16,2022_May_09_1415,Partial repeat,2021.2.3,59.8389259270434,
1,1,0,1,3,2,2,1,1,1,0,0,1,1,0,0,136,136,136,,,,,,,,,,,,,,,,,,,,,,,,,,,,,,16,23,male,16,2022_May_09_1415,Partial repeat,2021.2.3,59.8389259270434,
1,1,0,1,2,3,2,1,0,1,0,0,0,1,0,0,137,137,137,0,0,0,0,,,,,,,1200.4209960997105,None,1200.8036931995302,None,1201.5337815992534,None,l,1,0.4107725992798805,1201.5337815992534,None,None,None,,,,,,,16,23,male,16,2022_May_09_1415,Partial repeat,2021.2.3,59.8389259270434,
1,1,0,1,2,3,2,1,0,1,0,0,0,1,0,0,137,137,137,1,0,1,0,,,,,,,,,1201.9640018995851,None,1202.8698603995144,None,s,1,0.41072780080139637,1202.8698603995144,None,None,None,,,,,,,16,23,male,16,2022_May_09_1415,Partial repeat,2021.2.3,59.8389259270434,
1,1,0,1,2,3,2,1,0,1,0,0,0,1,0,0,137,137,137,,,,,,,,,,,,,,,,,,,,,,,,,,,,,,16,23,male,16,2022_May_09_1415,Partial repeat,2021.2.3,59.8389259270434,
1,1,0,1,2,2,2,2,0,1,1,1,0,1,0,0,138,138,138,0,0,0,0,,,,,,,1203.3036573994905,None,1203.6759436000139,None,1204.4731334988028,None,l,1,0.423420500010252,1204.4731334988028,None,None,None,,,,,,,16,23,male,16,2022_May_09_1415,Partial repeat,2021.2.3,59.8389259270434,
1,1,0,1,2,2,2,2,0,1,1,1,0,1,0,0,138,138,138,1,0,1,0,,,,,,,,,1204.9059912990779,None,1205.6584676988423,None,s,1,0.45410999841988087,1205.6584676988423,None,None,None,,,,,,,16,23,male,16,2022_May_09_1415,Partial repeat,2021.2.3,59.8389259270434,
1,1,0,1,2,2,2,2,0,1,1,1,0,1,0,0,138,138,138,,,,,,,,,,,,,,,,,,,,,,,,,,,,,,16,23,male,16,2022_May_09_1415,Partial repeat,2021.2.3,59.8389259270434,
1,1,0,1,2,3,1,1,1,0,0,1,0,1,0,0,139,139,139,0,0,0,0,,,,,,,1206.1378291994333,None,1206.6984902992845,None,1207.4620625991374,None,s,1,0.37049159966409206,1207.4620625991374,None,None,None,,,,,,,16,23,male,16,2022_May_09_1415,Partial repeat,2021.2.3,59.8389259270434,
1,1,0,1,2,3,1,1,1,0,0,1,0,1,0,0,139,139,139,1,0,1,0,,,,,,,,,1207.8574486002326,None,1208.7644493989646,None,l,1,0.40410889871418476,1208.7644493989646,None,None,None,,,,,,,16,23,male,16,2022_May_09_1415,Partial repeat,2021.2.3,59.8389259270434,
1,1,0,1,2,3,1,1,1,0,0,1,0,1,0,0,139,139,139,,,,,,,,,,,,,,,,,,,,,,,,,,,,,,16,23,male,16,2022_May_09_1415,Partial repeat,2021.2.3,59.8389259270434,
1,1,0,1,2,2,1,1,1,0,1,1,0,1,0,0,140,140,140,0,0,0,0,,,,,,,1209.1798700988293,None,1209.5706159994006,None,1210.5179963000119,None,s,1,0.40255420096218586,1210.5179963000119,None,None,None,,,,,,,16,23,male,16,2022_May_09_1415,Partial repeat,2021.2.3,59.8389259270434,
1,1,0,1,2,2,1,1,1,0,1,1,0,1,0,0,140,140,140,1,0,1,0,,,,,,,,,1210.9451522994787,None,1211.8705013990402,None,l,1,0.39402690157294273,1211.8705013990402,None,None,None,,,,,,,16,23,male,16,2022_May_09_1415,Partial repeat,2021.2.3,59.8389259270434,
1,1,0,1,2,2,1,1,1,0,1,1,0,1,0,0,140,140,140,,,,,,,,,,,,,,,,,,,,,,,,,,,,,,16,23,male,16,2022_May_09_1415,Partial repeat,2021.2.3,59.8389259270434,
1,1,0,1,2,2,2,2,1,0,1,1,0,1,0,0,141,141,141,0,0,0,0,,,,,,,1212.2830167990178,None,1212.6600860003382,None,1213.5908361002803,None,s,1,0.4097154997289181,1213.5908361002803,None,None,None,,,,,,,16,23,male,16,2022_May_09_1415,Partial repeat,2021.2.3,59.8389259270434,
1,1,0,1,2,2,2,2,1,0,1,1,0,1,0,0,141,141,141,1,0,1,0,,,,,,,,,1214.0216760002077,None,1214.8428873997182,None,l,1,0.39766830019652843,1214.8428873997182,None,None,None,,,,,,,16,23,male,16,2022_May_09_1415,Partial repeat,2021.2.3,59.8389259270434,
1,1,0,1,2,2,2,2,1,0,1,1,0,1,0,0,141,141,141,,,,,,,,,,,,,,,,,,,,,,,,,,,,,,16,23,male,16,2022_May_09_1415,Partial repeat,2021.2.3,59.8389259270434,
1,1,0,1,3,2,1,1,1,0,0,1,0,1,0,0,142,142,142,0,0,0,0,,,,,,,1215.255712699145,None,1215.6325834002346,None,1216.6467409990728,None,s,1,0.38581989891827106,1216.6467409990728,None,None,None,,,,,,,16,23,male,16,2022_May_09_1415,Partial repeat,2021.2.3,59.8389259270434,
1,1,0,1,3,2,1,1,1,0,0,1,0,1,0,0,142,142,142,1,0,1,0,,,,,,,,,1217.0572189986706,None,1218.067057998851,None,l,1,0.39748690091073513,1218.067057998851,None,None,None,,,,,,,16,23,male,16,2022_May_09_1415,Partial repeat,2021.2.3,59.8389259270434,
1,1,0,1,3,2,1,1,1,0,0,1,0,1,0,0,142,142,142,,,,,,,,,,,,,,,,,,,,,,,,,,,,,,16,23,male,16,2022_May_09_1415,Partial repeat,2021.2.3,59.8389259270434,
1,1,0,1,2,2,1,2,1,1,1,0,1,1,0,0,143,143,143,0,0,0,0,,,,,,,1218.486082598567,None,1218.8721903003752,None,1219.8193529993296,None,s,1,0.41319180093705654,1219.8193529993296,None,None,None,,,,,,,16,23,male,16,2022_May_09_1415,Partial repeat,2021.2.3,59.8389259270434,
1,1,0,1,2,2,1,2,1,1,1,0,1,1,0,0,143,143,143,1,0,1,0,,,,,,,,,1220.2477901987731,None,1221.105493599549,None,s,1,0.39909359999001026,1221.105493599549,None,None,None,,,,,,,16,23,male,16,2022_May_09_1415,Partial repeat,2021.2.3,59.8389259270434,
1,1,0,1,2,2,1,2,1,1,1,0,1,1,0,0,143,143,143,,,,,,,,,,,,,,,,,,,,,,,,,,,,,,16,23,male,16,2022_May_09_1415,Partial repeat,2021.2.3,59.8389259270434,
1,1,0,1,3,3,1,1,1,0,1,1,0,1,0,0,144,144,144,0,0,0,0,,,,,,,1221.5220176000148,None,1221.8947345986962,None,1222.6747539993376,None,s,1,0.3497989997267723,1222.6747539993376,None,None,None,,,,,,,16,23,male,16,2022_May_09_1415,Partial repeat,2021.2.3,59.8389259270434,
1,1,0,1,3,3,1,1,1,0,1,1,0,1,0,0,144,144,144,1,0,1,0,,,,,,,,,1223.0406954996288,None,1224.0110454000533,None,l,1,0.3895062003284693,1224.0110454000533,None,None,None,,,,,,,16,23,male,16,2022_May_09_1415,Partial repeat,2021.2.3,59.8389259270434,
1,1,0,1,3,3,1,1,1,0,1,1,0,1,0,0,144,144,144,,,,,,,,,,,,,,,,,,,,,,,,,,,,,,16,23,male,16,2022_May_09_1415,Partial repeat,2021.2.3,59.8389259270434,
1,1,0,1,2,3,1,1,1,1,0,1,1,1,0,0,145,145,145,0,0,0,0,,,,,,,1224.426788199693,None,1224.8004812002182,None,1225.5638803988695,None,s,1,0.5406739003956318,1225.5638803988695,None,None,None,,,,,,,16,23,male,16,2022_May_09_1415,Partial repeat,2021.2.3,59.8389259270434,
1,1,0,1,2,3,1,1,1,1,0,1,1,1,0,0,145,145,145,1,0,1,0,,,,,,,,,1226.118018399924,None,1226.9331125002354,None,s,1,0.40353989973664284,1226.9331125002354,None,None,None,,,,,,,16,23,male,16,2022_May_09_1415,Partial repeat,2021.2.3,59.8389259270434,
1,1,0,1,2,3,1,1,1,1,0,1,1,1,0,0,145,145,145,,,,,,,,,,,,,,,,,,,,,,,,,,,,,,16,23,male,16,2022_May_09_1415,Partial repeat,2021.2.3,59.8389259270434,
1,1,0,1,3,2,2,2,1,0,0,1,0,1,0,0,146,146,146,0,0,0,0,,,,,,,1227.349981598556,None,1227.7728113997728,None,1228.6534514985979,None,s,1,0.34718179889023304,1228.6534514985979,None,None,None,,,,,,,16,23,male,16,2022_May_09_1415,Partial repeat,2021.2.3,59.8389259270434,
1,1,0,1,3,2,2,2,1,0,0,1,0,1,0,0,146,146,146,1,0,1,0,,,,,,,,,1229.0242972001433,None,1229.8722645994276,None,l,1,0.43230090104043484,1229.8722645994276,None,None,None,,,,,,,16,23,male,16,2022_May_09_1415,Partial repeat,2021.2.3,59.8389259270434,
1,1,0,1,3,2,2,2,1,0,0,1,0,1,0,0,146,146,146,,,,,,,,,,,,,,,,,,,,,,,,,,,,,,16,23,male,16,2022_May_09_1415,Partial repeat,2021.2.3,59.8389259270434,
1,1,0,1,3,2,1,1,0,1,0,1,0,1,0,0,147,147,147,0,0,0,0,,,,,,,1230.326836898923,None,1230.7285875994712,None,1231.4589823000133,None,l,1,0.36560219898819923,1231.4589823000133,None,None,None,,,,,,,16,23,male,16,2022_May_09_1415,Partial repeat,2021.2.3,59.8389259270434,
1,1,0,1,3,2,1,1,0,1,0,1,0,1,0,0,147,147,147,1,0,1,0,,,,,,,,,1231.8495227992535,None,1232.8115155994892,None,s,1,0.3890416007488966,1232.8115155994892,None,None,None,,,,,,,16,23,male,16,2022_May_09_1415,Partial repeat,2021.2.3,59.8389259270434,
1,1,0,1,3,2,1,1,0,1,0,1,0,1,0,0,147,147,147,,,,,,,,,,,,,,,,,,,,,,,,,,,,,,16,23,male,16,2022_May_09_1415,Partial repeat,2021.2.3,59.8389259270434,
1,1,0,1,3,3,1,2,1,1,1,0,1,1,0,0,148,148,148,0,0,0,0,,,,,,,1233.2255028989166,None,1233.6008439995348,None,1234.4338242989033,None,s,1,0.35881640017032623,1234.4338242989033,None,None,None,,,,,,,16,23,male,16,2022_May_09_1415,Partial repeat,2021.2.3,59.8389259270434,
1,1,0,1,3,3,1,2,1,1,1,0,1,1,0,0,148,148,148,1,0,1,0,,,,,,,,,1234.8020274993032,None,1235.6514758989215,None,s,1,0.38108110055327415,1235.6514758989215,None,None,None,,,,,,,16,23,male,16,2022_May_09_1415,Partial repeat,2021.2.3,59.8389259270434,
1,1,0,1,3,3,1,2,1,1,1,0,1,1,0,0,148,148,148,,,,,,,,,,,,,,,,,,,,,,,,,,,,,,16,23,male,16,2022_May_09_1415,Partial repeat,2021.2.3,59.8389259270434,
1,1,0,1,2,2,2,1,0,1,1,0,0,1,0,0,149,149,149,0,0,0,0,,,,,,,1236.0604723989964,None,1236.4563736990094,None,1237.2031477987766,None,l,1,0.4134065005928278,1237.2031477987766,None,None,None,,,,,,,16,23,male,16,2022_May_09_1415,Partial repeat,2021.2.3,59.8389259270434,
1,1,0,1,2,2,2,1,0,1,1,0,0,1,0,0,149,149,149,1,0,1,0,,,,,,,,,1237.6344495993108,None,1238.6060972996056,None,s,1,0.47445820085704327,1238.6060972996056,None,None,None,,,,,,,16,23,male,16,2022_May_09_1415,Partial repeat,2021.2.3,59.8389259270434,
1,1,0,1,2,2,2,1,0,1,1,0,0,1,0,0,149,149,149,,,,,,,,,,,,,,,,,,,,,,,,,,,,,,16,23,male,16,2022_May_09_1415,Partial repeat,2021.2.3,59.8389259270434,
1,1,0,1,2,2,2,1,0,0,1,0,1,1,0,0,150,150,150,0,0,0,0,,,,,,,1239.1052768994123,None,1239.495641199872,None,1240.3926670998335,None,l,1,0.39188200049102306,1240.3926670998335,None,None,None,,,,,,,16,23,male,16,2022_May_09_1415,Partial repeat,2021.2.3,59.8389259270434,
1,1,0,1,2,2,2,1,0,0,1,0,1,1,0,0,150,150,150,1,0,1,0,,,,,,,,,1240.8054680991918,None,1241.7618662994355,None,l,1,0.3426853995770216,1241.7618662994355,None,None,None,,,,,,,16,23,male,16,2022_May_09_1415,Partial repeat,2021.2.3,59.8389259270434,
1,1,0,1,2,2,2,1,0,0,1,0,1,1,0,0,150,150,150,,,,,,,,,,,,,,,,,,,,,,,,,,,,,,16,23,male,16,2022_May_09_1415,Partial repeat,2021.2.3,59.8389259270434,
1,1,0,1,2,2,2,1,1,0,1,0,0,1,0,0,151,151,151,0,0,0,0,,,,,,,1242.1330484002829,None,1242.5849980991334,None,1243.5660963989794,None,s,1,0.362448500469327,1243.5660963989794,None,None,None,,,,,,,16,23,male,16,2022_May_09_1415,Partial repeat,2021.2.3,59.8389259270434,
1,1,0,1,2,2,2,1,1,0,1,0,0,1,0,0,151,151,151,1,0,1,0,,,,,,,,,1243.9562005996704,None,1244.8179406989366,None,l,1,0.36662960052490234,1244.8179406989366,None,None,None,,,,,,,16,23,male,16,2022_May_09_1415,Partial repeat,2021.2.3,59.8389259270434,
1,1,0,1,2,2,2,1,1,0,1,0,0,1,0,0,151,151,151,,,,,,,,,,,,,,,,,,,,,,,,,,,,,,16,23,male,16,2022_May_09_1415,Partial repeat,2021.2.3,59.8389259270434,
1,1,0,1,3,2,2,2,0,0,0,1,1,1,0,0,152,152,152,0,0,0,0,,,,,,,1245.2108690999448,None,1245.6075360998511,None,1246.320870500058,None,l,1,0.39168279990553856,1246.320870500058,None,None,None,,,,,,,16,23,male,16,2022_May_09_1415,Partial repeat,2021.2.3,59.8389259270434,
1,1,0,1,3,2,2,2,0,0,0,1,1,1,0,0,152,152,152,1,0,1,0,,,,,,,,,1246.725664500147,None,1247.606654299423,None,l,1,0.3539013992995024,1247.606654299423,None,None,None,,,,,,,16,23,male,16,2022_May_09_1415,Partial repeat,2021.2.3,59.8389259270434,
1,1,0,1,3,2,2,2,0,0,0,1,1,1,0,0,152,152,152,,,,,,,,,,,,,,,,,,,,,,,,,,,,,,16,23,male,16,2022_May_09_1415,Partial repeat,2021.2.3,59.8389259270434,
