prime_tar_pos,probe_tar_pos,dimension,tar_color,prime_dist_color,probe_dist_color,prime_dist_shape,probe_dist_shape,prime_tar_dot_pos,probe_tar_dot_pos,col_rep,shape_rep,resp_rep,pos_fixed,sparse,MainLoop.thisRepN,MainLoop.thisTrialN,MainLoop.thisN,MainLoop.thisIndex,PrimeProbe.thisRepN,PrimeProbe.thisTrialN,PrimeProbe.thisN,PrimeProbe.thisIndex,Instruction.started,Instruction.stopped,instruction_key.keys,instruction_key.rt,instruction_key.started,instruction_key.stopped,PairStartText.started,PairStartText.stopped,FixCross.started,FixCross.stopped,SearchFixCross.started,SearchFixCross.stopped,key_resp.keys,key_resp.corr,key_resp.rt,key_resp.started,key_resp.stopped,feedback_text.started,feedback_text.stopped,text_finish.started,text_finish.stopped,finish_key.keys,finish_key.rt,finish_key.started,finish_key.stopped,participant,age,gender,group,date,expName,psychopyVersion,frameRate,
,,,,,,,,,,,,,,,,,,,,,,,358.5374347008765,None,space,61.2815287001431,358.5374347008765,None,,,,,,,,,,,,,,,,,,,,17,22,female,17,2022_May_09_1643,Partial repeat,2021.2.3,59.88798543995,
1,6,0,1,2,2,1,2,0,0,1,0,1,0,0,0,0,0,0,0,0,0,0,,,,,,,419.94764020107687,None,423.7997245006263,None,424.5853358004242,None,s,0,1.12138120085001,424.5853358004242,None,425.73058439977467,None,,,,,,,17,22,female,17,2022_May_09_1643,Partial repeat,2021.2.3,59.88798543995,
1,6,0,1,2,2,1,2,0,0,1,0,1,0,0,0,0,0,0,1,0,1,0,,,,,,,,,426.23789190128446,None,427.0684780012816,None,l,1,0.8302511982619762,427.0684780012816,None,None,None,,,,,,,17,22,female,17,2022_May_09_1643,Partial repeat,2021.2.3,59.88798543995,
1,6,0,1,2,2,1,2,0,0,1,0,1,0,0,0,0,0,0,,,,,,,,,,,,,,,,,,,,,,,,,,,,,,17,22,female,17,2022_May_09_1643,Partial repeat,2021.2.3,59.88798543995,
4,3,0,1,3,2,1,1,1,1,0,1,1,0,0,0,1,1,1,0,0,0,0,,,,,,,427.92821970023215,None,432.0658663008362,None,432.97971140034497,None,l,0,0.8630894999951124,432.97971140034497,None,433.8539088014513,None,,,,,,,17,22,female,17,2022_May_09_1643,Partial repeat,2021.2.3,59.88798543995,
4,3,0,1,3,2,1,1,1,1,0,1,1,0,0,0,1,1,1,1,0,1,0,,,,,,,,,434.353630900383,None,435.31761990115047,None,l,0,1.3731616009026766,435.31761990115047,None,436.6990825012326,None,,,,,,,17,22,female,17,2022_May_09_1643,Partial repeat,2021.2.3,59.88798543995,
4,3,0,1,3,2,1,1,1,1,0,1,1,0,0,0,1,1,1,,,,,,,,,,,,,,,,,,,,,,,,,,,,,,17,22,female,17,2022_May_09_1643,Partial repeat,2021.2.3,59.88798543995,
1,4,0,1,3,3,2,1,0,1,1,0,0,0,0,0,2,2,2,0,0,0,0,,,,,,,437.20926070027053,None,441.45073129981756,None,442.19742290116847,None,l,1,1.3733999002724886,442.19742290116847,None,None,None,,,,,,,17,22,female,17,2022_May_09_1643,Partial repeat,2021.2.3,59.88798543995,
1,4,0,1,3,3,2,1,0,1,1,0,0,0,0,0,2,2,2,1,0,1,0,,,,,,,,,443.5981467012316,None,444.3688046000898,None,s,1,1.2980529014021158,444.3688046000898,None,None,None,,,,,,,17,22,female,17,2022_May_09_1643,Partial repeat,2021.2.3,59.88798543995,
1,4,0,1,3,3,2,1,0,1,1,0,0,0,0,0,2,2,2,,,,,,,,,,,,,,,,,,,,,,,,,,,,,,17,22,female,17,2022_May_09_1643,Partial repeat,2021.2.3,59.88798543995,
5,8,0,1,3,3,2,2,1,0,1,1,0,0,0,0,3,3,3,0,0,0,0,,,,,,,445.6799937002361,None,451.5872208997607,None,452.35094960033894,None,s,1,0.8277695011347532,452.35094960033894,None,None,None,,,,,,,17,22,female,17,2022_May_09_1643,Partial repeat,2021.2.3,59.88798543995,
5,8,0,1,3,3,2,2,1,0,1,1,0,0,0,0,3,3,3,1,0,1,0,,,,,,,,,453.2029769998044,None,454.03803880140185,None,l,1,0.6286589000374079,454.03803880140185,None,None,None,,,,,,,17,22,female,17,2022_May_09_1643,Partial repeat,2021.2.3,59.88798543995,
5,8,0,1,3,3,2,2,1,0,1,1,0,0,0,0,3,3,3,,,,,,,,,,,,,,,,,,,,,,,,,,,,,,17,22,female,17,2022_May_09_1643,Partial repeat,2021.2.3,59.88798543995,
6,2,0,1,3,2,2,2,1,0,0,1,0,0,0,0,4,4,4,0,0,0,0,,,,,,,454.68832970038056,None,455.97909750044346,None,456.95994020067155,None,s,1,1.2187732011079788,456.95994020067155,None,None,None,,,,,,,17,22,female,17,2022_May_09_1643,Partial repeat,2021.2.3,59.88798543995,
6,2,0,1,3,2,2,2,1,0,0,1,0,0,0,0,4,4,4,1,0,1,0,,,,,,,,,458.19923230074346,None,459.0804613009095,None,l,1,0.650254400447011,459.0804613009095,None,None,None,,,,,,,17,22,female,17,2022_May_09_1643,Partial repeat,2021.2.3,59.88798543995,
6,2,0,1,3,2,2,2,1,0,0,1,0,0,0,0,4,4,4,,,,,,,,,,,,,,,,,,,,,,,,,,,,,,17,22,female,17,2022_May_09_1643,Partial repeat,2021.2.3,59.88798543995,
5,3,0,1,3,2,2,2,1,1,0,1,1,0,0,0,5,5,5,0,0,0,0,,,,,,,459.75315090082586,None,461.0221868008375,None,461.7858106009662,None,s,1,0.5048648007214069,461.7858106009662,None,None,None,,,,,,,17,22,female,17,2022_May_09_1643,Partial repeat,2021.2.3,59.88798543995,
5,3,0,1,3,2,2,2,1,1,0,1,1,0,0,0,5,5,5,1,0,1,0,,,,,,,,,462.29964319989085,None,463.05488070100546,None,l,0,0.5558352991938591,463.05488070100546,None,463.6334844008088,None,,,,,,,17,22,female,17,2022_May_09_1643,Partial repeat,2021.2.3,59.88798543995,
5,3,0,1,3,2,2,2,1,1,0,1,1,0,0,0,5,5,5,,,,,,,,,,,,,,,,,,,,,,,,,,,,,,17,22,female,17,2022_May_09_1643,Partial repeat,2021.2.3,59.88798543995,
4,6,0,1,2,2,1,2,1,1,1,0,1,0,0,0,6,6,6,0,0,0,0,,,,,,,464.1447187010199,None,467.10045280121267,None,467.89143620058894,None,s,1,0.7032979987561703,467.89143620058894,None,None,None,,,,,,,17,22,female,17,2022_May_09_1643,Partial repeat,2021.2.3,59.88798543995,
4,6,0,1,2,2,1,2,1,1,1,0,1,0,0,0,6,6,6,1,0,1,0,,,,,,,,,468.6180615015328,None,469.5848393011838,None,s,1,0.9538997989147902,469.5848393011838,None,None,None,,,,,,,17,22,female,17,2022_May_09_1643,Partial repeat,2021.2.3,59.88798543995,
4,6,0,1,2,2,1,2,1,1,1,0,1,0,0,0,6,6,6,,,,,,,,,,,,,,,,,,,,,,,,,,,,,,17,22,female,17,2022_May_09_1643,Partial repeat,2021.2.3,59.88798543995,
2,1,0,1,2,3,1,1,0,0,0,1,1,0,0,0,7,7,7,0,0,0,0,,,,,,,470.54929120093584,None,473.47975430078804,None,474.31088500097394,None,l,1,0.6677829008549452,474.31088500097394,None,None,None,,,,,,,17,22,female,17,2022_May_09_1643,Partial repeat,2021.2.3,59.88798543995,
2,1,0,1,2,3,1,1,0,0,0,1,1,0,0,0,7,7,7,1,0,1,0,,,,,,,,,475.00502550043166,None,475.7811188008636,None,l,1,0.5976117998361588,475.7811188008636,None,None,None,,,,,,,17,22,female,17,2022_May_09_1643,Partial repeat,2021.2.3,59.88798543995,
2,1,0,1,2,3,1,1,0,0,0,1,1,0,0,0,7,7,7,,,,,,,,,,,,,,,,,,,,,,,,,,,,,,17,22,female,17,2022_May_09_1643,Partial repeat,2021.2.3,59.88798543995,
4,5,0,1,2,3,2,1,1,0,0,0,0,0,0,0,8,8,8,0,0,0,0,,,,,,,476.3923516012728,None,477.30365890078247,None,478.1009570006281,None,s,1,0.5497609991580248,478.1009570006281,None,None,None,,,,,,,17,22,female,17,2022_May_09_1643,Partial repeat,2021.2.3,59.88798543995,
4,5,0,1,2,3,2,1,1,0,0,0,0,0,0,0,8,8,8,1,0,1,0,,,,,,,,,478.67029890045524,None,479.4036007001996,None,s,0,0.43905770033597946,479.4036007001996,None,479.85682520084083,None,,,,,,,17,22,female,17,2022_May_09_1643,Partial repeat,2021.2.3,59.88798543995,
4,5,0,1,2,3,2,1,1,0,0,0,0,0,0,0,8,8,8,,,,,,,,,,,,,,,,,,,,,,,,,,,,,,17,22,female,17,2022_May_09_1643,Partial repeat,2021.2.3,59.88798543995,
4,2,0,1,2,3,2,2,1,1,0,1,1,0,0,0,9,9,9,0,0,0,0,,,,,,,480.35987620055676,None,484.96875920146704,None,485.9498180001974,None,s,1,0.6448830999433994,485.9498180001974,None,None,None,,,,,,,17,22,female,17,2022_May_09_1643,Partial repeat,2021.2.3,59.88798543995,
4,2,0,1,2,3,2,2,1,1,0,1,1,0,0,0,9,9,9,1,0,1,0,,,,,,,,,486.6148151010275,None,487.4524359013885,None,l,0,2.038324600085616,487.4524359013885,None,489.50797140039504,None,,,,,,,17,22,female,17,2022_May_09_1643,Partial repeat,2021.2.3,59.88798543995,
4,2,0,1,2,3,2,2,1,1,0,1,1,0,0,0,9,9,9,,,,,,,,,,,,,,,,,,,,,,,,,,,,,,17,22,female,17,2022_May_09_1643,Partial repeat,2021.2.3,59.88798543995,
2,7,0,1,3,3,1,1,0,0,1,1,1,0,0,0,10,10,10,0,0,0,0,,,,,,,490.0119595006108,None,493.40172309987247,None,494.3346190005541,None,l,1,0.9400998000055552,494.3346190005541,None,None,None,,,,,,,17,22,female,17,2022_May_09_1643,Partial repeat,2021.2.3,59.88798543995,
2,7,0,1,3,3,1,1,0,0,1,1,1,0,0,0,10,10,10,1,0,1,0,,,,,,,,,495.29747890122235,None,496.15276600047946,None,s,0,1.105935899540782,496.15276600047946,None,497.28065969981253,None,,,,,,,17,22,female,17,2022_May_09_1643,Partial repeat,2021.2.3,59.88798543995,
2,7,0,1,3,3,1,1,0,0,1,1,1,0,0,0,10,10,10,,,,,,,,,,,,,,,,,,,,,,,,,,,,,,17,22,female,17,2022_May_09_1643,Partial repeat,2021.2.3,59.88798543995,
1,2,0,1,2,2,2,2,0,1,1,1,0,0,0,0,11,11,11,0,0,0,0,,,,,,,497.7938400004059,None,500.83301050029695,None,501.8469830006361,None,l,1,0.6597172990441322,501.8469830006361,None,None,None,,,,,,,17,22,female,17,2022_May_09_1643,Partial repeat,2021.2.3,59.88798543995,
1,2,0,1,2,2,2,2,0,1,1,1,0,0,0,0,11,11,11,1,0,1,0,,,,,,,,,502.5292317010462,None,503.3836089000106,None,l,0,1.1390959993004799,503.3836089000106,None,504.53931920044124,None,,,,,,,17,22,female,17,2022_May_09_1643,Partial repeat,2021.2.3,59.88798543995,
1,2,0,1,2,2,2,2,0,1,1,1,0,0,0,0,11,11,11,,,,,,,,,,,,,,,,,,,,,,,,,,,,,,17,22,female,17,2022_May_09_1643,Partial repeat,2021.2.3,59.88798543995,
1,7,0,1,3,3,1,2,1,0,1,0,0,0,0,0,12,12,12,0,0,0,0,,,,,,,505.0409788005054,None,508.89871890097857,None,509.62912440113723,None,l,0,0.9175674002617598,509.62912440113723,None,510.56384980119765,None,,,,,,,17,22,female,17,2022_May_09_1643,Partial repeat,2021.2.3,59.88798543995,
1,7,0,1,3,3,1,2,1,0,1,0,0,0,0,0,12,12,12,1,0,1,0,,,,,,,,,511.0696109998971,None,511.8833100013435,None,l,1,0.7753901984542608,511.8833100013435,None,None,None,,,,,,,17,22,female,17,2022_May_09_1643,Partial repeat,2021.2.3,59.88798543995,
1,7,0,1,3,3,1,2,1,0,1,0,0,0,0,0,12,12,12,,,,,,,,,,,,,,,,,,,,,,,,,,,,,,17,22,female,17,2022_May_09_1643,Partial repeat,2021.2.3,59.88798543995,
8,1,0,1,2,2,1,2,1,0,1,0,0,0,0,0,13,13,13,0,0,0,0,,,,,,,512.6807883009315,None,515.1776144001633,None,515.9915730003268,None,s,1,1.011276500299573,515.9915730003268,None,None,None,,,,,,,17,22,female,17,2022_May_09_1643,Partial repeat,2021.2.3,59.88798543995,
8,1,0,1,2,2,1,2,1,0,1,0,0,0,0,0,13,13,13,1,0,1,0,,,,,,,,,517.0121503006667,None,517.9459807015955,None,l,1,0.904680298641324,517.9459807015955,None,None,None,,,,,,,17,22,female,17,2022_May_09_1643,Partial repeat,2021.2.3,59.88798543995,
8,1,0,1,2,2,1,2,1,0,1,0,0,0,0,0,13,13,13,,,,,,,,,,,,,,,,,,,,,,,,,,,,,,17,22,female,17,2022_May_09_1643,Partial repeat,2021.2.3,59.88798543995,
3,4,0,1,2,3,1,2,0,1,0,0,0,0,0,0,14,14,14,0,0,0,0,,,,,,,518.8648841008544,None,520.2207207009196,None,520.9510786011815,None,l,1,1.1876221001148224,520.9510786011815,None,None,None,,,,,,,17,22,female,17,2022_May_09_1643,Partial repeat,2021.2.3,59.88798543995,
3,4,0,1,2,3,1,2,0,1,0,0,0,0,0,0,14,14,14,1,0,1,0,,,,,,,,,522.1594415009022,None,523.1730604004115,None,s,1,0.701690100133419,523.1730604004115,None,None,None,,,,,,,17,22,female,17,2022_May_09_1643,Partial repeat,2021.2.3,59.88798543995,
3,4,0,1,2,3,1,2,0,1,0,0,0,0,0,0,14,14,14,,,,,,,,,,,,,,,,,,,,,,,,,,,,,,17,22,female,17,2022_May_09_1643,Partial repeat,2021.2.3,59.88798543995,
5,7,0,1,2,2,2,1,0,1,1,0,0,0,0,0,15,15,15,0,0,0,0,,,,,,,523.9051546007395,None,524.9800151009113,None,525.9942565001547,None,l,1,0.9444420002400875,525.9942565001547,None,None,None,,,,,,,17,22,female,17,2022_May_09_1643,Partial repeat,2021.2.3,59.88798543995,
5,7,0,1,2,2,2,1,0,1,1,0,0,0,0,0,15,15,15,1,0,1,0,,,,,,,,,526.9573392011225,None,527.8144426997751,None,s,1,0.7642343007028103,527.8144426997751,None,None,None,,,,,,,17,22,female,17,2022_May_09_1643,Partial repeat,2021.2.3,59.88798543995,
5,7,0,1,2,2,2,1,0,1,1,0,0,0,0,0,15,15,15,,,,,,,,,,,,,,,,,,,,,,,,,,,,,,17,22,female,17,2022_May_09_1643,Partial repeat,2021.2.3,59.88798543995,
7,3,0,1,2,2,2,2,0,0,1,1,1,0,0,0,16,16,16,0,0,0,0,,,,,,,528.6088338010013,None,529.5221418999135,None,530.4359852001071,None,l,1,0.7427655998617411,530.4359852001071,None,None,None,,,,,,,17,22,female,17,2022_May_09_1643,Partial repeat,2021.2.3,59.88798543995,
7,3,0,1,2,2,2,2,0,0,1,1,1,0,0,0,16,16,16,1,0,1,0,,,,,,,,,531.2066945005208,None,531.9890195000917,None,l,1,0.7657635007053614,531.9890195000917,None,None,None,,,,,,,17,22,female,17,2022_May_09_1643,Partial repeat,2021.2.3,59.88798543995,
7,3,0,1,2,2,2,2,0,0,1,1,1,0,0,0,16,16,16,,,,,,,,,,,,,,,,,,,,,,,,,,,,,,17,22,female,17,2022_May_09_1643,Partial repeat,2021.2.3,59.88798543995,
5,5,0,1,2,3,2,1,0,0,0,0,1,0,0,0,17,17,17,0,0,0,0,,,,,,,532.767445800826,None,535.1163181010634,None,535.8802580013871,None,l,1,1.1464322991669178,535.8802580013871,None,None,None,,,,,,,17,22,female,17,2022_May_09_1643,Partial repeat,2021.2.3,59.88798543995,
5,5,0,1,2,3,2,1,0,0,0,0,1,0,0,0,17,17,17,1,0,1,0,,,,,,,,,537.0465268008411,None,537.9506238009781,None,l,1,0.5640139002352953,537.9506238009781,None,None,None,,,,,,,17,22,female,17,2022_May_09_1643,Partial repeat,2021.2.3,59.88798543995,
5,5,0,1,2,3,2,1,0,0,0,0,1,0,0,0,17,17,17,,,,,,,,,,,,,,,,,,,,,,,,,,,,,,17,22,female,17,2022_May_09_1643,Partial repeat,2021.2.3,59.88798543995,
6,8,0,1,3,2,1,1,0,0,0,1,1,0,0,0,18,18,18,0,0,0,0,,,,,,,538.5385427009314,None,539.4748877007514,None,540.255476700142,None,l,1,0.7872382998466492,540.255476700142,None,None,None,,,,,,,17,22,female,17,2022_May_09_1643,Partial repeat,2021.2.3,59.88798543995,
6,8,0,1,3,2,1,1,0,0,0,1,1,0,0,0,18,18,18,1,0,1,0,,,,,,,,,541.0678398013115,None,541.9251885004342,None,l,1,0.6055028010159731,541.9251885004342,None,None,None,,,,,,,17,22,female,17,2022_May_09_1643,Partial repeat,2021.2.3,59.88798543995,
6,8,0,1,3,2,1,1,0,0,0,1,1,0,0,0,18,18,18,,,,,,,,,,,,,,,,,,,,,,,,,,,,,,17,22,female,17,2022_May_09_1643,Partial repeat,2021.2.3,59.88798543995,
7,2,0,1,2,3,2,2,0,1,0,1,0,0,0,0,19,19,19,0,0,0,0,,,,,,,542.555804701522,None,543.098603900522,None,544.1133383009583,None,l,1,0.5613691005855799,544.1133383009583,None,None,None,,,,,,,17,22,female,17,2022_May_09_1643,Partial repeat,2021.2.3,59.88798543995,
7,2,0,1,2,3,2,2,0,1,0,1,0,0,0,0,19,19,19,1,0,1,0,,,,,,,,,544.6921379007399,None,545.4652632009238,None,s,1,0.7934415005147457,545.4652632009238,None,None,None,,,,,,,17,22,female,17,2022_May_09_1643,Partial repeat,2021.2.3,59.88798543995,
7,2,0,1,2,3,2,2,0,1,0,1,0,0,0,0,19,19,19,,,,,,,,,,,,,,,,,,,,,,,,,,,,,,17,22,female,17,2022_May_09_1643,Partial repeat,2021.2.3,59.88798543995,
7,7,0,1,3,3,2,2,0,1,1,1,0,0,0,0,20,20,20,0,0,0,0,,,,,,,546.2877055015415,None,546.805787101388,None,547.636245701462,None,l,1,1.350457699969411,547.636245701462,None,None,None,,,,,,,17,22,female,17,2022_May_09_1643,Partial repeat,2021.2.3,59.88798543995,
7,7,0,1,3,3,2,2,0,1,1,1,0,0,0,0,20,20,20,1,0,1,0,,,,,,,,,549.0016497001052,None,549.8070046007633,None,s,1,0.6436991989612579,549.8070046007633,None,None,None,,,,,,,17,22,female,17,2022_May_09_1643,Partial repeat,2021.2.3,59.88798543995,
7,7,0,1,3,3,2,2,0,1,1,1,0,0,0,0,20,20,20,,,,,,,,,,,,,,,,,,,,,,,,,,,,,,17,22,female,17,2022_May_09_1643,Partial repeat,2021.2.3,59.88798543995,
5,6,0,1,2,3,1,1,0,1,0,1,0,0,0,0,21,21,21,0,0,0,0,,,,,,,550.4727678000927,None,552.0994106009603,None,552.8295729998499,None,l,1,0.9251183997839689,552.8295729998499,None,None,None,,,,,,,17,22,female,17,2022_May_09_1643,Partial repeat,2021.2.3,59.88798543995,
5,6,0,1,2,3,1,1,0,1,0,1,0,0,0,0,21,21,21,1,0,1,0,,,,,,,,,553.771761501208,None,554.5328915007412,None,s,1,0.6218028012663126,554.5328915007412,None,None,None,,,,,,,17,22,female,17,2022_May_09_1643,Partial repeat,2021.2.3,59.88798543995,
5,6,0,1,2,3,1,1,0,1,0,1,0,0,0,0,21,21,21,,,,,,,,,,,,,,,,,,,,,,,,,,,,,,17,22,female,17,2022_May_09_1643,Partial repeat,2021.2.3,59.88798543995,
4,7,0,1,3,3,1,1,0,1,1,1,0,0,0,0,22,22,22,0,0,0,0,,,,,,,555.1819408014417,None,555.7398543003947,None,556.5036347005516,None,l,1,0.763043399900198,556.5036347005516,None,None,None,,,,,,,17,22,female,17,2022_May_09_1643,Partial repeat,2021.2.3,59.88798543995,
4,7,0,1,3,3,1,1,0,1,1,1,0,0,0,0,22,22,22,1,0,1,0,,,,,,,,,557.2751276008785,None,558.0729704014957,None,s,1,0.5058239996433258,558.0729704014957,None,None,None,,,,,,,17,22,female,17,2022_May_09_1643,Partial repeat,2021.2.3,59.88798543995,
4,7,0,1,3,3,1,1,0,1,1,1,0,0,0,0,22,22,22,,,,,,,,,,,,,,,,,,,,,,,,,,,,,,17,22,female,17,2022_May_09_1643,Partial repeat,2021.2.3,59.88798543995,
8,3,0,1,3,3,2,2,1,1,1,1,1,0,0,0,23,23,23,0,0,0,0,,,,,,,558.592901000753,None,559.613796800375,None,560.5111306998879,None,s,1,0.8116052988916636,560.5111306998879,None,None,None,,,,,,,17,22,female,17,2022_May_09_1643,Partial repeat,2021.2.3,59.88798543995,
8,3,0,1,3,3,2,2,1,1,1,1,1,0,0,0,23,23,23,1,0,1,0,,,,,,,,,561.3483176007867,None,562.3489168006927,None,s,1,0.7658660002052784,562.3489168006927,None,None,None,,,,,,,17,22,female,17,2022_May_09_1643,Partial repeat,2021.2.3,59.88798543995,
8,3,0,1,3,3,2,2,1,1,1,1,1,0,0,0,23,23,23,,,,,,,,,,,,,,,,,,,,,,,,,,,,,,17,22,female,17,2022_May_09_1643,Partial repeat,2021.2.3,59.88798543995,
4,8,0,1,2,2,2,2,1,0,1,1,0,0,0,0,24,24,24,0,0,0,0,,,,,,,563.1252795998007,None,564.1395415011793,None,564.9865189008415,None,s,1,0.6481738984584808,564.9865189008415,None,None,None,,,,,,,17,22,female,17,2022_May_09_1643,Partial repeat,2021.2.3,59.88798543995,
4,8,0,1,2,2,2,2,1,0,1,1,0,0,0,0,24,24,24,1,0,1,0,,,,,,,,,565.6540353000164,None,566.6230480000377,None,l,1,0.619649900123477,566.6230480000377,None,None,None,,,,,,,17,22,female,17,2022_May_09_1643,Partial repeat,2021.2.3,59.88798543995,
4,8,0,1,2,2,2,2,1,0,1,1,0,0,0,0,24,24,24,,,,,,,,,,,,,,,,,,,,,,,,,,,,,,17,22,female,17,2022_May_09_1643,Partial repeat,2021.2.3,59.88798543995,
3,8,0,1,3,2,1,2,0,1,0,0,0,0,0,0,25,25,25,0,0,0,0,,,,,,,567.2656341008842,None,567.9970208015293,None,568.7273598015308,None,l,1,0.6033312007784843,568.7273598015308,None,None,None,,,,,,,17,22,female,17,2022_May_09_1643,Partial repeat,2021.2.3,59.88798543995,
3,8,0,1,3,2,1,2,0,1,0,0,0,0,0,0,25,25,25,1,0,1,0,,,,,,,,,569.3491365015507,None,570.2309816014022,None,s,1,0.6196542009711266,570.2309816014022,None,None,None,,,,,,,17,22,female,17,2022_May_09_1643,Partial repeat,2021.2.3,59.88798543995,
3,8,0,1,3,2,1,2,0,1,0,0,0,0,0,0,25,25,25,,,,,,,,,,,,,,,,,,,,,,,,,,,,,,17,22,female,17,2022_May_09_1643,Partial repeat,2021.2.3,59.88798543995,
8,8,0,1,3,3,2,1,1,1,1,0,1,0,0,0,26,26,26,0,0,0,0,,,,,,,570.8816794008017,None,571.8711823001504,None,572.6686036009341,None,l,0,1.3261480014771223,572.6686036009341,None,574.012801900506,None,,,,,,,17,22,female,17,2022_May_09_1643,Partial repeat,2021.2.3,59.88798543995,
8,8,0,1,3,3,2,1,1,1,1,0,1,0,0,0,26,26,26,1,0,1,0,,,,,,,,,574.5263683013618,None,575.2900750003755,None,s,1,0.8406176995486021,575.2900750003755,None,None,None,,,,,,,17,22,female,17,2022_May_09_1643,Partial repeat,2021.2.3,59.88798543995,
8,8,0,1,3,3,2,1,1,1,1,0,1,0,0,0,26,26,26,,,,,,,,,,,,,,,,,,,,,,,,,,,,,,17,22,female,17,2022_May_09_1643,Partial repeat,2021.2.3,59.88798543995,
2,8,0,1,2,3,1,2,1,0,0,0,0,0,0,0,27,27,27,0,0,0,0,,,,,,,576.1516084000468,None,577.8829459007829,None,578.7801195997745,None,s,1,0.6945598013699055,578.7801195997745,None,None,None,,,,,,,17,22,female,17,2022_May_09_1643,Partial repeat,2021.2.3,59.88798543995,
2,8,0,1,2,3,1,2,1,0,0,0,0,0,0,0,27,27,27,1,0,1,0,,,,,,,,,579.4829772002995,None,580.2495902013034,None,l,1,0.7210913002490997,580.2495902013034,None,None,None,,,,,,,17,22,female,17,2022_May_09_1643,Partial repeat,2021.2.3,59.88798543995,
2,8,0,1,2,3,1,2,1,0,0,0,0,0,0,0,27,27,27,,,,,,,,,,,,,,,,,,,,,,,,,,,,,,17,22,female,17,2022_May_09_1643,Partial repeat,2021.2.3,59.88798543995,
7,8,0,1,3,3,2,1,1,0,1,0,0,0,0,0,28,28,28,0,0,0,0,,,,,,,580.9994188006967,None,583.8779064007103,None,584.6257061008364,None,s,1,0.6330230012536049,584.6257061008364,None,None,None,,,,,,,17,22,female,17,2022_May_09_1643,Partial repeat,2021.2.3,59.88798543995,
7,8,0,1,3,3,2,1,1,0,1,0,0,0,0,0,28,28,28,1,0,1,0,,,,,,,,,585.2684019003063,None,586.0275800004601,None,l,1,0.5751041993498802,586.0275800004601,None,None,None,,,,,,,17,22,female,17,2022_May_09_1643,Partial repeat,2021.2.3,59.88798543995,
7,8,0,1,3,3,2,1,1,0,1,0,0,0,0,0,28,28,28,,,,,,,,,,,,,,,,,,,,,,,,,,,,,,17,22,female,17,2022_May_09_1643,Partial repeat,2021.2.3,59.88798543995,
5,1,0,1,2,2,2,2,1,1,1,1,1,0,0,0,29,29,29,0,0,0,0,,,,,,,586.6172941010445,None,591.0418682005256,None,591.8230749014765,None,s,1,0.683617701753974,591.8230749014765,None,None,None,,,,,,,17,22,female,17,2022_May_09_1643,Partial repeat,2021.2.3,59.88798543995,
5,1,0,1,2,2,2,2,1,1,1,1,1,0,0,0,29,29,29,1,0,1,0,,,,,,,,,592.5301288999617,None,593.2918976005167,None,s,1,0.6467975992709398,593.2918976005167,None,None,None,,,,,,,17,22,female,17,2022_May_09_1643,Partial repeat,2021.2.3,59.88798543995,
5,1,0,1,2,2,2,2,1,1,1,1,1,0,0,0,29,29,29,,,,,,,,,,,,,,,,,,,,,,,,,,,,,,17,22,female,17,2022_May_09_1643,Partial repeat,2021.2.3,59.88798543995,
7,5,0,1,3,2,2,1,1,1,0,0,1,0,0,0,30,30,30,0,0,0,0,,,,,,,593.9659719001502,None,594.3316421005875,None,595.2456799000502,None,s,1,0.5410107001662254,595.2456799000502,None,None,None,,,,,,,17,22,female,17,2022_May_09_1643,Partial repeat,2021.2.3,59.88798543995,
7,5,0,1,3,2,2,1,1,1,0,0,1,0,0,0,30,30,30,1,0,1,0,,,,,,,,,595.8030735999346,None,596.7317708004266,None,s,1,0.5989359002560377,596.7317708004266,None,None,None,,,,,,,17,22,female,17,2022_May_09_1643,Partial repeat,2021.2.3,59.88798543995,
7,5,0,1,3,2,2,1,1,1,0,0,1,0,0,0,30,30,30,,,,,,,,,,,,,,,,,,,,,,,,,,,,,,17,22,female,17,2022_May_09_1643,Partial repeat,2021.2.3,59.88798543995,
2,2,0,1,3,3,1,2,0,1,1,0,0,0,0,0,31,31,31,0,0,0,0,,,,,,,597.3608291000128,None,597.7381360009313,None,598.6029448006302,None,l,1,0.5677489992231131,598.6029448006302,None,None,None,,,,,,,17,22,female,17,2022_May_09_1643,Partial repeat,2021.2.3,59.88798543995,
2,2,0,1,3,3,1,2,0,1,1,0,0,0,0,0,31,31,31,1,0,1,0,,,,,,,,,599.1858505010605,None,599.9881009012461,None,s,1,0.5986183993518353,599.9881009012461,None,None,None,,,,,,,17,22,female,17,2022_May_09_1643,Partial repeat,2021.2.3,59.88798543995,
2,2,0,1,3,3,1,2,0,1,1,0,0,0,0,0,31,31,31,,,,,,,,,,,,,,,,,,,,,,,,,,,,,,17,22,female,17,2022_May_09_1643,Partial repeat,2021.2.3,59.88798543995,
6,1,0,1,3,2,1,2,0,0,0,0,1,0,0,0,32,32,32,0,0,0,0,,,,,,,600.6145089007914,None,600.9611827004701,None,601.9093575999141,None,s,0,0.9493700005114079,601.9093575999141,None,602.8855390008539,None,,,,,,,17,22,female,17,2022_May_09_1643,Partial repeat,2021.2.3,59.88798543995,
6,1,0,1,3,2,1,2,0,0,0,0,1,0,0,0,32,32,32,1,0,1,0,,,,,,,,,603.3992855008692,None,604.3815290015191,None,l,1,1.2611606009304523,604.3815290015191,None,None,None,,,,,,,17,22,female,17,2022_May_09_1643,Partial repeat,2021.2.3,59.88798543995,
6,1,0,1,3,2,1,2,0,0,0,0,1,0,0,0,32,32,32,,,,,,,,,,,,,,,,,,,,,,,,,,,,,,17,22,female,17,2022_May_09_1643,Partial repeat,2021.2.3,59.88798543995,
3,2,0,1,3,3,1,1,1,0,1,1,0,0,0,0,33,33,33,0,0,0,0,,,,,,,605.6675465013832,None,606.0377350002527,None,606.8680486008525,None,s,1,0.6306361984461546,606.8680486008525,None,None,None,,,,,,,17,22,female,17,2022_May_09_1643,Partial repeat,2021.2.3,59.88798543995,
3,2,0,1,3,3,1,1,1,0,1,1,0,0,0,0,33,33,33,1,0,1,0,,,,,,,,,607.511354200542,None,608.3213477004319,None,l,1,0.6973363999277353,608.3213477004319,None,None,None,,,,,,,17,22,female,17,2022_May_09_1643,Partial repeat,2021.2.3,59.88798543995,
3,2,0,1,3,3,1,1,1,0,1,1,0,0,0,0,33,33,33,,,,,,,,,,,,,,,,,,,,,,,,,,,,,,17,22,female,17,2022_May_09_1643,Partial repeat,2021.2.3,59.88798543995,
8,7,0,1,2,2,1,1,0,1,1,1,0,0,0,0,34,34,34,0,0,0,0,,,,,,,609.0331410001963,None,609.4441974014044,None,610.2748236004263,None,l,1,0.8158695008605719,610.2748236004263,None,None,None,,,,,,,17,22,female,17,2022_May_09_1643,Partial repeat,2021.2.3,59.88798543995,
8,7,0,1,2,2,1,1,0,1,1,1,0,0,0,0,34,34,34,1,0,1,0,,,,,,,,,611.1145000010729,None,611.9116211999208,None,s,1,0.7150702998042107,611.9116211999208,None,None,None,,,,,,,17,22,female,17,2022_May_09_1643,Partial repeat,2021.2.3,59.88798543995,
8,7,0,1,2,2,1,1,0,1,1,1,0,0,0,0,34,34,34,,,,,,,,,,,,,,,,,,,,,,,,,,,,,,17,22,female,17,2022_May_09_1643,Partial repeat,2021.2.3,59.88798543995,
1,3,0,1,2,3,1,2,0,0,0,0,1,0,0,0,35,35,35,0,0,0,0,,,,,,,612.6464704014361,None,613.2517694998533,None,614.2158340010792,None,l,1,0.6829432994127274,614.2158340010792,None,None,None,,,,,,,17,22,female,17,2022_May_09_1643,Partial repeat,2021.2.3,59.88798543995,
1,3,0,1,2,3,1,2,0,0,0,0,1,0,0,0,35,35,35,1,0,1,0,,,,,,,,,614.9089657012373,None,615.6854728013277,None,l,1,0.677224500104785,615.6854728013277,None,None,None,,,,,,,17,22,female,17,2022_May_09_1643,Partial repeat,2021.2.3,59.88798543995,
1,3,0,1,2,3,1,2,0,0,0,0,1,0,0,0,35,35,35,,,,,,,,,,,,,,,,,,,,,,,,,,,,,,17,22,female,17,2022_May_09_1643,Partial repeat,2021.2.3,59.88798543995,
3,6,0,1,3,3,1,2,1,1,1,0,1,0,0,0,36,36,36,0,0,0,0,,,,,,,616.3791863005608,None,617.1593431998044,None,618.090225500986,None,s,1,0.6004712991416454,618.090225500986,None,None,None,,,,,,,17,22,female,17,2022_May_09_1643,Partial repeat,2021.2.3,59.88798543995,
3,6,0,1,3,3,1,2,1,1,1,0,1,0,0,0,36,36,36,1,0,1,0,,,,,,,,,618.7139754015952,None,619.6433375999331,None,s,1,0.9913672003895044,619.6433375999331,None,None,None,,,,,,,17,22,female,17,2022_May_09_1643,Partial repeat,2021.2.3,59.88798543995,
3,6,0,1,3,3,1,2,1,1,1,0,1,0,0,0,36,36,36,,,,,,,,,,,,,,,,,,,,,,,,,,,,,,17,22,female,17,2022_May_09_1643,Partial repeat,2021.2.3,59.88798543995,
1,5,0,1,3,2,2,1,0,0,0,0,1,0,0,0,37,37,37,0,0,0,0,,,,,,,620.6560256015509,None,621.050283100456,None,621.7971266005188,None,l,1,0.6855697985738516,621.7971266005188,None,None,None,,,,,,,17,22,female,17,2022_May_09_1643,Partial repeat,2021.2.3,59.88798543995,
1,5,0,1,3,2,2,1,0,0,0,0,1,0,0,0,37,37,37,1,0,1,0,,,,,,,,,622.5017809011042,None,623.433692401275,None,s,0,0.4410791005939245,623.433692401275,None,623.8845653999597,None,,,,,,,17,22,female,17,2022_May_09_1643,Partial repeat,2021.2.3,59.88798543995,
1,5,0,1,3,2,2,1,0,0,0,0,1,0,0,0,37,37,37,,,,,,,,,,,,,,,,,,,,,,,,,,,,,,17,22,female,17,2022_May_09_1643,Partial repeat,2021.2.3,59.88798543995,
4,4,0,1,2,3,2,2,0,0,0,1,1,0,0,0,38,38,38,0,0,0,0,,,,,,,624.3901436012238,None,625.3249537013471,None,626.3401954006404,None,l,1,0.7425430994480848,626.3401954006404,None,None,None,,,,,,,17,22,female,17,2022_May_09_1643,Partial repeat,2021.2.3,59.88798543995,
4,4,0,1,2,3,2,2,0,0,0,1,1,0,0,0,38,38,38,1,0,1,0,,,,,,,,,627.1100022010505,None,628.1094017010182,None,l,1,0.5252900999039412,628.1094017010182,None,None,None,,,,,,,17,22,female,17,2022_May_09_1643,Partial repeat,2021.2.3,59.88798543995,
4,4,0,1,2,3,2,2,0,0,0,1,1,0,0,0,38,38,38,,,,,,,,,,,,,,,,,,,,,,,,,,,,,,17,22,female,17,2022_May_09_1643,Partial repeat,2021.2.3,59.88798543995,
2,5,0,1,2,2,2,1,1,1,1,0,1,0,0,0,39,39,39,0,0,0,0,,,,,,,628.6546711008996,None,631.5874480009079,None,632.3509523011744,None,s,1,0.7157310005277395,632.3509523011744,None,None,None,,,,,,,17,22,female,17,2022_May_09_1643,Partial repeat,2021.2.3,59.88798543995,
2,5,0,1,2,2,2,1,1,1,1,0,1,0,0,0,39,39,39,1,0,1,0,,,,,,,,,633.0799042005092,None,633.8537499997765,None,s,1,0.6449395008385181,633.8537499997765,None,None,None,,,,,,,17,22,female,17,2022_May_09_1643,Partial repeat,2021.2.3,59.88798543995,
2,5,0,1,2,2,2,1,1,1,1,0,1,0,0,0,39,39,39,,,,,,,,,,,,,,,,,,,,,,,,,,,,,,17,22,female,17,2022_May_09_1643,Partial repeat,2021.2.3,59.88798543995,
3,3,0,1,2,3,1,1,1,0,0,1,0,0,0,0,40,40,40,0,0,0,0,,,,,,,634.52419950068,None,636.0294213015586,None,636.8932716008276,None,s,1,0.5654195006936789,636.8932716008276,None,None,None,,,,,,,17,22,female,17,2022_May_09_1643,Partial repeat,2021.2.3,59.88798543995,
3,3,0,1,2,3,1,1,1,0,0,1,0,0,0,0,40,40,40,1,0,1,0,,,,,,,,,637.4737082011998,None,638.413606800139,None,l,1,0.7570759989321232,638.413606800139,None,None,None,,,,,,,17,22,female,17,2022_May_09_1643,Partial repeat,2021.2.3,59.88798543995,
3,3,0,1,2,3,1,1,1,0,0,1,0,0,0,0,40,40,40,,,,,,,,,,,,,,,,,,,,,,,,,,,,,,17,22,female,17,2022_May_09_1643,Partial repeat,2021.2.3,59.88798543995,
3,5,0,1,3,3,2,1,0,0,1,0,1,0,0,0,41,41,41,0,0,0,0,,,,,,,639.1904825009406,None,641.4232493005693,None,642.4050654005259,None,l,1,0.7816738989204168,642.4050654005259,None,None,None,,,,,,,17,22,female,17,2022_May_09_1643,Partial repeat,2021.2.3,59.88798543995,
3,5,0,1,3,3,2,1,0,0,1,0,1,0,0,0,41,41,41,1,0,1,0,,,,,,,,,643.1947036013007,None,644.1073626000434,None,l,1,0.6473239995539188,644.1073626000434,None,None,None,,,,,,,17,22,female,17,2022_May_09_1643,Partial repeat,2021.2.3,59.88798543995,
3,5,0,1,3,3,2,1,0,0,1,0,1,0,0,0,41,41,41,,,,,,,,,,,,,,,,,,,,,,,,,,,,,,17,22,female,17,2022_May_09_1643,Partial repeat,2021.2.3,59.88798543995,
5,4,0,1,3,2,2,2,0,0,0,1,1,0,0,0,42,42,42,0,0,0,0,,,,,,,644.7733811009675,None,648.0862135011703,None,648.983496401459,None,l,1,0.6031612996011972,648.983496401459,None,None,None,,,,,,,17,22,female,17,2022_May_09_1643,Partial repeat,2021.2.3,59.88798543995,
5,4,0,1,3,2,2,2,0,0,0,1,1,0,0,0,42,42,42,1,0,1,0,,,,,,,,,649.6026844009757,None,650.3526274003088,None,l,1,0.5220921002328396,650.3526274003088,None,None,None,,,,,,,17,22,female,17,2022_May_09_1643,Partial repeat,2021.2.3,59.88798543995,
5,4,0,1,3,2,2,2,0,0,0,1,1,0,0,0,42,42,42,,,,,,,,,,,,,,,,,,,,,,,,,,,,,,17,22,female,17,2022_May_09_1643,Partial repeat,2021.2.3,59.88798543995,
7,4,0,1,2,2,2,1,1,0,1,0,0,0,0,0,43,43,43,0,0,0,0,,,,,,,650.8972020000219,None,652.5782829001546,None,653.4588900003582,None,s,1,0.9918496999889612,653.4588900003582,None,None,None,,,,,,,17,22,female,17,2022_May_09_1643,Partial repeat,2021.2.3,59.88798543995,
7,4,0,1,2,2,2,1,1,0,1,0,0,0,0,0,43,43,43,1,0,1,0,,,,,,,,,654.479923600331,None,655.446147101,None,l,1,0.6445304993540049,655.446147101,None,None,None,,,,,,,17,22,female,17,2022_May_09_1643,Partial repeat,2021.2.3,59.88798543995,
7,4,0,1,2,2,2,1,1,0,1,0,0,0,0,0,43,43,43,,,,,,,,,,,,,,,,,,,,,,,,,,,,,,17,22,female,17,2022_May_09_1643,Partial repeat,2021.2.3,59.88798543995,
3,7,0,1,2,2,1,1,1,0,1,1,0,0,0,0,44,44,44,0,0,0,0,,,,,,,656.1132503002882,None,656.7029628008604,None,657.5683597009629,None,s,1,0.6823360994458199,657.5683597009629,None,None,None,,,,,,,17,22,female,17,2022_May_09_1643,Partial repeat,2021.2.3,59.88798543995,
3,7,0,1,2,2,1,1,1,0,1,1,0,0,0,0,44,44,44,1,0,1,0,,,,,,,,,658.2742891013622,None,659.0028888005763,None,l,1,0.6317777000367641,659.0028888005763,None,None,None,,,,,,,17,22,female,17,2022_May_09_1643,Partial repeat,2021.2.3,59.88798543995,
3,7,0,1,2,2,1,1,1,0,1,1,0,0,0,0,44,44,44,,,,,,,,,,,,,,,,,,,,,,,,,,,,,,17,22,female,17,2022_May_09_1643,Partial repeat,2021.2.3,59.88798543995,
8,2,0,1,2,3,1,1,1,1,0,1,1,0,0,0,45,45,45,0,0,0,0,,,,,,,659.6508572008461,None,660.7608695998788,None,661.5745827015489,None,s,1,0.636107100173831,661.5745827015489,None,None,None,,,,,,,17,22,female,17,2022_May_09_1643,Partial repeat,2021.2.3,59.88798543995,
8,2,0,1,2,3,1,1,1,1,0,1,1,0,0,0,45,45,45,1,0,1,0,,,,,,,,,662.2368857003748,None,663.0774145014584,None,s,1,0.749269800260663,663.0774145014584,None,None,None,,,,,,,17,22,female,17,2022_May_09_1643,Partial repeat,2021.2.3,59.88798543995,
8,2,0,1,2,3,1,1,1,1,0,1,1,0,0,0,45,45,45,,,,,,,,,,,,,,,,,,,,,,,,,,,,,,17,22,female,17,2022_May_09_1643,Partial repeat,2021.2.3,59.88798543995,
8,6,0,1,2,2,1,1,1,1,1,1,1,0,0,0,46,46,46,0,0,0,0,,,,,,,663.8503368999809,None,665.2195306010544,None,666.1167657002807,None,s,1,0.6859277002513409,666.1167657002807,None,None,None,,,,,,,17,22,female,17,2022_May_09_1643,Partial repeat,2021.2.3,59.88798543995,
8,6,0,1,2,2,1,1,1,1,1,1,1,0,0,0,46,46,46,1,0,1,0,,,,,,,,,666.8253438007087,None,667.8203280009329,None,s,1,0.6464188005775213,667.8203280009329,None,None,None,,,,,,,17,22,female,17,2022_May_09_1643,Partial repeat,2021.2.3,59.88798543995,
8,6,0,1,2,2,1,1,1,1,1,1,1,0,0,0,46,46,46,,,,,,,,,,,,,,,,,,,,,,,,,,,,,,17,22,female,17,2022_May_09_1643,Partial repeat,2021.2.3,59.88798543995,
6,6,0,1,3,3,2,2,0,0,1,1,1,0,0,0,47,47,47,0,0,0,0,,,,,,,668.4886950012296,None,670.9640457015485,None,671.7778416015208,None,s,0,0.7528472989797592,671.7778416015208,None,672.5501228999346,None,,,,,,,17,22,female,17,2022_May_09_1643,Partial repeat,2021.2.3,59.88798543995,
6,6,0,1,3,3,2,2,0,0,1,1,1,0,0,0,47,47,47,1,0,1,0,,,,,,,,,673.051455900073,None,674.0320063009858,None,s,0,0.5946633014827967,674.0320063009858,None,674.653731700033,None,,,,,,,17,22,female,17,2022_May_09_1643,Partial repeat,2021.2.3,59.88798543995,
6,6,0,1,3,3,2,2,0,0,1,1,1,0,0,0,47,47,47,,,,,,,,,,,,,,,,,,,,,,,,,,,,,,17,22,female,17,2022_May_09_1643,Partial repeat,2021.2.3,59.88798543995,
7,1,0,1,3,2,1,2,1,0,0,0,0,0,0,0,48,48,48,0,0,0,0,,,,,,,675.1556036006659,None,675.7065891008824,None,676.4702729005367,None,s,1,1.2044364996254444,676.4702729005367,None,None,None,,,,,,,17,22,female,17,2022_May_09_1643,Partial repeat,2021.2.3,59.88798543995,
7,1,0,1,3,2,1,2,1,0,0,0,0,0,0,0,48,48,48,1,0,1,0,,,,,,,,,677.6865186002105,None,678.4241286013275,None,l,1,0.6347001008689404,678.4241286013275,None,None,None,,,,,,,17,22,female,17,2022_May_09_1643,Partial repeat,2021.2.3,59.88798543995,
7,1,0,1,3,2,1,2,1,0,0,0,0,0,0,0,48,48,48,,,,,,,,,,,,,,,,,,,,,,,,,,,,,,17,22,female,17,2022_May_09_1643,Partial repeat,2021.2.3,59.88798543995,
3,1,0,1,3,3,1,2,0,0,1,0,1,0,0,0,49,49,49,0,0,0,0,,,,,,,679.0729655008763,None,679.814611800015,None,680.812271701172,None,l,1,0.6864179000258446,680.812271701172,None,None,None,,,,,,,17,22,female,17,2022_May_09_1643,Partial repeat,2021.2.3,59.88798543995,
3,1,0,1,3,3,1,2,0,0,1,0,1,0,0,0,49,49,49,1,0,1,0,,,,,,,,,681.5182229001075,None,682.4485291000456,None,l,1,0.5702809002250433,682.4485291000456,None,None,None,,,,,,,17,22,female,17,2022_May_09_1643,Partial repeat,2021.2.3,59.88798543995,
3,1,0,1,3,3,1,2,0,0,1,0,1,0,0,0,49,49,49,,,,,,,,,,,,,,,,,,,,,,,,,,,,,,17,22,female,17,2022_May_09_1643,Partial repeat,2021.2.3,59.88798543995,
2,6,0,1,3,2,1,1,0,1,0,1,0,0,0,0,50,50,50,0,0,0,0,,,,,,,683.0318715013564,None,684.9412336014211,None,685.7390112001449,None,l,1,0.6397259999066591,685.7390112001449,None,None,None,,,,,,,17,22,female,17,2022_May_09_1643,Partial repeat,2021.2.3,59.88798543995,
2,6,0,1,3,2,1,1,0,1,0,1,0,0,0,0,50,50,50,1,0,1,0,,,,,,,,,686.4022247008979,None,687.2747486010194,None,s,1,0.7439157012850046,687.2747486010194,None,None,None,,,,,,,17,22,female,17,2022_May_09_1643,Partial repeat,2021.2.3,59.88798543995,
2,6,0,1,3,2,1,1,0,1,0,1,0,0,0,0,50,50,50,,,,,,,,,,,,,,,,,,,,,,,,,,,,,,17,22,female,17,2022_May_09_1643,Partial repeat,2021.2.3,59.88798543995,
5,2,0,1,3,2,2,2,0,1,0,1,0,0,0,0,51,51,51,0,0,0,0,,,,,,,688.035038901493,None,688.8655012007803,None,689.8129444010556,None,l,1,1.3097325004637241,689.8129444010556,None,None,None,,,,,,,17,22,female,17,2022_May_09_1643,Partial repeat,2021.2.3,59.88798543995,
5,2,0,1,3,2,2,2,0,1,0,1,0,0,0,0,51,51,51,1,0,1,0,,,,,,,,,691.1359104011208,None,692.0177615005523,None,s,1,0.633033799007535,692.0177615005523,None,None,None,,,,,,,17,22,female,17,2022_May_09_1643,Partial repeat,2021.2.3,59.88798543995,
5,2,0,1,3,2,2,2,0,1,0,1,0,0,0,0,51,51,51,,,,,,,,,,,,,,,,,,,,,,,,,,,,,,17,22,female,17,2022_May_09_1643,Partial repeat,2021.2.3,59.88798543995,
2,3,0,1,3,2,1,1,1,0,0,1,0,0,0,0,52,52,52,0,0,0,0,,,,,,,692.663785001263,None,695.3949312008917,None,696.3756926003844,None,s,1,1.370991699397564,696.3756926003844,None,None,None,,,,,,,17,22,female,17,2022_May_09_1643,Partial repeat,2021.2.3,59.88798543995,
2,3,0,1,3,2,1,1,1,0,0,1,0,0,0,0,52,52,52,1,0,1,0,,,,,,,,,697.7606962006539,None,698.7310183998197,None,l,1,0.5756633002310991,698.7310183998197,None,None,None,,,,,,,17,22,female,17,2022_May_09_1643,Partial repeat,2021.2.3,59.88798543995,
2,3,0,1,3,2,1,1,1,0,0,1,0,0,0,0,52,52,52,,,,,,,,,,,,,,,,,,,,,,,,,,,,,,17,22,female,17,2022_May_09_1643,Partial repeat,2021.2.3,59.88798543995,
2,4,0,1,2,3,1,2,1,1,0,0,1,0,0,0,53,53,53,0,0,0,0,,,,,,,699.3333732001483,None,699.9705049004406,None,700.7526213005185,None,s,1,0.8500736001878977,700.7526213005185,None,None,None,,,,,,,17,22,female,17,2022_May_09_1643,Partial repeat,2021.2.3,59.88798543995,
2,4,0,1,2,3,1,2,1,1,0,0,1,0,0,0,53,53,53,1,0,1,0,,,,,,,,,701.6144223008305,None,702.4876813013107,None,s,1,0.6670128013938665,702.4876813013107,None,None,None,,,,,,,17,22,female,17,2022_May_09_1643,Partial repeat,2021.2.3,59.88798543995,
2,4,0,1,2,3,1,2,1,1,0,0,1,0,0,0,53,53,53,,,,,,,,,,,,,,,,,,,,,,,,,,,,,,17,22,female,17,2022_May_09_1643,Partial repeat,2021.2.3,59.88798543995,
7,6,0,1,3,3,1,1,1,1,1,1,1,0,0,0,54,54,54,0,0,0,0,,,,,,,703.182459000498,None,703.5608002003282,None,704.4925962015986,None,s,1,0.886073000729084,704.4925962015986,None,None,None,,,,,,,17,22,female,17,2022_May_09_1643,Partial repeat,2021.2.3,59.88798543995,
7,6,0,1,3,3,1,1,1,1,1,1,1,0,0,0,54,54,54,1,0,1,0,,,,,,,,,705.39816580154,None,706.3455288000405,None,s,1,0.617162799462676,706.3455288000405,None,None,None,,,,,,,17,22,female,17,2022_May_09_1643,Partial repeat,2021.2.3,59.88798543995,
7,6,0,1,3,3,1,1,1,1,1,1,1,0,0,0,54,54,54,,,,,,,,,,,,,,,,,,,,,,,,,,,,,,17,22,female,17,2022_May_09_1643,Partial repeat,2021.2.3,59.88798543995,
8,5,0,1,2,3,2,1,0,1,0,0,0,0,0,0,55,55,55,0,0,0,0,,,,,,,706.9899122007191,None,707.4851601999253,None,708.4667143002152,None,l,1,0.6719656009227037,708.4667143002152,None,None,None,,,,,,,17,22,female,17,2022_May_09_1643,Partial repeat,2021.2.3,59.88798543995,
8,5,0,1,2,3,2,1,0,1,0,0,0,0,0,0,55,55,55,1,0,1,0,,,,,,,,,709.1553886998445,None,709.9194977004081,None,s,1,0.5072374995797873,709.9194977004081,None,None,None,,,,,,,17,22,female,17,2022_May_09_1643,Partial repeat,2021.2.3,59.88798543995,
8,5,0,1,2,3,2,1,0,1,0,0,0,0,0,0,55,55,55,,,,,,,,,,,,,,,,,,,,,,,,,,,,,,17,22,female,17,2022_May_09_1643,Partial repeat,2021.2.3,59.88798543995,
6,3,0,1,2,3,2,2,1,0,0,1,0,0,0,0,56,56,56,0,0,0,0,,,,,,,710.4375063013285,None,710.841571001336,None,711.8073706012219,None,s,1,0.6273226998746395,711.8073706012219,None,None,None,,,,,,,17,22,female,17,2022_May_09_1643,Partial repeat,2021.2.3,59.88798543995,
6,3,0,1,2,3,2,2,1,0,0,1,0,0,0,0,56,56,56,1,0,1,0,,,,,,,,,712.449207900092,None,713.2424960006028,None,l,1,0.7761781997978687,713.2424960006028,None,None,None,,,,,,,17,22,female,17,2022_May_09_1643,Partial repeat,2021.2.3,59.88798543995,
6,3,0,1,2,3,2,2,1,0,0,1,0,0,0,0,56,56,56,,,,,,,,,,,,,,,,,,,,,,,,,,,,,,17,22,female,17,2022_May_09_1643,Partial repeat,2021.2.3,59.88798543995,
1,8,0,1,2,2,2,1,0,0,1,0,1,0,0,0,57,57,57,0,0,0,0,,,,,,,714.0431174002588,None,714.5321599002928,None,715.2796673998237,None,l,1,0.5710088983178139,715.2796673998237,None,None,None,,,,,,,17,22,female,17,2022_May_09_1643,Partial repeat,2021.2.3,59.88798543995,
1,8,0,1,2,2,2,1,0,0,1,0,1,0,0,0,57,57,57,1,0,1,0,,,,,,,,,715.8719878010452,None,716.8327627014369,None,l,1,0.4979085009545088,716.8327627014369,None,None,None,,,,,,,17,22,female,17,2022_May_09_1643,Partial repeat,2021.2.3,59.88798543995,
1,8,0,1,2,2,2,1,0,0,1,0,1,0,0,0,57,57,57,,,,,,,,,,,,,,,,,,,,,,,,,,,,,,17,22,female,17,2022_May_09_1643,Partial repeat,2021.2.3,59.88798543995,
1,1,0,1,3,2,2,1,0,1,0,0,0,0,0,0,58,58,58,0,0,0,0,,,,,,,717.3454670011997,None,717.9554920010269,None,718.7364426013082,None,l,1,0.5542349014431238,718.7364426013082,None,None,None,,,,,,,17,22,female,17,2022_May_09_1643,Partial repeat,2021.2.3,59.88798543995,
1,1,0,1,3,2,2,1,0,1,0,0,0,0,0,0,58,58,58,1,0,1,0,,,,,,,,,719.3140933997929,None,720.055702900514,None,s,1,0.6670059002935886,720.055702900514,None,None,None,,,,,,,17,22,female,17,2022_May_09_1643,Partial repeat,2021.2.3,59.88798543995,
1,1,0,1,3,2,2,1,0,1,0,0,0,0,0,0,58,58,58,,,,,,,,,,,,,,,,,,,,,,,,,,,,,,17,22,female,17,2022_May_09_1643,Partial repeat,2021.2.3,59.88798543995,
8,4,0,1,3,2,2,1,1,0,0,0,0,0,0,0,59,59,59,0,0,0,0,,,,,,,720.7417658008635,None,721.3119708001614,None,722.0938579011708,None,s,1,0.7808197010308504,722.0938579011708,None,None,None,,,,,,,17,22,female,17,2022_May_09_1643,Partial repeat,2021.2.3,59.88798543995,
8,4,0,1,3,2,2,1,1,0,0,0,0,0,0,0,59,59,59,1,0,1,0,,,,,,,,,722.8933010008186,None,723.7625879012048,None,l,1,0.7362152002751827,723.7625879012048,None,None,None,,,,,,,17,22,female,17,2022_May_09_1643,Partial repeat,2021.2.3,59.88798543995,
8,4,0,1,3,2,2,1,1,0,0,0,0,0,0,0,59,59,59,,,,,,,,,,,,,,,,,,,,,,,,,,,,,,17,22,female,17,2022_May_09_1643,Partial repeat,2021.2.3,59.88798543995,
6,5,0,1,2,3,2,1,1,1,0,0,1,0,0,0,60,60,60,0,0,0,0,,,,,,,724.5280643999577,None,725.2530105002224,None,726.0509739015251,None,s,1,0.5677148997783661,726.0509739015251,None,None,None,,,,,,,17,22,female,17,2022_May_09_1643,Partial repeat,2021.2.3,59.88798543995,
6,5,0,1,2,3,2,1,1,1,0,0,1,0,0,0,60,60,60,1,0,1,0,,,,,,,,,726.6415141001344,None,727.420276099816,None,s,1,0.4863948989659548,727.420276099816,None,None,None,,,,,,,17,22,female,17,2022_May_09_1643,Partial repeat,2021.2.3,59.88798543995,
6,5,0,1,2,3,2,1,1,1,0,0,1,0,0,0,60,60,60,,,,,,,,,,,,,,,,,,,,,,,,,,,,,,17,22,female,17,2022_May_09_1643,Partial repeat,2021.2.3,59.88798543995,
6,4,0,1,2,2,1,2,0,1,1,0,0,0,0,0,61,61,61,0,0,0,0,,,,,,,727.9366174004972,None,728.3924115002155,None,729.1730586010963,None,l,1,1.029610900208354,729.1730586010963,None,None,None,,,,,,,17,22,female,17,2022_May_09_1643,Partial repeat,2021.2.3,59.88798543995,
6,4,0,1,2,2,1,2,0,1,1,0,0,0,0,0,61,61,61,1,0,1,0,,,,,,,,,730.2194293998182,None,730.94318700023,None,s,1,0.6674899011850357,730.94318700023,None,None,None,,,,,,,17,22,female,17,2022_May_09_1643,Partial repeat,2021.2.3,59.88798543995,
6,4,0,1,2,2,1,2,0,1,1,0,0,0,0,0,61,61,61,,,,,,,,,,,,,,,,,,,,,,,,,,,,,,17,22,female,17,2022_May_09_1643,Partial repeat,2021.2.3,59.88798543995,
6,7,0,1,3,2,1,2,1,1,0,0,1,0,0,0,62,62,62,0,0,0,0,,,,,,,731.6277093999088,None,732.0829779002815,None,732.9975907001644,None,s,1,0.6530373003333807,732.9975907001644,None,None,None,,,,,,,17,22,female,17,2022_May_09_1643,Partial repeat,2021.2.3,59.88798543995,
6,7,0,1,3,2,1,2,1,1,0,0,1,0,0,0,62,62,62,1,0,1,0,,,,,,,,,733.6733654011041,None,734.653293101117,None,s,1,0.5253765005618334,734.653293101117,None,None,None,,,,,,,17,22,female,17,2022_May_09_1643,Partial repeat,2021.2.3,59.88798543995,
6,7,0,1,3,2,1,2,1,1,0,0,1,0,0,0,62,62,62,,,,,,,,,,,,,,,,,,,,,,,,,,,,,,17,22,female,17,2022_May_09_1643,Partial repeat,2021.2.3,59.88798543995,
4,1,0,1,2,2,1,1,0,0,1,1,1,0,0,0,63,63,63,0,0,0,0,,,,,,,735.2049436997622,None,735.6565342005342,None,736.6715380009264,None,l,1,0.931139100342989,736.6715380009264,None,None,None,,,,,,,17,22,female,17,2022_May_09_1643,Partial repeat,2021.2.3,59.88798543995,
4,1,0,1,2,2,1,1,0,0,1,1,1,0,0,0,63,63,63,1,0,1,0,,,,,,,,,737.6267269011587,None,738.4424713999033,None,l,1,0.7601986993104219,738.4424713999033,None,None,None,,,,,,,17,22,female,17,2022_May_09_1643,Partial repeat,2021.2.3,59.88798543995,
4,1,0,1,2,2,1,1,0,0,1,1,1,0,0,0,63,63,63,,,,,,,,,,,,,,,,,,,,,,,,,,,,,,17,22,female,17,2022_May_09_1643,Partial repeat,2021.2.3,59.88798543995,
8,8,0,1,3,3,2,1,0,0,1,0,1,1,0,0,64,64,64,0,0,0,0,,,,,,,746.3463663011789,None,749.6671553999186,None,750.6815438009799,None,l,1,0.6571302004158497,750.6815438009799,None,None,None,,,,,,,17,22,female,17,2022_May_09_1643,Partial repeat,2021.2.3,59.88798543995,
8,8,0,1,3,3,2,1,0,0,1,0,1,1,0,0,64,64,64,1,0,1,0,,,,,,,,,751.3552508000284,None,752.1844209004194,None,l,1,0.5063119009137154,752.1844209004194,None,None,None,,,,,,,17,22,female,17,2022_May_09_1643,Partial repeat,2021.2.3,59.88798543995,
8,8,0,1,3,3,2,1,0,0,1,0,1,1,0,0,64,64,64,,,,,,,,,,,,,,,,,,,,,,,,,,,,,,17,22,female,17,2022_May_09_1643,Partial repeat,2021.2.3,59.88798543995,
8,8,0,1,2,3,1,2,0,1,0,0,0,1,0,0,65,65,65,0,0,0,0,,,,,,,752.7064436003566,None,753.1572539005429,None,754.1382006015629,None,l,1,0.5844839997589588,754.1382006015629,None,None,None,,,,,,,17,22,female,17,2022_May_09_1643,Partial repeat,2021.2.3,59.88798543995,
8,8,0,1,2,3,1,2,0,1,0,0,0,1,0,0,65,65,65,1,0,1,0,,,,,,,,,754.7383619006723,None,755.6244530007243,None,s,1,0.6902150008827448,755.6244530007243,None,None,None,,,,,,,17,22,female,17,2022_May_09_1643,Partial repeat,2021.2.3,59.88798543995,
8,8,0,1,2,3,1,2,0,1,0,0,0,1,0,0,65,65,65,,,,,,,,,,,,,,,,,,,,,,,,,,,,,,17,22,female,17,2022_May_09_1643,Partial repeat,2021.2.3,59.88798543995,
8,8,0,1,3,3,1,2,0,0,1,0,1,1,0,0,66,66,66,0,0,0,0,,,,,,,756.3362325001508,None,756.7309365011752,None,757.4621131997555,None,l,1,0.6045552995055914,757.4621131997555,None,None,None,,,,,,,17,22,female,17,2022_May_09_1643,Partial repeat,2021.2.3,59.88798543995,
8,8,0,1,3,3,1,2,0,0,1,0,1,1,0,0,66,66,66,1,0,1,0,,,,,,,,,758.0927688013762,None,759.0810248013586,None,l,1,0.553727800026536,759.0810248013586,None,None,None,,,,,,,17,22,female,17,2022_May_09_1643,Partial repeat,2021.2.3,59.88798543995,
8,8,0,1,3,3,1,2,0,0,1,0,1,1,0,0,66,66,66,,,,,,,,,,,,,,,,,,,,,,,,,,,,,,17,22,female,17,2022_May_09_1643,Partial repeat,2021.2.3,59.88798543995,
8,8,0,1,2,2,2,2,1,1,1,1,1,1,0,0,67,67,67,0,0,0,0,,,,,,,759.6481082998216,None,760.1041432004422,None,761.1181457005441,None,s,1,0.6524724010378122,761.1181457005441,None,None,None,,,,,,,17,22,female,17,2022_May_09_1643,Partial repeat,2021.2.3,59.88798543995,
8,8,0,1,2,2,2,2,1,1,1,1,1,1,0,0,67,67,67,1,0,1,0,,,,,,,,,761.7823633998632,None,762.7714172005653,None,s,1,0.5112824011594057,762.7714172005653,None,None,None,,,,,,,17,22,female,17,2022_May_09_1643,Partial repeat,2021.2.3,59.88798543995,
8,8,0,1,2,2,2,2,1,1,1,1,1,1,0,0,67,67,67,,,,,,,,,,,,,,,,,,,,,,,,,,,,,,17,22,female,17,2022_May_09_1643,Partial repeat,2021.2.3,59.88798543995,
8,8,0,1,3,2,1,1,1,1,0,1,1,1,0,0,68,68,68,0,0,0,0,,,,,,,763.3124444000423,None,763.7111761998385,None,764.474731400609,None,s,1,0.5119342990219593,764.474731400609,None,None,None,,,,,,,17,22,female,17,2022_May_09_1643,Partial repeat,2021.2.3,59.88798543995,
8,8,0,1,3,2,1,1,1,1,0,1,1,1,0,0,68,68,68,1,0,1,0,,,,,,,,,765.0100848004222,None,765.9112685006112,None,s,1,0.49939149990677834,765.9112685006112,None,None,None,,,,,,,17,22,female,17,2022_May_09_1643,Partial repeat,2021.2.3,59.88798543995,
8,8,0,1,3,2,1,1,1,1,0,1,1,1,0,0,68,68,68,,,,,,,,,,,,,,,,,,,,,,,,,,,,,,17,22,female,17,2022_May_09_1643,Partial repeat,2021.2.3,59.88798543995,
8,8,0,1,3,2,2,1,1,0,0,0,0,1,0,0,69,69,69,0,0,0,0,,,,,,,766.4354287013412,None,766.7838145010173,None,767.614389501512,None,s,1,0.5084204990416765,767.614389501512,None,None,None,,,,,,,17,22,female,17,2022_May_09_1643,Partial repeat,2021.2.3,59.88798543995,
8,8,0,1,3,2,2,1,1,0,0,0,0,1,0,0,69,69,69,1,0,1,0,,,,,,,,,768.1332722008228,None,769.0672660004348,None,l,1,0.487356498837471,769.0672660004348,None,None,None,,,,,,,17,22,female,17,2022_May_09_1643,Partial repeat,2021.2.3,59.88798543995,
8,8,0,1,3,2,2,1,1,0,0,0,0,1,0,0,69,69,69,,,,,,,,,,,,,,,,,,,,,,,,,,,,,,17,22,female,17,2022_May_09_1643,Partial repeat,2021.2.3,59.88798543995,
8,8,0,1,2,2,2,1,1,1,1,0,1,1,0,0,70,70,70,0,0,0,0,,,,,,,769.5663525015116,None,769.9900251999497,None,770.788329500705,None,l,0,0.4224552009254694,770.788329500705,None,771.2218725010753,None,,,,,,,17,22,female,17,2022_May_09_1643,Partial repeat,2021.2.3,59.88798543995,
8,8,0,1,2,2,2,1,1,1,1,0,1,1,0,0,70,70,70,1,0,1,0,,,,,,,,,771.7266228012741,None,772.6072655003518,None,s,1,0.563367199152708,772.6072655003518,None,None,None,,,,,,,17,22,female,17,2022_May_09_1643,Partial repeat,2021.2.3,59.88798543995,
8,8,0,1,2,2,2,1,1,1,1,0,1,1,0,0,70,70,70,,,,,,,,,,,,,,,,,,,,,,,,,,,,,,17,22,female,17,2022_May_09_1643,Partial repeat,2021.2.3,59.88798543995,
8,8,0,1,2,2,1,2,1,1,1,0,1,1,0,0,71,71,71,0,0,0,0,,,,,,,773.1920095998794,None,773.6972803007811,None,774.6949029006064,None,s,1,0.5718029998242855,774.6949029006064,None,None,None,,,,,,,17,22,female,17,2022_May_09_1643,Partial repeat,2021.2.3,59.88798543995,
8,8,0,1,2,2,1,2,1,1,1,0,1,1,0,0,71,71,71,1,0,1,0,,,,,,,,,775.2948911003768,None,776.2479093000293,None,s,1,0.5467920005321503,776.2479093000293,None,None,None,,,,,,,17,22,female,17,2022_May_09_1643,Partial repeat,2021.2.3,59.88798543995,
8,8,0,1,2,2,1,2,1,1,1,0,1,1,0,0,71,71,71,,,,,,,,,,,,,,,,,,,,,,,,,,,,,,17,22,female,17,2022_May_09_1643,Partial repeat,2021.2.3,59.88798543995,
8,8,0,1,3,3,2,1,0,1,1,0,0,1,0,0,72,72,72,0,0,0,0,,,,,,,776.8128380998969,None,777.1874008011073,None,778.1848643012345,None,l,1,0.5858704000711441,778.1848643012345,None,None,None,,,,,,,17,22,female,17,2022_May_09_1643,Partial repeat,2021.2.3,59.88798543995,
8,8,0,1,3,3,2,1,0,1,1,0,0,1,0,0,72,72,72,1,0,1,0,,,,,,,,,778.7856362015009,None,779.6375041007996,None,l,0,0.4611621983349323,779.6375041007996,None,780.1125850006938,None,,,,,,,17,22,female,17,2022_May_09_1643,Partial repeat,2021.2.3,59.88798543995,
8,8,0,1,3,3,2,1,0,1,1,0,0,1,0,0,72,72,72,,,,,,,,,,,,,,,,,,,,,,,,,,,,,,17,22,female,17,2022_May_09_1643,Partial repeat,2021.2.3,59.88798543995,
8,8,0,1,3,2,2,2,1,1,0,1,1,1,0,0,73,73,73,0,0,0,0,,,,,,,780.627504400909,None,781.0115045011044,None,781.8753320015967,None,s,1,0.7193563990294933,781.8753320015967,None,None,None,,,,,,,17,22,female,17,2022_May_09_1643,Partial repeat,2021.2.3,59.88798543995,
8,8,0,1,3,2,2,2,1,1,0,1,1,1,0,0,73,73,73,1,0,1,0,,,,,,,,,782.6040722001344,None,783.5617885999382,None,s,1,0.5288708005100489,783.5617885999382,None,None,None,,,,,,,17,22,female,17,2022_May_09_1643,Partial repeat,2021.2.3,59.88798543995,
8,8,0,1,3,2,2,2,1,1,0,1,1,1,0,0,73,73,73,,,,,,,,,,,,,,,,,,,,,,,,,,,,,,17,22,female,17,2022_May_09_1643,Partial repeat,2021.2.3,59.88798543995,
8,8,0,1,2,2,2,1,0,1,1,0,0,1,0,0,74,74,74,0,0,0,0,,,,,,,784.1048952005804,None,784.5350042004138,None,785.4165617004037,None,l,1,0.5941043999046087,785.4165617004037,None,None,None,,,,,,,17,22,female,17,2022_May_09_1643,Partial repeat,2021.2.3,59.88798543995,
8,8,0,1,2,2,2,1,0,1,1,0,0,1,0,0,74,74,74,1,0,1,0,,,,,,,,,786.0371510013938,None,786.8016958013177,None,s,1,0.672962898388505,786.8016958013177,None,None,None,,,,,,,17,22,female,17,2022_May_09_1643,Partial repeat,2021.2.3,59.88798543995,
8,8,0,1,2,2,2,1,0,1,1,0,0,1,0,0,74,74,74,,,,,,,,,,,,,,,,,,,,,,,,,,,,,,17,22,female,17,2022_May_09_1643,Partial repeat,2021.2.3,59.88798543995,
8,8,0,1,3,3,2,2,1,1,1,1,1,1,0,0,75,75,75,0,0,0,0,,,,,,,787.4927124008536,None,787.824769500643,None,788.8386976011097,None,s,1,0.5480435006320477,788.8386976011097,None,None,None,,,,,,,17,22,female,17,2022_May_09_1643,Partial repeat,2021.2.3,59.88798543995,
8,8,0,1,3,3,2,2,1,1,1,1,1,1,0,0,75,75,75,1,0,1,0,,,,,,,,,789.3951743002981,None,790.3253955002874,None,s,1,0.3733021002262831,790.3253955002874,None,None,None,,,,,,,17,22,female,17,2022_May_09_1643,Partial repeat,2021.2.3,59.88798543995,
8,8,0,1,3,3,2,2,1,1,1,1,1,1,0,0,75,75,75,,,,,,,,,,,,,,,,,,,,,,,,,,,,,,17,22,female,17,2022_May_09_1643,Partial repeat,2021.2.3,59.88798543995,
8,8,0,1,2,3,2,1,0,0,0,0,1,1,0,0,76,76,76,0,0,0,0,,,,,,,790.7220042999834,None,791.131160300225,None,791.8779853004962,None,l,1,0.5966846998780966,791.8779853004962,None,None,None,,,,,,,17,22,female,17,2022_May_09_1643,Partial repeat,2021.2.3,59.88798543995,
8,8,0,1,2,3,2,1,0,0,0,0,1,1,0,0,76,76,76,1,0,1,0,,,,,,,,,792.4980287011713,None,793.4146031998098,None,l,1,0.42807359993457794,793.4146031998098,None,None,None,,,,,,,17,22,female,17,2022_May_09_1643,Partial repeat,2021.2.3,59.88798543995,
8,8,0,1,2,3,2,1,0,0,0,0,1,1,0,0,76,76,76,,,,,,,,,,,,,,,,,,,,,,,,,,,,,,17,22,female,17,2022_May_09_1643,Partial repeat,2021.2.3,59.88798543995,
8,8,0,1,3,2,2,1,0,1,0,0,0,1,0,0,77,77,77,0,0,0,0,,,,,,,793.8718201015145,None,794.2370477002114,None,795.08451339975,None,l,1,0.702147800475359,795.08451339975,None,None,None,,,,,,,17,22,female,17,2022_May_09_1643,Partial repeat,2021.2.3,59.88798543995,
8,8,0,1,3,2,2,1,0,1,0,0,0,1,0,0,77,77,77,1,0,1,0,,,,,,,,,795.811547100544,None,796.7210473008454,None,s,1,0.4656106997281313,796.7210473008454,None,None,None,,,,,,,17,22,female,17,2022_May_09_1643,Partial repeat,2021.2.3,59.88798543995,
8,8,0,1,3,2,2,1,0,1,0,0,0,1,0,0,77,77,77,,,,,,,,,,,,,,,,,,,,,,,,,,,,,,17,22,female,17,2022_May_09_1643,Partial repeat,2021.2.3,59.88798543995,
8,8,0,1,3,3,1,1,0,1,1,1,0,1,0,0,78,78,78,0,0,0,0,,,,,,,797.1975226011127,None,797.5937625002116,None,798.6088167000562,None,l,1,0.5778820998966694,798.6088167000562,None,None,None,,,,,,,17,22,female,17,2022_May_09_1643,Partial repeat,2021.2.3,59.88798543995,
8,8,0,1,3,3,1,1,0,1,1,1,0,1,0,0,78,78,78,1,0,1,0,,,,,,,,,799.208057301119,None,800.0606776010245,None,s,1,0.5259570982307196,800.0606776010245,None,None,None,,,,,,,17,22,female,17,2022_May_09_1643,Partial repeat,2021.2.3,59.88798543995,
8,8,0,1,3,3,1,1,0,1,1,1,0,1,0,0,78,78,78,,,,,,,,,,,,,,,,,,,,,,,,,,,,,,17,22,female,17,2022_May_09_1643,Partial repeat,2021.2.3,59.88798543995,
8,8,0,1,2,2,1,1,1,1,1,1,1,1,0,0,79,79,79,0,0,0,0,,,,,,,800.5985174011439,None,801.0671362001449,None,802.081427000463,None,s,1,0.6252363007515669,802.081427000463,None,None,None,,,,,,,17,22,female,17,2022_May_09_1643,Partial repeat,2021.2.3,59.88798543995,
8,8,0,1,2,2,1,1,1,1,1,1,1,1,0,0,79,79,79,1,0,1,0,,,,,,,,,802.7235738001764,None,803.5007011014968,None,s,1,1.7979635000228882,803.5007011014968,None,None,None,,,,,,,17,22,female,17,2022_May_09_1643,Partial repeat,2021.2.3,59.88798543995,
8,8,0,1,2,2,1,1,1,1,1,1,1,1,0,0,79,79,79,,,,,,,,,,,,,,,,,,,,,,,,,,,,,,17,22,female,17,2022_May_09_1643,Partial repeat,2021.2.3,59.88798543995,
8,8,0,1,3,2,1,1,0,0,0,1,1,1,0,0,80,80,80,0,0,0,0,,,,,,,805.3255213014781,None,805.8762201014906,None,806.8571888003498,None,l,1,0.5854803994297981,806.8571888003498,None,None,None,,,,,,,17,22,female,17,2022_May_09_1643,Partial repeat,2021.2.3,59.88798543995,
8,8,0,1,3,2,1,1,0,0,0,1,1,1,0,0,80,80,80,1,0,1,0,,,,,,,,,807.4623710010201,None,808.211172901094,None,l,1,0.5515931006520987,808.211172901094,None,None,None,,,,,,,17,22,female,17,2022_May_09_1643,Partial repeat,2021.2.3,59.88798543995,
8,8,0,1,3,2,1,1,0,0,0,1,1,1,0,0,80,80,80,,,,,,,,,,,,,,,,,,,,,,,,,,,,,,17,22,female,17,2022_May_09_1643,Partial repeat,2021.2.3,59.88798543995,
8,8,0,1,2,3,1,1,1,1,0,1,1,1,0,0,81,81,81,0,0,0,0,,,,,,,808.7738877013326,None,809.0994914006442,None,809.9465450998396,None,s,1,0.5521063003689051,809.9465450998396,None,None,None,,,,,,,17,22,female,17,2022_May_09_1643,Partial repeat,2021.2.3,59.88798543995,
8,8,0,1,2,3,1,1,1,1,0,1,1,1,0,0,81,81,81,1,0,1,0,,,,,,,,,810.5082103013992,None,811.3329234011471,None,s,1,0.4938395991921425,811.3329234011471,None,None,None,,,,,,,17,22,female,17,2022_May_09_1643,Partial repeat,2021.2.3,59.88798543995,
8,8,0,1,2,3,1,1,1,1,0,1,1,1,0,0,81,81,81,,,,,,,,,,,,,,,,,,,,,,,,,,,,,,17,22,female,17,2022_May_09_1643,Partial repeat,2021.2.3,59.88798543995,
8,8,0,1,3,2,1,2,0,1,0,0,0,1,0,0,82,82,82,0,0,0,0,,,,,,,811.8561099004,None,812.2055398002267,None,812.9523694999516,None,l,1,0.7702925987541676,812.9523694999516,None,None,None,,,,,,,17,22,female,17,2022_May_09_1643,Partial repeat,2021.2.3,59.88798543995,
8,8,0,1,3,2,1,2,0,1,0,0,0,1,0,0,82,82,82,1,0,1,0,,,,,,,,,813.7381163015962,None,814.5553197003901,None,s,1,0.48734830133616924,814.5553197003901,None,None,None,,,,,,,17,22,female,17,2022_May_09_1643,Partial repeat,2021.2.3,59.88798543995,
8,8,0,1,3,2,1,2,0,1,0,0,0,1,0,0,82,82,82,,,,,,,,,,,,,,,,,,,,,,,,,,,,,,17,22,female,17,2022_May_09_1643,Partial repeat,2021.2.3,59.88798543995,
8,8,0,1,2,3,1,1,0,1,0,1,0,1,0,0,83,83,83,0,0,0,0,,,,,,,815.0566698014736,None,815.3952222000808,None,816.1592184007168,None,l,1,0.555476900190115,816.1592184007168,None,None,None,,,,,,,17,22,female,17,2022_May_09_1643,Partial repeat,2021.2.3,59.88798543995,
8,8,0,1,2,3,1,1,0,1,0,1,0,1,0,0,83,83,83,1,0,1,0,,,,,,,,,816.7309371009469,None,817.7285746000707,None,s,1,0.5860941000282764,817.7285746000707,None,None,None,,,,,,,17,22,female,17,2022_May_09_1643,Partial repeat,2021.2.3,59.88798543995,
8,8,0,1,2,3,1,1,0,1,0,1,0,1,0,0,83,83,83,,,,,,,,,,,,,,,,,,,,,,,,,,,,,,17,22,female,17,2022_May_09_1643,Partial repeat,2021.2.3,59.88798543995,
8,8,0,1,2,3,2,2,0,0,0,1,1,1,0,0,84,84,84,0,0,0,0,,,,,,,818.3341552000493,None,818.9185211006552,None,819.8491131011397,None,l,1,0.7615249995142221,819.8491131011397,None,None,None,,,,,,,17,22,female,17,2022_May_09_1643,Partial repeat,2021.2.3,59.88798543995,
8,8,0,1,2,3,2,2,0,0,0,1,1,1,0,0,84,84,84,1,0,1,0,,,,,,,,,820.6375714000314,None,821.4856579005718,None,l,1,0.5169929005205631,821.4856579005718,None,None,None,,,,,,,17,22,female,17,2022_May_09_1643,Partial repeat,2021.2.3,59.88798543995,
8,8,0,1,2,3,2,2,0,0,0,1,1,1,0,0,84,84,84,,,,,,,,,,,,,,,,,,,,,,,,,,,,,,17,22,female,17,2022_May_09_1643,Partial repeat,2021.2.3,59.88798543995,
8,8,0,1,3,2,1,2,1,0,0,0,0,1,0,0,85,85,85,0,0,0,0,,,,,,,822.0282851997763,None,822.3920235000551,None,823.1900681015104,None,s,1,0.6205818001180887,823.1900681015104,None,None,None,,,,,,,17,22,female,17,2022_May_09_1643,Partial repeat,2021.2.3,59.88798543995,
8,8,0,1,3,2,1,2,1,0,0,0,0,1,0,0,85,85,85,1,0,1,0,,,,,,,,,823.8350028004497,None,824.825435699895,None,l,1,0.9692730009555817,824.825435699895,None,None,None,,,,,,,17,22,female,17,2022_May_09_1643,Partial repeat,2021.2.3,59.88798543995,
8,8,0,1,3,2,1,2,1,0,0,0,0,1,0,0,85,85,85,,,,,,,,,,,,,,,,,,,,,,,,,,,,,,17,22,female,17,2022_May_09_1643,Partial repeat,2021.2.3,59.88798543995,
8,8,0,1,2,3,1,2,1,0,0,0,0,1,0,0,86,86,86,0,0,0,0,,,,,,,825.8081538006663,None,827.0678112003952,None,827.9149372000247,None,l,0,1.0797145999968052,827.9149372000247,None,829.0066132005304,None,,,,,,,17,22,female,17,2022_May_09_1643,Partial repeat,2021.2.3,59.88798543995,
8,8,0,1,2,3,1,2,1,0,0,0,0,1,0,0,86,86,86,1,0,1,0,,,,,,,,,829.5058433003724,None,830.2528250012547,None,l,1,1.4858389012515545,830.2528250012547,None,None,None,,,,,,,17,22,female,17,2022_May_09_1643,Partial repeat,2021.2.3,59.88798543995,
8,8,0,1,2,3,1,2,1,0,0,0,0,1,0,0,86,86,86,,,,,,,,,,,,,,,,,,,,,,,,,,,,,,17,22,female,17,2022_May_09_1643,Partial repeat,2021.2.3,59.88798543995,
8,8,0,1,2,3,2,1,1,0,0,0,0,1,0,0,87,87,87,0,0,0,0,,,,,,,831.754957601428,None,832.177668100223,None,833.1416519004852,None,s,1,0.533008798956871,833.1416519004852,None,None,None,,,,,,,17,22,female,17,2022_May_09_1643,Partial repeat,2021.2.3,59.88798543995,
8,8,0,1,2,3,2,1,1,0,0,0,0,1,0,0,87,87,87,1,0,1,0,,,,,,,,,833.6941390000284,None,834.644645800814,None,l,1,0.5259914007037878,834.644645800814,None,None,None,,,,,,,17,22,female,17,2022_May_09_1643,Partial repeat,2021.2.3,59.88798543995,
8,8,0,1,2,3,2,1,1,0,0,0,0,1,0,0,87,87,87,,,,,,,,,,,,,,,,,,,,,,,,,,,,,,17,22,female,17,2022_May_09_1643,Partial repeat,2021.2.3,59.88798543995,
8,8,0,1,3,2,2,2,0,0,0,1,1,1,0,0,88,88,88,0,0,0,0,,,,,,,835.1861282009631,None,835.5008490998298,None,836.3647576011717,None,l,1,0.5178990997374058,836.3647576011717,None,None,None,,,,,,,17,22,female,17,2022_May_09_1643,Partial repeat,2021.2.3,59.88798543995,
8,8,0,1,3,2,2,2,0,0,0,1,1,1,0,0,88,88,88,1,0,1,0,,,,,,,,,836.9041542001069,None,837.8019428998232,None,l,1,0.4567187000066042,837.8019428998232,None,None,None,,,,,,,17,22,female,17,2022_May_09_1643,Partial repeat,2021.2.3,59.88798543995,
8,8,0,1,3,2,2,2,0,0,0,1,1,1,0,0,88,88,88,,,,,,,,,,,,,,,,,,,,,,,,,,,,,,17,22,female,17,2022_May_09_1643,Partial repeat,2021.2.3,59.88798543995,
8,8,0,1,2,2,2,2,0,0,1,1,1,1,0,0,89,89,89,0,0,0,0,,,,,,,838.2838337998837,None,838.5901797004044,None,839.6043940000236,None,l,1,0.550246000289917,839.6043940000236,None,None,None,,,,,,,17,22,female,17,2022_May_09_1643,Partial repeat,2021.2.3,59.88798543995,
8,8,0,1,2,2,2,2,0,0,1,1,1,1,0,0,89,89,89,1,0,1,0,,,,,,,,,840.1821510009468,None,840.9402160998434,None,l,1,0.49441029876470566,840.9402160998434,None,None,None,,,,,,,17,22,female,17,2022_May_09_1643,Partial repeat,2021.2.3,59.88798543995,
8,8,0,1,2,2,2,2,0,0,1,1,1,1,0,0,89,89,89,,,,,,,,,,,,,,,,,,,,,,,,,,,,,,17,22,female,17,2022_May_09_1643,Partial repeat,2021.2.3,59.88798543995,
8,8,0,1,3,2,2,1,1,1,0,0,1,1,0,0,90,90,90,0,0,0,0,,,,,,,841.4614252001047,None,841.7964379005134,None,842.7941056005657,None,s,1,1.6485846992582083,842.7941056005657,None,None,None,,,,,,,17,22,female,17,2022_May_09_1643,Partial repeat,2021.2.3,59.88798543995,
8,8,0,1,3,2,2,1,1,1,0,0,1,1,0,0,90,90,90,1,0,1,0,,,,,,,,,844.463343501091,None,845.1986349001527,None,s,1,0.4760672003030777,845.1986349001527,None,None,None,,,,,,,17,22,female,17,2022_May_09_1643,Partial repeat,2021.2.3,59.88798543995,
8,8,0,1,3,2,2,1,1,1,0,0,1,1,0,0,90,90,90,,,,,,,,,,,,,,,,,,,,,,,,,,,,,,17,22,female,17,2022_May_09_1643,Partial repeat,2021.2.3,59.88798543995,
8,8,0,1,2,3,1,1,1,0,0,1,0,1,0,0,91,91,91,0,0,0,0,,,,,,,845.6992260012776,None,846.0380063001066,None,846.9522037003189,None,l,0,0.5065425988286734,846.9522037003189,None,847.4689704012126,None,,,,,,,17,22,female,17,2022_May_09_1643,Partial repeat,2021.2.3,59.88798543995,
8,8,0,1,2,3,1,1,1,0,0,1,0,1,0,0,91,91,91,1,0,1,0,,,,,,,,,847.9751385003328,None,848.7055847998708,None,l,1,0.6250560991466045,848.7055847998708,None,None,None,,,,,,,17,22,female,17,2022_May_09_1643,Partial repeat,2021.2.3,59.88798543995,
8,8,0,1,2,3,1,1,1,0,0,1,0,1,0,0,91,91,91,,,,,,,,,,,,,,,,,,,,,,,,,,,,,,17,22,female,17,2022_May_09_1643,Partial repeat,2021.2.3,59.88798543995,
8,8,0,1,3,2,2,2,0,1,0,1,0,1,0,0,92,92,92,0,0,0,0,,,,,,,849.3583845999092,None,849.6449837014079,None,850.5922408010811,None,l,1,0.5144215002655983,850.5922408010811,None,None,None,,,,,,,17,22,female,17,2022_May_09_1643,Partial repeat,2021.2.3,59.88798543995,
8,8,0,1,3,2,2,2,0,1,0,1,0,1,0,0,92,92,92,1,0,1,0,,,,,,,,,851.1260570008308,None,852.0619875006378,None,s,1,0.5806770008057356,852.0619875006378,None,None,None,,,,,,,17,22,female,17,2022_May_09_1643,Partial repeat,2021.2.3,59.88798543995,
8,8,0,1,3,2,2,2,0,1,0,1,0,1,0,0,92,92,92,,,,,,,,,,,,,,,,,,,,,,,,,,,,,,17,22,female,17,2022_May_09_1643,Partial repeat,2021.2.3,59.88798543995,
8,8,0,1,2,2,2,1,0,0,1,0,1,1,0,0,93,93,93,0,0,0,0,,,,,,,852.6691332012415,None,853.0183047000319,None,853.8156296014786,None,l,1,0.667026799172163,853.8156296014786,None,None,None,,,,,,,17,22,female,17,2022_May_09_1643,Partial repeat,2021.2.3,59.88798543995,
8,8,0,1,2,2,2,1,0,0,1,0,1,1,0,0,93,93,93,1,0,1,0,,,,,,,,,854.5022050011903,None,855.3183379005641,None,l,1,0.4923391994088888,855.3183379005641,None,None,None,,,,,,,17,22,female,17,2022_May_09_1643,Partial repeat,2021.2.3,59.88798543995,
8,8,0,1,2,2,2,1,0,0,1,0,1,1,0,0,93,93,93,,,,,,,,,,,,,,,,,,,,,,,,,,,,,,17,22,female,17,2022_May_09_1643,Partial repeat,2021.2.3,59.88798543995,
8,8,0,1,3,2,1,2,0,0,0,0,1,1,0,0,94,94,94,0,0,0,0,,,,,,,855.8372030016035,None,856.0909072011709,None,856.854770001024,None,l,1,0.523845599964261,856.854770001024,None,None,None,,,,,,,17,22,female,17,2022_May_09_1643,Partial repeat,2021.2.3,59.88798543995,
8,8,0,1,3,2,1,2,0,0,0,0,1,1,0,0,94,94,94,1,0,1,0,,,,,,,,,857.3944883998483,None,858.3243230003864,None,l,1,0.4543363004922867,858.3243230003864,None,None,None,,,,,,,17,22,female,17,2022_May_09_1643,Partial repeat,2021.2.3,59.88798543995,
8,8,0,1,3,2,1,2,0,0,0,0,1,1,0,0,94,94,94,,,,,,,,,,,,,,,,,,,,,,,,,,,,,,17,22,female,17,2022_May_09_1643,Partial repeat,2021.2.3,59.88798543995,
8,8,0,1,3,2,1,1,0,1,0,1,0,1,0,0,95,95,95,0,0,0,0,,,,,,,858.805844001472,None,859.0465187001973,None,859.7769856005907,None,l,1,0.5376648996025324,859.7769856005907,None,None,None,,,,,,,17,22,female,17,2022_May_09_1643,Partial repeat,2021.2.3,59.88798543995,
8,8,0,1,3,2,1,1,0,1,0,1,0,1,0,0,95,95,95,1,0,1,0,,,,,,,,,860.3369082007557,None,861.1797845009714,None,s,1,0.4548678994178772,861.1797845009714,None,None,None,,,,,,,17,22,female,17,2022_May_09_1643,Partial repeat,2021.2.3,59.88798543995,
8,8,0,1,3,2,1,1,0,1,0,1,0,1,0,0,95,95,95,,,,,,,,,,,,,,,,,,,,,,,,,,,,,,17,22,female,17,2022_May_09_1643,Partial repeat,2021.2.3,59.88798543995,
8,8,0,1,3,3,1,1,1,1,1,1,1,1,0,0,96,96,96,0,0,0,0,,,,,,,861.6587938014418,None,861.8855371009558,None,862.782705700025,None,s,1,0.5799812003970146,862.782705700025,None,None,None,,,,,,,17,22,female,17,2022_May_09_1643,Partial repeat,2021.2.3,59.88798543995,
8,8,0,1,3,3,1,1,1,1,1,1,1,1,0,0,96,96,96,1,0,1,0,,,,,,,,,863.3905488010496,None,864.302740899846,None,s,1,0.555910799652338,864.302740899846,None,None,None,,,,,,,17,22,female,17,2022_May_09_1643,Partial repeat,2021.2.3,59.88798543995,
8,8,0,1,3,3,1,1,1,1,1,1,1,1,0,0,96,96,96,,,,,,,,,,,,,,,,,,,,,,,,,,,,,,17,22,female,17,2022_May_09_1643,Partial repeat,2021.2.3,59.88798543995,
8,8,0,1,2,2,1,2,0,1,1,0,0,1,0,0,97,97,97,0,0,0,0,,,,,,,864.8879257012159,None,865.1752087008208,None,866.0086607001722,None,l,1,0.8579945005476475,866.0086607001722,None,None,None,,,,,,,17,22,female,17,2022_May_09_1643,Partial repeat,2021.2.3,59.88798543995,
8,8,0,1,2,2,1,2,0,1,1,0,0,1,0,0,97,97,97,1,0,1,0,,,,,,,,,866.8793566003442,None,867.7760027013719,None,s,1,0.7066468987613916,867.7760027013719,None,None,None,,,,,,,17,22,female,17,2022_May_09_1643,Partial repeat,2021.2.3,59.88798543995,
8,8,0,1,2,2,1,2,0,1,1,0,0,1,0,0,97,97,97,,,,,,,,,,,,,,,,,,,,,,,,,,,,,,17,22,female,17,2022_May_09_1643,Partial repeat,2021.2.3,59.88798543995,
8,8,0,1,3,3,2,1,1,1,1,0,1,1,0,0,98,98,98,0,0,0,0,,,,,,,868.5069980006665,None,868.8323443997651,None,869.7631312012672,None,s,1,0.4554862007498741,869.7631312012672,None,None,None,,,,,,,17,22,female,17,2022_May_09_1643,Partial repeat,2021.2.3,59.88798543995,
8,8,0,1,3,3,2,1,1,1,1,0,1,1,0,0,98,98,98,1,0,1,0,,,,,,,,,870.2338158003986,None,871.2158093005419,None,s,1,0.4508478008210659,871.2158093005419,None,None,None,,,,,,,17,22,female,17,2022_May_09_1643,Partial repeat,2021.2.3,59.88798543995,
8,8,0,1,3,3,2,1,1,1,1,0,1,1,0,0,98,98,98,,,,,,,,,,,,,,,,,,,,,,,,,,,,,,17,22,female,17,2022_May_09_1643,Partial repeat,2021.2.3,59.88798543995,
8,8,0,1,2,2,1,2,0,0,1,0,1,1,0,0,99,99,99,0,0,0,0,,,,,,,871.695228099823,None,871.9383995011449,None,872.885945500806,None,l,1,0.6207110993564129,872.885945500806,None,None,None,,,,,,,17,22,female,17,2022_May_09_1643,Partial repeat,2021.2.3,59.88798543995,
8,8,0,1,2,2,1,2,0,0,1,0,1,1,0,0,99,99,99,1,0,1,0,,,,,,,,,873.5292081013322,None,874.4053522013128,None,l,1,0.46929020062088966,874.4053522013128,None,None,None,,,,,,,17,22,female,17,2022_May_09_1643,Partial repeat,2021.2.3,59.88798543995,
8,8,0,1,2,2,1,2,0,0,1,0,1,1,0,0,99,99,99,,,,,,,,,,,,,,,,,,,,,,,,,,,,,,17,22,female,17,2022_May_09_1643,Partial repeat,2021.2.3,59.88798543995,
8,8,0,1,2,3,1,1,0,0,0,1,1,1,0,0,100,100,100,0,0,0,0,,,,,,,874.8864283002913,None,875.1446283012629,None,876.1252954006195,None,l,1,0.5893644001334906,876.1252954006195,None,None,None,,,,,,,17,22,female,17,2022_May_09_1643,Partial repeat,2021.2.3,59.88798543995,
8,8,0,1,2,3,1,1,0,0,0,1,1,1,0,0,100,100,100,1,0,1,0,,,,,,,,,876.7285086009651,None,877.6621240004897,None,l,1,0.44452950172126293,877.6621240004897,None,None,None,,,,,,,17,22,female,17,2022_May_09_1643,Partial repeat,2021.2.3,59.88798543995,
8,8,0,1,2,3,1,1,0,0,0,1,1,1,0,0,100,100,100,,,,,,,,,,,,,,,,,,,,,,,,,,,,,,17,22,female,17,2022_May_09_1643,Partial repeat,2021.2.3,59.88798543995,
8,8,0,1,2,2,1,1,1,0,1,1,0,1,0,0,101,101,101,0,0,0,0,,,,,,,878.1229178011417,None,878.4677876010537,None,879.2990506999195,None,s,1,0.5277498997747898,879.2990506999195,None,None,None,,,,,,,17,22,female,17,2022_May_09_1643,Partial repeat,2021.2.3,59.88798543995,
8,8,0,1,2,2,1,1,1,0,1,1,0,1,0,0,101,101,101,1,0,1,0,,,,,,,,,879.8371374998242,None,880.7013144008815,None,l,1,0.5253358986228704,880.7013144008815,None,None,None,,,,,,,17,22,female,17,2022_May_09_1643,Partial repeat,2021.2.3,59.88798543995,
8,8,0,1,2,2,1,1,1,0,1,1,0,1,0,0,101,101,101,,,,,,,,,,,,,,,,,,,,,,,,,,,,,,17,22,female,17,2022_May_09_1643,Partial repeat,2021.2.3,59.88798543995,
8,8,0,1,2,2,2,2,1,0,1,1,0,1,0,0,102,102,102,0,0,0,0,,,,,,,881.2414365001023,None,881.5070431008935,None,882.5046143010259,None,s,1,0.602012200281024,882.5046143010259,None,None,None,,,,,,,17,22,female,17,2022_May_09_1643,Partial repeat,2021.2.3,59.88798543995,
8,8,0,1,2,2,2,2,1,0,1,1,0,1,0,0,102,102,102,1,0,1,0,,,,,,,,,883.129680801183,None,884.0910106003284,None,l,1,0.503625400364399,884.0910106003284,None,None,None,,,,,,,17,22,female,17,2022_May_09_1643,Partial repeat,2021.2.3,59.88798543995,
8,8,0,1,2,2,2,2,1,0,1,1,0,1,0,0,102,102,102,,,,,,,,,,,,,,,,,,,,,,,,,,,,,,17,22,female,17,2022_May_09_1643,Partial repeat,2021.2.3,59.88798543995,
8,8,0,1,2,3,2,2,1,0,0,1,0,1,0,0,103,103,103,0,0,0,0,,,,,,,884.6132632009685,None,885.1307652015239,None,885.9278060998768,None,s,1,0.594879399985075,885.9278060998768,None,None,None,,,,,,,17,22,female,17,2022_May_09_1643,Partial repeat,2021.2.3,59.88798543995,
8,8,0,1,2,3,2,2,1,0,0,1,0,1,0,0,103,103,103,1,0,1,0,,,,,,,,,886.5468875002116,None,887.3137501012534,None,l,1,0.4648735001683235,887.3137501012534,None,None,None,,,,,,,17,22,female,17,2022_May_09_1643,Partial repeat,2021.2.3,59.88798543995,
8,8,0,1,2,3,2,2,1,0,0,1,0,1,0,0,103,103,103,,,,,,,,,,,,,,,,,,,,,,,,,,,,,,17,22,female,17,2022_May_09_1643,Partial repeat,2021.2.3,59.88798543995,
8,8,0,1,2,2,1,2,1,0,1,0,0,1,0,0,104,104,104,0,0,0,0,,,,,,,887.7953184004873,None,888.0530834011734,None,888.7834577001631,None,s,1,0.5471998006105423,888.7834577001631,None,None,None,,,,,,,17,22,female,17,2022_May_09_1643,Partial repeat,2021.2.3,59.88798543995,
8,8,0,1,2,2,1,2,1,0,1,0,0,1,0,0,104,104,104,1,0,1,0,,,,,,,,,889.343421401456,None,890.0697257015854,None,l,1,0.49291739985346794,890.0697257015854,None,None,None,,,,,,,17,22,female,17,2022_May_09_1643,Partial repeat,2021.2.3,59.88798543995,
8,8,0,1,2,2,1,2,1,0,1,0,0,1,0,0,104,104,104,,,,,,,,,,,,,,,,,,,,,,,,,,,,,,17,22,female,17,2022_May_09_1643,Partial repeat,2021.2.3,59.88798543995,
8,8,0,1,3,3,1,1,0,0,1,1,1,1,0,0,105,105,105,0,0,0,0,,,,,,,890.5938917007297,None,890.875259200111,None,891.6724562011659,None,l,1,0.6101946011185646,891.6724562011659,None,None,None,,,,,,,17,22,female,17,2022_May_09_1643,Partial repeat,2021.2.3,59.88798543995,
8,8,0,1,3,3,1,1,0,0,1,1,1,1,0,0,105,105,105,1,0,1,0,,,,,,,,,892.2964297998697,None,893.3086901009083,None,l,1,0.5099545996636152,893.3086901009083,None,None,None,,,,,,,17,22,female,17,2022_May_09_1643,Partial repeat,2021.2.3,59.88798543995,
8,8,0,1,3,3,1,1,0,0,1,1,1,1,0,0,105,105,105,,,,,,,,,,,,,,,,,,,,,,,,,,,,,,17,22,female,17,2022_May_09_1643,Partial repeat,2021.2.3,59.88798543995,
8,8,0,1,3,2,2,1,0,0,0,0,1,1,0,0,106,106,106,0,0,0,0,,,,,,,893.8327774014324,None,894.0648085009307,None,895.0290984008461,None,l,1,0.4696024004369974,895.0290984008461,None,None,None,,,,,,,17,22,female,17,2022_May_09_1643,Partial repeat,2021.2.3,59.88798543995,
8,8,0,1,3,2,2,1,0,0,0,0,1,1,0,0,106,106,106,1,0,1,0,,,,,,,,,895.5240058004856,None,896.4316861014813,None,l,1,0.38696729950606823,896.4316861014813,None,None,None,,,,,,,17,22,female,17,2022_May_09_1643,Partial repeat,2021.2.3,59.88798543995,
8,8,0,1,3,2,2,1,0,0,0,0,1,1,0,0,106,106,106,,,,,,,,,,,,,,,,,,,,,,,,,,,,,,17,22,female,17,2022_May_09_1643,Partial repeat,2021.2.3,59.88798543995,
8,8,0,1,3,3,1,2,1,0,1,0,0,1,0,0,107,107,107,0,0,0,0,,,,,,,896.8453134000301,None,897.1206892002374,None,897.8676025010645,None,s,1,0.7110471986234188,897.8676025010645,None,None,None,,,,,,,17,22,female,17,2022_May_09_1643,Partial repeat,2021.2.3,59.88798543995,
8,8,0,1,3,3,1,2,1,0,1,0,0,1,0,0,107,107,107,1,0,1,0,,,,,,,,,898.5957746002823,None,899.5544487014413,None,l,1,0.6801583003252745,899.5544487014413,None,None,None,,,,,,,17,22,female,17,2022_May_09_1643,Partial repeat,2021.2.3,59.88798543995,
8,8,0,1,3,3,1,2,1,0,1,0,0,1,0,0,107,107,107,,,,,,,,,,,,,,,,,,,,,,,,,,,,,,17,22,female,17,2022_May_09_1643,Partial repeat,2021.2.3,59.88798543995,
8,8,0,1,3,2,1,1,1,0,0,1,0,1,0,0,108,108,108,0,0,0,0,,,,,,,900.2487279009074,None,900.5607807002962,None,901.5079482011497,None,s,1,0.6946894004940987,901.5079482011497,None,None,None,,,,,,,17,22,female,17,2022_May_09_1643,Partial repeat,2021.2.3,59.88798543995,
8,8,0,1,3,2,1,1,1,0,0,1,0,1,0,0,108,108,108,1,0,1,0,,,,,,,,,902.2148769013584,None,902.977742601186,None,l,1,0.6009069997817278,902.977742601186,None,None,None,,,,,,,17,22,female,17,2022_May_09_1643,Partial repeat,2021.2.3,59.88798543995,
8,8,0,1,3,2,1,1,1,0,0,1,0,1,0,0,108,108,108,,,,,,,,,,,,,,,,,,,,,,,,,,,,,,17,22,female,17,2022_May_09_1643,Partial repeat,2021.2.3,59.88798543995,
8,8,0,1,3,3,2,1,1,0,1,0,0,1,0,0,109,109,109,0,0,0,0,,,,,,,903.603652400896,None,903.8504930008203,None,904.630737900734,None,s,1,0.6118876002728939,904.630737900734,None,None,None,,,,,,,17,22,female,17,2022_May_09_1643,Partial repeat,2021.2.3,59.88798543995,
8,8,0,1,3,3,2,1,1,0,1,0,0,1,0,0,109,109,109,1,0,1,0,,,,,,,,,905.254775499925,None,906.0003249011934,None,l,1,1.2903230004012585,906.0003249011934,None,None,None,,,,,,,17,22,female,17,2022_May_09_1643,Partial repeat,2021.2.3,59.88798543995,
8,8,0,1,3,3,2,1,1,0,1,0,0,1,0,0,109,109,109,,,,,,,,,,,,,,,,,,,,,,,,,,,,,,17,22,female,17,2022_May_09_1643,Partial repeat,2021.2.3,59.88798543995,
8,8,0,1,2,2,2,2,0,1,1,1,0,1,0,0,110,110,110,0,0,0,0,,,,,,,907.3190577011555,None,907.6245029009879,None,908.5220573004335,None,l,1,0.864579800516367,908.5220573004335,None,None,None,,,,,,,17,22,female,17,2022_May_09_1643,Partial repeat,2021.2.3,59.88798543995,
8,8,0,1,2,2,2,2,0,1,1,1,0,1,0,0,110,110,110,1,0,1,0,,,,,,,,,909.4008873999119,None,910.1595536004752,None,s,1,0.5712027996778488,910.1595536004752,None,None,None,,,,,,,17,22,female,17,2022_May_09_1643,Partial repeat,2021.2.3,59.88798543995,
8,8,0,1,2,2,2,2,0,1,1,1,0,1,0,0,110,110,110,,,,,,,,,,,,,,,,,,,,,,,,,,,,,,17,22,female,17,2022_May_09_1643,Partial repeat,2021.2.3,59.88798543995,
8,8,0,1,2,3,2,2,1,1,0,1,1,1,0,0,111,111,111,0,0,0,0,,,,,,,910.7438203003258,None,911.0310823004693,None,911.9130774009973,None,s,1,0.6496373005211353,911.9130774009973,None,None,None,,,,,,,17,22,female,17,2022_May_09_1643,Partial repeat,2021.2.3,59.88798543995,
8,8,0,1,2,3,2,2,1,1,0,1,1,1,0,0,111,111,111,1,0,1,0,,,,,,,,,912.5788186006248,None,913.5818343013525,None,s,1,0.5008119996637106,913.5818343013525,None,None,None,,,,,,,17,22,female,17,2022_May_09_1643,Partial repeat,2021.2.3,59.88798543995,
8,8,0,1,2,3,2,2,1,1,0,1,1,1,0,0,111,111,111,,,,,,,,,,,,,,,,,,,,,,,,,,,,,,17,22,female,17,2022_May_09_1643,Partial repeat,2021.2.3,59.88798543995,
8,8,0,1,3,3,2,2,0,0,1,1,1,1,0,0,112,112,112,0,0,0,0,,,,,,,914.1026121005416,None,914.3542718999088,None,915.084314700216,None,l,1,0.5823174994438887,915.084314700216,None,None,None,,,,,,,17,22,female,17,2022_May_09_1643,Partial repeat,2021.2.3,59.88798543995,
8,8,0,1,3,3,2,2,0,0,1,1,1,1,0,0,112,112,112,1,0,1,0,,,,,,,,,915.6825529001653,None,916.5376060009003,None,l,1,0.4090742003172636,916.5376060009003,None,None,None,,,,,,,17,22,female,17,2022_May_09_1643,Partial repeat,2021.2.3,59.88798543995,
8,8,0,1,3,3,2,2,0,0,1,1,1,1,0,0,112,112,112,,,,,,,,,,,,,,,,,,,,,,,,,,,,,,17,22,female,17,2022_May_09_1643,Partial repeat,2021.2.3,59.88798543995,
8,8,0,1,3,2,1,2,1,1,0,0,1,1,0,0,113,113,113,0,0,0,0,,,,,,,916.9678621012717,None,917.2766114007682,None,918.2073469012976,None,s,1,0.6033769994974136,918.2073469012976,None,None,None,,,,,,,17,22,female,17,2022_May_09_1643,Partial repeat,2021.2.3,59.88798543995,
8,8,0,1,3,2,1,2,1,1,0,0,1,1,0,0,113,113,113,1,0,1,0,,,,,,,,,918.8364212010056,None,919.6770168002695,None,s,1,0.45357830077409744,919.6770168002695,None,None,None,,,,,,,17,22,female,17,2022_May_09_1643,Partial repeat,2021.2.3,59.88798543995,
8,8,0,1,3,2,1,2,1,1,0,0,1,1,0,0,113,113,113,,,,,,,,,,,,,,,,,,,,,,,,,,,,,,17,22,female,17,2022_May_09_1643,Partial repeat,2021.2.3,59.88798543995,
8,8,0,1,3,3,1,2,1,1,1,0,1,1,0,0,114,114,114,0,0,0,0,,,,,,,920.1596978008747,None,920.5830697007477,None,921.480412401259,None,s,1,0.4582342002540827,921.480412401259,None,None,None,,,,,,,17,22,female,17,2022_May_09_1643,Partial repeat,2021.2.3,59.88798543995,
8,8,0,1,3,3,1,2,1,1,1,0,1,1,0,0,114,114,114,1,0,1,0,,,,,,,,,921.9520891997963,None,922.8996850010008,None,s,1,0.4229607991874218,922.8996850010008,None,None,None,,,,,,,17,22,female,17,2022_May_09_1643,Partial repeat,2021.2.3,59.88798543995,
8,8,0,1,3,3,1,2,1,1,1,0,1,1,0,0,114,114,114,,,,,,,,,,,,,,,,,,,,,,,,,,,,,,17,22,female,17,2022_May_09_1643,Partial repeat,2021.2.3,59.88798543995,
8,8,0,1,2,3,2,1,1,1,0,0,1,1,0,0,115,115,115,0,0,0,0,,,,,,,923.3378465007991,None,923.6056180000305,None,924.5862589012831,None,s,1,0.4323890991508961,924.5862589012831,None,None,None,,,,,,,17,22,female,17,2022_May_09_1643,Partial repeat,2021.2.3,59.88798543995,
8,8,0,1,2,3,2,1,1,1,0,0,1,1,0,0,115,115,115,1,0,1,0,,,,,,,,,925.037046700716,None,925.988973300904,None,s,1,0.333645299077034,925.988973300904,None,None,None,,,,,,,17,22,female,17,2022_May_09_1643,Partial repeat,2021.2.3,59.88798543995,
8,8,0,1,2,3,2,1,1,1,0,0,1,1,0,0,115,115,115,,,,,,,,,,,,,,,,,,,,,,,,,,,,,,17,22,female,17,2022_May_09_1643,Partial repeat,2021.2.3,59.88798543995,
8,8,0,1,2,3,2,1,0,1,0,0,0,1,0,0,116,116,116,0,0,0,0,,,,,,,926.3494265004992,None,926.5947747007012,None,927.6091528013349,None,s,0,0.5135115999728441,927.6091528013349,None,928.1453482005745,None,,,,,,,17,22,female,17,2022_May_09_1643,Partial repeat,2021.2.3,59.88798543995,
8,8,0,1,2,3,2,1,0,1,0,0,0,1,0,0,116,116,116,1,0,1,0,,,,,,,,,928.6487681008875,None,929.6128283012658,None,s,1,0.5338249001652002,929.6128283012658,None,None,None,,,,,,,17,22,female,17,2022_May_09_1643,Partial repeat,2021.2.3,59.88798543995,
8,8,0,1,2,3,2,1,0,1,0,0,0,1,0,0,116,116,116,,,,,,,,,,,,,,,,,,,,,,,,,,,,,,17,22,female,17,2022_May_09_1643,Partial repeat,2021.2.3,59.88798543995,
8,8,0,1,2,2,2,1,1,0,1,0,0,1,0,0,117,117,117,0,0,0,0,,,,,,,930.1733024008572,None,930.3854231014848,None,931.3159776013345,None,s,1,0.6548148989677429,931.3159776013345,None,None,None,,,,,,,17,22,female,17,2022_May_09_1643,Partial repeat,2021.2.3,59.88798543995,
8,8,0,1,2,2,2,1,1,0,1,0,0,1,0,0,117,117,117,1,0,1,0,,,,,,,,,931.9804135002196,None,932.7021751999855,None,l,1,0.4364922996610403,932.7021751999855,None,None,None,,,,,,,17,22,female,17,2022_May_09_1643,Partial repeat,2021.2.3,59.88798543995,
8,8,0,1,2,2,2,1,1,0,1,0,0,1,0,0,117,117,117,,,,,,,,,,,,,,,,,,,,,,,,,,,,,,17,22,female,17,2022_May_09_1643,Partial repeat,2021.2.3,59.88798543995,
8,8,0,1,2,2,1,1,0,0,1,1,1,1,0,0,118,118,118,0,0,0,0,,,,,,,933.1612752005458,None,933.5416139997542,None,934.4056276008487,None,l,1,0.5731116998940706,934.4056276008487,None,None,None,,,,,,,17,22,female,17,2022_May_09_1643,Partial repeat,2021.2.3,59.88798543995,
8,8,0,1,2,2,1,1,0,0,1,1,1,1,0,0,118,118,118,1,0,1,0,,,,,,,,,934.9892664011568,None,935.9590071998537,None,l,1,0.363646799698472,935.9590071998537,None,None,None,,,,,,,17,22,female,17,2022_May_09_1643,Partial repeat,2021.2.3,59.88798543995,
8,8,0,1,2,2,1,1,0,0,1,1,1,1,0,0,118,118,118,,,,,,,,,,,,,,,,,,,,,,,,,,,,,,17,22,female,17,2022_May_09_1643,Partial repeat,2021.2.3,59.88798543995,
8,8,0,1,3,3,1,1,1,0,1,1,0,1,0,0,119,119,119,0,0,0,0,,,,,,,936.3516174014658,None,936.5641646012664,None,937.4778815004975,None,s,1,0.5407645013183355,937.4778815004975,None,None,None,,,,,,,17,22,female,17,2022_May_09_1643,Partial repeat,2021.2.3,59.88798543995,
8,8,0,1,3,3,1,1,1,0,1,1,0,1,0,0,119,119,119,1,0,1,0,,,,,,,,,938.039907200262,None,938.9645685013384,None,l,1,0.4940708000212908,938.9645685013384,None,None,None,,,,,,,17,22,female,17,2022_May_09_1643,Partial repeat,2021.2.3,59.88798543995,
8,8,0,1,3,3,1,1,1,0,1,1,0,1,0,0,119,119,119,,,,,,,,,,,,,,,,,,,,,,,,,,,,,,17,22,female,17,2022_May_09_1643,Partial repeat,2021.2.3,59.88798543995,
8,8,0,1,3,3,2,2,1,0,1,1,0,1,0,0,120,120,120,0,0,0,0,,,,,,,939.486313899979,None,939.7370034009218,None,940.6675990000367,None,s,1,0.5430195014923811,940.6675990000367,None,None,None,,,,,,,17,22,female,17,2022_May_09_1643,Partial repeat,2021.2.3,59.88798543995,
8,8,0,1,3,3,2,2,1,0,1,1,0,1,0,0,120,120,120,1,0,1,0,,,,,,,,,941.2285695001483,None,941.970437001437,None,l,1,0.5123069994151592,941.970437001437,None,None,None,,,,,,,17,22,female,17,2022_May_09_1643,Partial repeat,2021.2.3,59.88798543995,
8,8,0,1,3,3,2,2,1,0,1,1,0,1,0,0,120,120,120,,,,,,,,,,,,,,,,,,,,,,,,,,,,,,17,22,female,17,2022_May_09_1643,Partial repeat,2021.2.3,59.88798543995,
8,8,0,1,2,3,1,2,1,1,0,0,1,1,0,0,121,121,121,0,0,0,0,,,,,,,942.4944940004498,None,942.8263282012194,None,943.8237479999661,None,s,1,0.5549712013453245,943.8237479999661,None,None,None,,,,,,,17,22,female,17,2022_May_09_1643,Partial repeat,2021.2.3,59.88798543995,
8,8,0,1,2,3,1,2,1,1,0,0,1,1,0,0,121,121,121,1,0,1,0,,,,,,,,,944.4067326001823,None,945.2600464001298,None,s,1,0.6465982999652624,945.2600464001298,None,None,None,,,,,,,17,22,female,17,2022_May_09_1643,Partial repeat,2021.2.3,59.88798543995,
8,8,0,1,2,3,1,2,1,1,0,0,1,1,0,0,121,121,121,,,,,,,,,,,,,,,,,,,,,,,,,,,,,,17,22,female,17,2022_May_09_1643,Partial repeat,2021.2.3,59.88798543995,
8,8,0,1,2,3,2,2,0,1,0,1,0,1,0,0,122,122,122,0,0,0,0,,,,,,,945.9293431006372,None,946.232997899875,None,947.046827999875,None,l,1,0.5238153003156185,947.046827999875,None,None,None,,,,,,,17,22,female,17,2022_May_09_1643,Partial repeat,2021.2.3,59.88798543995,
8,8,0,1,2,3,2,2,0,1,0,1,0,1,0,0,122,122,122,1,0,1,0,,,,,,,,,947.5839916002005,None,948.5330015011132,None,s,1,0.4616788011044264,948.5330015011132,None,None,None,,,,,,,17,22,female,17,2022_May_09_1643,Partial repeat,2021.2.3,59.88798543995,
8,8,0,1,2,3,2,2,0,1,0,1,0,1,0,0,122,122,122,,,,,,,,,,,,,,,,,,,,,,,,,,,,,,17,22,female,17,2022_May_09_1643,Partial repeat,2021.2.3,59.88798543995,
8,8,0,1,2,2,1,1,0,1,1,1,0,1,0,0,123,123,123,0,0,0,0,,,,,,,949.0116865001619,None,949.3056276012212,None,950.1361331008375,None,l,1,0.7545170001685619,950.1361331008375,None,None,None,,,,,,,17,22,female,17,2022_May_09_1643,Partial repeat,2021.2.3,59.88798543995,
8,8,0,1,2,2,1,1,0,1,1,1,0,1,0,0,123,123,123,1,0,1,0,,,,,,,,,950.9102135002613,None,951.9060385003686,None,s,1,0.7366048991680145,951.9060385003686,None,None,None,,,,,,,17,22,female,17,2022_May_09_1643,Partial repeat,2021.2.3,59.88798543995,
8,8,0,1,2,2,1,1,0,1,1,1,0,1,0,0,123,123,123,,,,,,,,,,,,,,,,,,,,,,,,,,,,,,17,22,female,17,2022_May_09_1643,Partial repeat,2021.2.3,59.88798543995,
8,8,0,1,3,3,1,2,0,1,1,0,0,1,0,0,124,124,124,0,0,0,0,,,,,,,952.6604844015092,None,952.9626838006079,None,953.926909700036,None,l,1,0.5317407008260489,953.926909700036,None,None,None,,,,,,,17,22,female,17,2022_May_09_1643,Partial repeat,2021.2.3,59.88798543995,
8,8,0,1,3,3,1,2,0,1,1,0,0,1,0,0,124,124,124,1,0,1,0,,,,,,,,,954.4841723013669,None,955.2461681999266,None,s,1,0.43644960038363934,955.2461681999266,None,None,None,,,,,,,17,22,female,17,2022_May_09_1643,Partial repeat,2021.2.3,59.88798543995,
8,8,0,1,3,3,1,2,0,1,1,0,0,1,0,0,124,124,124,,,,,,,,,,,,,,,,,,,,,,,,,,,,,,17,22,female,17,2022_May_09_1643,Partial repeat,2021.2.3,59.88798543995,
8,8,0,1,2,3,1,2,0,0,0,0,1,1,0,0,125,125,125,0,0,0,0,,,,,,,955.7053401004523,None,956.0019366014749,None,956.9997511003166,None,l,1,0.5148907005786896,956.9997511003166,None,None,None,,,,,,,17,22,female,17,2022_May_09_1643,Partial repeat,2021.2.3,59.88798543995,
8,8,0,1,2,3,1,2,0,0,0,0,1,1,0,0,125,125,125,1,0,1,0,,,,,,,,,957.5379380006343,None,958.4353934004903,None,l,1,0.4552511014044285,958.4353934004903,None,None,None,,,,,,,17,22,female,17,2022_May_09_1643,Partial repeat,2021.2.3,59.88798543995,
8,8,0,1,2,3,1,2,0,0,0,0,1,1,0,0,125,125,125,,,,,,,,,,,,,,,,,,,,,,,,,,,,,,17,22,female,17,2022_May_09_1643,Partial repeat,2021.2.3,59.88798543995,
8,8,0,1,3,2,2,2,1,0,0,1,0,1,0,0,126,126,126,0,0,0,0,,,,,,,958.9167446009815,None,959.2082211002707,None,960.0389872007072,None,s,1,0.4677025005221367,960.0389872007072,None,None,None,,,,,,,17,22,female,17,2022_May_09_1643,Partial repeat,2021.2.3,59.88798543995,
8,8,0,1,3,2,2,2,1,0,0,1,0,1,0,0,126,126,126,1,0,1,0,,,,,,,,,960.5148217007518,None,961.3411288000643,None,l,1,0.5096060000360012,961.3411288000643,None,None,None,,,,,,,17,22,female,17,2022_May_09_1643,Partial repeat,2021.2.3,59.88798543995,
8,8,0,1,3,2,2,2,1,0,0,1,0,1,0,0,126,126,126,,,,,,,,,,,,,,,,,,,,,,,,,,,,,,17,22,female,17,2022_May_09_1643,Partial repeat,2021.2.3,59.88798543995,
8,8,0,1,3,3,2,2,0,1,1,1,0,1,0,0,127,127,127,0,0,0,0,,,,,,,961.8633099999279,None,962.147215301171,None,962.910862101242,None,l,1,0.7077785991132259,962.910862101242,None,None,None,,,,,,,17,22,female,17,2022_May_09_1643,Partial repeat,2021.2.3,59.88798543995,
8,8,0,1,3,3,2,2,0,1,1,1,0,1,0,0,127,127,127,1,0,1,0,,,,,,,,,963.6369665004313,None,964.5641318000853,None,l,0,0.3025714997202158,964.5641318000853,None,964.8924839012325,None,,,,,,,17,22,female,17,2022_May_09_1643,Partial repeat,2021.2.3,59.88798543995,
8,8,0,1,3,3,2,2,0,1,1,1,0,1,0,0,127,127,127,,,,,,,,,,,,,,,,,,,,,,,,,,,,,,17,22,female,17,2022_May_09_1643,Partial repeat,2021.2.3,59.88798543995,
3,2,0,1,3,3,2,2,0,1,1,1,0,0,0,0,128,128,128,0,0,0,0,,,,,,,985.0184677001089,None,985.8767865002155,None,986.7070181015879,None,l,1,1.9196277987211943,986.7070181015879,None,None,None,,,,,,,17,22,female,17,2022_May_09_1643,Partial repeat,2021.2.3,59.88798543995,
3,2,0,1,3,3,2,2,0,1,1,1,0,0,0,0,128,128,128,1,0,1,0,,,,,,,,,988.6435674000531,None,989.3968465998769,None,s,1,0.8058252986520529,989.3968465998769,None,None,None,,,,,,,17,22,female,17,2022_May_09_1643,Partial repeat,2021.2.3,59.88798543995,
3,2,0,1,3,3,2,2,0,1,1,1,0,0,0,0,128,128,128,,,,,,,,,,,,,,,,,,,,,,,,,,,,,,17,22,female,17,2022_May_09_1643,Partial repeat,2021.2.3,59.88798543995,
1,4,0,1,3,2,2,1,0,0,0,0,1,0,0,0,129,129,129,0,0,0,0,,,,,,,990.2143882010132,None,990.6527235005051,None,991.5166471004486,None,l,1,1.494012100622058,991.5166471004486,None,None,None,,,,,,,17,22,female,17,2022_May_09_1643,Partial repeat,2021.2.3,59.88798543995,
1,4,0,1,3,2,2,1,0,0,0,0,1,0,0,0,129,129,129,1,0,1,0,,,,,,,,,993.027481701225,None,993.937988800928,None,s,0,0.584663700312376,993.937988800928,None,994.5429108012468,None,,,,,,,17,22,female,17,2022_May_09_1643,Partial repeat,2021.2.3,59.88798543995,
1,4,0,1,3,2,2,1,0,0,0,0,1,0,0,0,129,129,129,,,,,,,,,,,,,,,,,,,,,,,,,,,,,,17,22,female,17,2022_May_09_1643,Partial repeat,2021.2.3,59.88798543995,
6,2,0,1,2,2,2,1,1,1,1,0,1,0,0,0,130,130,130,0,0,0,0,,,,,,,995.0445018000901,None,995.9463852010667,None,996.8772116005421,None,s,1,0.7894183993339539,996.8772116005421,None,None,None,,,,,,,17,22,female,17,2022_May_09_1643,Partial repeat,2021.2.3,59.88798543995,
6,2,0,1,2,2,2,1,1,1,1,0,1,0,0,0,130,130,130,1,0,1,0,,,,,,,,,997.6896894015372,None,998.6650628000498,None,s,1,0.7295518014580011,998.6650628000498,None,None,None,,,,,,,17,22,female,17,2022_May_09_1643,Partial repeat,2021.2.3,59.88798543995,
6,2,0,1,2,2,2,1,1,1,1,0,1,0,0,0,130,130,130,,,,,,,,,,,,,,,,,,,,,,,,,,,,,,17,22,female,17,2022_May_09_1643,Partial repeat,2021.2.3,59.88798543995,
1,3,0,1,3,3,1,1,0,1,1,1,0,0,0,0,131,131,131,0,0,0,0,,,,,,,999.4182108007371,None,1000.0209645014256,None,1000.9517193008214,None,l,1,0.6189764998853207,1000.9517193008214,None,None,None,,,,,,,17,22,female,17,2022_May_09_1643,Partial repeat,2021.2.3,59.88798543995,
1,3,0,1,3,3,1,1,0,1,1,1,0,0,0,0,131,131,131,1,0,1,0,,,,,,,,,1001.5972716007382,None,1002.6046475004405,None,s,1,0.6380056999623775,1002.6046475004405,None,None,None,,,,,,,17,22,female,17,2022_May_09_1643,Partial repeat,2021.2.3,59.88798543995,
1,3,0,1,3,3,1,1,0,1,1,1,0,0,0,0,131,131,131,,,,,,,,,,,,,,,,,,,,,,,,,,,,,,17,22,female,17,2022_May_09_1643,Partial repeat,2021.2.3,59.88798543995,
1,2,0,1,2,2,2,2,0,0,1,1,1,0,0,0,132,132,132,0,0,0,0,,,,,,,1003.2736380007118,None,1003.7448798008263,None,1004.6420102007687,None,l,1,1.0567156001925468,1004.6420102007687,None,None,None,,,,,,,17,22,female,17,2022_May_09_1643,Partial repeat,2021.2.3,59.88798543995,
1,2,0,1,2,2,2,2,0,0,1,1,1,0,0,0,132,132,132,1,0,1,0,,,,,,,,,1005.7077428009361,None,1006.6294220015407,None,l,1,0.5412225984036922,1006.6294220015407,None,None,None,,,,,,,17,22,female,17,2022_May_09_1643,Partial repeat,2021.2.3,59.88798543995,
1,2,0,1,2,2,2,2,0,0,1,1,1,0,0,0,132,132,132,,,,,,,,,,,,,,,,,,,,,,,,,,,,,,17,22,female,17,2022_May_09_1643,Partial repeat,2021.2.3,59.88798543995,
3,3,0,1,3,3,2,1,1,0,1,0,0,0,0,0,133,133,133,0,0,0,0,,,,,,,1007.1937314011157,None,1007.5355291999876,None,1008.4829542003572,None,s,1,0.7757090013474226,1008.4829542003572,None,None,None,,,,,,,17,22,female,17,2022_May_09_1643,Partial repeat,2021.2.3,59.88798543995,
3,3,0,1,3,3,2,1,1,0,1,0,0,0,0,0,133,133,133,1,0,1,0,,,,,,,,,1009.27812410146,None,1010.2362080998719,None,l,1,2.0464303009212017,1010.2362080998719,None,None,None,,,,,,,17,22,female,17,2022_May_09_1643,Partial repeat,2021.2.3,59.88798543995,
3,3,0,1,3,3,2,1,1,0,1,0,0,0,0,0,133,133,133,,,,,,,,,,,,,,,,,,,,,,,,,,,,,,17,22,female,17,2022_May_09_1643,Partial repeat,2021.2.3,59.88798543995,
2,2,0,1,2,3,1,1,1,1,0,1,1,0,0,0,134,134,134,0,0,0,0,,,,,,,1012.3114798013121,None,1013.2133007012308,None,1014.1438163015991,None,l,0,1.3708266988396645,1014.1438163015991,None,1015.5280817002058,None,,,,,,,17,22,female,17,2022_May_09_1643,Partial repeat,2021.2.3,59.88798543995,
2,2,0,1,2,3,1,1,1,1,0,1,1,0,0,0,134,134,134,1,0,1,0,,,,,,,,,1016.0354769006371,None,1016.7823301013559,None,s,1,0.5963013991713524,1016.7823301013559,None,None,None,,,,,,,17,22,female,17,2022_May_09_1643,Partial repeat,2021.2.3,59.88798543995,
2,2,0,1,2,3,1,1,1,1,0,1,1,0,0,0,134,134,134,,,,,,,,,,,,,,,,,,,,,,,,,,,,,,17,22,female,17,2022_May_09_1643,Partial repeat,2021.2.3,59.88798543995,
5,1,0,1,3,3,2,1,0,0,1,0,1,0,0,0,135,135,135,0,0,0,0,,,,,,,1017.3937325011939,None,1020.5441757012159,None,1021.3417057003826,None,l,1,0.6609186995774508,1021.3417057003826,None,None,None,,,,,,,17,22,female,17,2022_May_09_1643,Partial repeat,2021.2.3,59.88798543995,
5,1,0,1,3,3,2,1,0,0,1,0,1,0,0,0,135,135,135,1,0,1,0,,,,,,,,,1022.0278433002532,None,1022.9443904999644,None,l,1,0.4742424003779888,1022.9443904999644,None,None,None,,,,,,,17,22,female,17,2022_May_09_1643,Partial repeat,2021.2.3,59.88798543995,
5,1,0,1,3,3,2,1,0,0,1,0,1,0,0,0,135,135,135,,,,,,,,,,,,,,,,,,,,,,,,,,,,,,17,22,female,17,2022_May_09_1643,Partial repeat,2021.2.3,59.88798543995,
3,4,0,1,2,3,2,2,0,1,0,1,0,0,0,0,136,136,136,0,0,0,0,,,,,,,1023.4431039001793,None,1023.7671345006675,None,1024.6643601004034,None,l,1,0.5943144001066685,1024.6643601004034,None,None,None,,,,,,,17,22,female,17,2022_May_09_1643,Partial repeat,2021.2.3,59.88798543995,
3,4,0,1,2,3,2,2,0,1,0,1,0,0,0,0,136,136,136,1,0,1,0,,,,,,,,,1025.2873558010906,None,1026.1174633000046,None,s,1,0.7491709012538195,1026.1174633000046,None,None,None,,,,,,,17,22,female,17,2022_May_09_1643,Partial repeat,2021.2.3,59.88798543995,
3,4,0,1,2,3,2,2,0,1,0,1,0,0,0,0,136,136,136,,,,,,,,,,,,,,,,,,,,,,,,,,,,,,17,22,female,17,2022_May_09_1643,Partial repeat,2021.2.3,59.88798543995,
3,5,0,1,2,2,1,1,1,0,1,1,0,0,0,0,137,137,137,0,0,0,0,,,,,,,1026.8914625998586,None,1027.1403688006103,None,1027.937297699973,None,s,1,0.6893185991793871,1027.937297699973,None,None,None,,,,,,,17,22,female,17,2022_May_09_1643,Partial repeat,2021.2.3,59.88798543995,
3,5,0,1,2,2,1,1,1,0,1,1,0,0,0,0,137,137,137,1,0,1,0,,,,,,,,,1028.6417353004217,None,1029.4238015003502,None,s,0,0.5308379009366035,1029.4238015003502,None,1029.9670485015959,None,,,,,,,17,22,female,17,2022_May_09_1643,Partial repeat,2021.2.3,59.88798543995,
3,5,0,1,2,2,1,1,1,0,1,1,0,0,0,0,137,137,137,,,,,,,,,,,,,,,,,,,,,,,,,,,,,,17,22,female,17,2022_May_09_1643,Partial repeat,2021.2.3,59.88798543995,
1,5,0,1,3,3,1,1,1,1,1,1,1,0,0,0,138,138,138,0,0,0,0,,,,,,,1030.4802326001227,None,1031.1815406009555,None,1032.0120462998748,None,s,1,0.694581899791956,1032.0120462998748,None,None,None,,,,,,,17,22,female,17,2022_May_09_1643,Partial repeat,2021.2.3,59.88798543995,
1,5,0,1,3,3,1,1,1,1,1,1,1,0,0,0,138,138,138,1,0,1,0,,,,,,,,,1032.7209369000047,None,1033.5983715001494,None,s,1,0.6042458992451429,1033.5983715001494,None,None,None,,,,,,,17,22,female,17,2022_May_09_1643,Partial repeat,2021.2.3,59.88798543995,
1,5,0,1,3,3,1,1,1,1,1,1,1,0,0,0,138,138,138,,,,,,,,,,,,,,,,,,,,,,,,,,,,,,17,22,female,17,2022_May_09_1643,Partial repeat,2021.2.3,59.88798543995,
2,6,0,1,2,3,1,2,1,1,0,0,1,0,0,0,139,139,139,0,0,0,0,,,,,,,1034.2280104011297,None,1034.721795000136,None,1035.6195633001626,None,s,1,0.6470705009996891,1035.6195633001626,None,None,None,,,,,,,17,22,female,17,2022_May_09_1643,Partial repeat,2021.2.3,59.88798543995,
2,6,0,1,2,3,1,2,1,1,0,0,1,0,0,0,139,139,139,1,0,1,0,,,,,,,,,1036.289133099839,None,1037.0554266013205,None,s,1,0.6111942995339632,1037.0554266013205,None,None,None,,,,,,,17,22,female,17,2022_May_09_1643,Partial repeat,2021.2.3,59.88798543995,
2,6,0,1,2,3,1,2,1,1,0,0,1,0,0,0,139,139,139,,,,,,,,,,,,,,,,,,,,,,,,,,,,,,17,22,female,17,2022_May_09_1643,Partial repeat,2021.2.3,59.88798543995,
2,8,0,1,2,2,2,1,0,1,1,0,0,0,0,0,140,140,140,0,0,0,0,,,,,,,1037.6821447014809,None,1037.977866301313,None,1038.7918937001377,None,l,1,0.8747774995863438,1038.7918937001377,None,None,None,,,,,,,17,22,female,17,2022_May_09_1643,Partial repeat,2021.2.3,59.88798543995,
2,8,0,1,2,2,2,1,0,1,1,0,0,0,0,0,140,140,140,1,0,1,0,,,,,,,,,1039.6756722014397,None,1040.6791124008596,None,s,1,0.6116128992289305,1040.6791124008596,None,None,None,,,,,,,17,22,female,17,2022_May_09_1643,Partial repeat,2021.2.3,59.88798543995,
2,8,0,1,2,2,2,1,0,1,1,0,0,0,0,0,140,140,140,,,,,,,,,,,,,,,,,,,,,,,,,,,,,,17,22,female,17,2022_May_09_1643,Partial repeat,2021.2.3,59.88798543995,
5,5,0,1,3,3,1,2,1,1,1,0,1,0,0,0,141,141,141,0,0,0,0,,,,,,,1041.304251300171,None,1041.7187663000077,None,1042.6502483002841,None,s,1,0.7123880013823509,1042.6502483002841,None,None,None,,,,,,,17,22,female,17,2022_May_09_1643,Partial repeat,2021.2.3,59.88798543995,
5,5,0,1,3,3,1,2,1,1,1,0,1,0,0,0,141,141,141,1,0,1,0,,,,,,,,,1043.3835986014456,None,1044.3027370013297,None,s,1,0.6679874993860722,1044.3027370013297,None,None,None,,,,,,,17,22,female,17,2022_May_09_1643,Partial repeat,2021.2.3,59.88798543995,
5,5,0,1,3,3,1,2,1,1,1,0,1,0,0,0,141,141,141,,,,,,,,,,,,,,,,,,,,,,,,,,,,,,17,22,female,17,2022_May_09_1643,Partial repeat,2021.2.3,59.88798543995,
5,7,0,1,3,2,1,2,0,0,0,0,1,0,0,0,142,142,142,0,0,0,0,,,,,,,1044.9960802998394,None,1045.292068200186,None,1046.0235857013613,None,l,1,0.7710454985499382,1046.0235857013613,None,None,None,,,,,,,17,22,female,17,2022_May_09_1643,Partial repeat,2021.2.3,59.88798543995,
5,7,0,1,3,2,1,2,0,0,0,0,1,0,0,0,142,142,142,1,0,1,0,,,,,,,,,1046.8210402000695,None,1047.5921679008752,None,s,0,0.4984788987785578,1047.5921679008752,None,1048.1122393012047,None,,,,,,,17,22,female,17,2022_May_09_1643,Partial repeat,2021.2.3,59.88798543995,
5,7,0,1,3,2,1,2,0,0,0,0,1,0,0,0,142,142,142,,,,,,,,,,,,,,,,,,,,,,,,,,,,,,17,22,female,17,2022_May_09_1643,Partial repeat,2021.2.3,59.88798543995,
6,1,0,1,3,3,2,2,1,0,1,1,0,0,0,0,143,143,143,0,0,0,0,,,,,,,1048.6153882015496,None,1049.4671669006348,None,1050.414797000587,None,s,1,1.0998868010938168,1050.414797000587,None,None,None,,,,,,,17,22,female,17,2022_May_09_1643,Partial repeat,2021.2.3,59.88798543995,
6,1,0,1,3,3,2,2,1,0,1,1,0,0,0,0,143,143,143,1,0,1,0,,,,,,,,,1051.5406467001885,None,1052.5518439002335,None,l,1,0.45078100077807903,1052.5518439002335,None,None,None,,,,,,,17,22,female,17,2022_May_09_1643,Partial repeat,2021.2.3,59.88798543995,
6,1,0,1,3,3,2,2,1,0,1,1,0,0,0,0,143,143,143,,,,,,,,,,,,,,,,,,,,,,,,,,,,,,17,22,female,17,2022_May_09_1643,Partial repeat,2021.2.3,59.88798543995,
7,4,0,1,2,2,2,2,0,1,1,1,0,0,0,0,144,144,144,0,0,0,0,,,,,,,1053.0297776013613,None,1053.4749312009662,None,1054.271924700588,None,l,1,0.6747763995081186,1054.271924700588,None,None,None,,,,,,,17,22,female,17,2022_May_09_1643,Partial repeat,2021.2.3,59.88798543995,
7,4,0,1,2,2,2,2,0,1,1,1,0,0,0,0,144,144,144,1,0,1,0,,,,,,,,,1054.9546224009246,None,1055.8094251006842,None,s,1,0.6652067005634308,1055.8094251006842,None,None,None,,,,,,,17,22,female,17,2022_May_09_1643,Partial repeat,2021.2.3,59.88798543995,
7,4,0,1,2,2,2,2,0,1,1,1,0,0,0,0,144,144,144,,,,,,,,,,,,,,,,,,,,,,,,,,,,,,17,22,female,17,2022_May_09_1643,Partial repeat,2021.2.3,59.88798543995,
6,8,0,1,2,2,1,2,0,1,1,0,0,0,0,0,145,145,145,0,0,0,0,,,,,,,1056.5038563013077,None,1057.2656784001738,None,1058.0795963015407,None,l,1,0.7791408989578485,1058.0795963015407,None,None,None,,,,,,,17,22,female,17,2022_May_09_1643,Partial repeat,2021.2.3,59.88798543995,
6,8,0,1,2,2,1,2,0,1,1,0,0,0,0,0,145,145,145,1,0,1,0,,,,,,,,,1058.870719499886,None,1059.8494277000427,None,s,1,0.8652027994394302,1059.8494277000427,None,None,None,,,,,,,17,22,female,17,2022_May_09_1643,Partial repeat,2021.2.3,59.88798543995,
6,8,0,1,2,2,1,2,0,1,1,0,0,0,0,0,145,145,145,,,,,,,,,,,,,,,,,,,,,,,,,,,,,,17,22,female,17,2022_May_09_1643,Partial repeat,2021.2.3,59.88798543995,
8,4,0,1,3,3,2,1,1,1,1,0,1,0,0,0,146,146,146,0,0,0,0,,,,,,,1060.7389882002026,None,1061.2066438011825,None,1062.0537566002458,None,s,1,0.7009337991476059,1062.0537566002458,None,None,None,,,,,,,17,22,female,17,2022_May_09_1643,Partial repeat,2021.2.3,59.88798543995,
8,4,0,1,3,3,2,1,1,1,1,0,1,0,0,0,146,146,146,1,0,1,0,,,,,,,,,1062.7795246001333,None,1063.7738915998489,None,s,1,0.6047660000622272,1063.7738915998489,None,None,None,,,,,,,17,22,female,17,2022_May_09_1643,Partial repeat,2021.2.3,59.88798543995,
8,4,0,1,3,3,2,1,1,1,1,0,1,0,0,0,146,146,146,,,,,,,,,,,,,,,,,,,,,,,,,,,,,,17,22,female,17,2022_May_09_1643,Partial repeat,2021.2.3,59.88798543995,
1,1,0,1,2,2,1,2,0,0,1,0,1,0,0,0,147,147,147,0,0,0,0,,,,,,,1064.4060860015452,None,1064.847101200372,None,1065.6106184013188,None,l,1,0.5920906998217106,1065.6106184013188,None,None,None,,,,,,,17,22,female,17,2022_May_09_1643,Partial repeat,2021.2.3,59.88798543995,
1,1,0,1,2,2,1,2,0,0,1,0,1,0,0,0,147,147,147,1,0,1,0,,,,,,,,,1066.2132565006614,None,1067.1139668002725,None,l,1,0.4166204985231161,1067.1139668002725,None,None,None,,,,,,,17,22,female,17,2022_May_09_1643,Partial repeat,2021.2.3,59.88798543995,
1,1,0,1,2,2,1,2,0,0,1,0,1,0,0,0,147,147,147,,,,,,,,,,,,,,,,,,,,,,,,,,,,,,17,22,female,17,2022_May_09_1643,Partial repeat,2021.2.3,59.88798543995,
8,5,0,1,3,3,1,1,1,0,1,1,0,0,0,0,148,148,148,0,0,0,0,,,,,,,1067.5523684006184,None,1067.8696503005922,None,1068.6342321000993,None,s,1,0.5443925000727177,1068.6342321000993,None,None,None,,,,,,,17,22,female,17,2022_May_09_1643,Partial repeat,2021.2.3,59.88798543995,
8,5,0,1,3,3,1,1,1,0,1,1,0,0,0,0,148,148,148,1,0,1,0,,,,,,,,,1069.196811100468,None,1069.9525477997959,None,l,1,0.6100920997560024,1069.9525477997959,None,None,None,,,,,,,17,22,female,17,2022_May_09_1643,Partial repeat,2021.2.3,59.88798543995,
8,5,0,1,3,3,1,1,1,0,1,1,0,0,0,0,148,148,148,,,,,,,,,,,,,,,,,,,,,,,,,,,,,,17,22,female,17,2022_May_09_1643,Partial repeat,2021.2.3,59.88798543995,
4,2,0,1,2,3,1,1,0,1,0,1,0,0,0,0,149,149,149,0,0,0,0,,,,,,,1070.5819585006684,None,1071.1426552012563,None,1072.0064332000911,None,l,1,0.5881903991103172,1072.0064332000911,None,None,None,,,,,,,17,22,female,17,2022_May_09_1643,Partial repeat,2021.2.3,59.88798543995,
4,2,0,1,2,3,1,1,0,1,0,1,0,0,0,0,149,149,149,1,0,1,0,,,,,,,,,1072.606676099822,None,1073.3426629006863,None,s,1,0.6440011002123356,1073.3426629006863,None,None,None,,,,,,,17,22,female,17,2022_May_09_1643,Partial repeat,2021.2.3,59.88798543995,
4,2,0,1,2,3,1,1,0,1,0,1,0,0,0,0,149,149,149,,,,,,,,,,,,,,,,,,,,,,,,,,,,,,17,22,female,17,2022_May_09_1643,Partial repeat,2021.2.3,59.88798543995,
2,3,0,1,2,3,2,2,1,0,0,1,0,0,0,0,150,150,150,0,0,0,0,,,,,,,1074.0141557008028,None,1074.5826262012124,None,1075.4640795998275,None,s,1,0.6345923990011215,1075.4640795998275,None,None,None,,,,,,,17,22,female,17,2022_May_09_1643,Partial repeat,2021.2.3,59.88798543995,
2,3,0,1,2,3,2,2,1,0,0,1,0,0,0,0,150,150,150,1,0,1,0,,,,,,,,,1076.1074080001563,None,1077.0998210012913,None,l,1,0.8548367004841566,1077.0998210012913,None,None,None,,,,,,,17,22,female,17,2022_May_09_1643,Partial repeat,2021.2.3,59.88798543995,
2,3,0,1,2,3,2,2,1,0,0,1,0,0,0,0,150,150,150,,,,,,,,,,,,,,,,,,,,,,,,,,,,,,17,22,female,17,2022_May_09_1643,Partial repeat,2021.2.3,59.88798543995,
3,6,0,1,2,2,1,1,0,0,1,1,1,0,0,0,151,151,151,0,0,0,0,,,,,,,1077.9834684003145,None,1078.690643100068,None,1079.521085999906,None,l,1,0.7135377004742622,1079.521085999906,None,None,None,,,,,,,17,22,female,17,2022_May_09_1643,Partial repeat,2021.2.3,59.88798543995,
3,6,0,1,2,2,1,1,0,0,1,1,1,0,0,0,151,151,151,1,0,1,0,,,,,,,,,1080.2519313003868,None,1081.0582812000066,None,l,1,0.696348400786519,1081.0582812000066,None,None,None,,,,,,,17,22,female,17,2022_May_09_1643,Partial repeat,2021.2.3,59.88798543995,
3,6,0,1,2,2,1,1,0,0,1,1,1,0,0,0,151,151,151,,,,,,,,,,,,,,,,,,,,,,,,,,,,,,17,22,female,17,2022_May_09_1643,Partial repeat,2021.2.3,59.88798543995,
7,7,0,1,3,2,1,2,1,1,0,0,1,0,0,0,152,152,152,0,0,0,0,,,,,,,1081.7710855007172,None,1084.0844883006066,None,1084.9985985998064,None,s,1,1.1000801995396614,1084.9985985998064,None,None,None,,,,,,,17,22,female,17,2022_May_09_1643,Partial repeat,2021.2.3,59.88798543995,
7,7,0,1,3,2,1,2,1,1,0,0,1,0,0,0,152,152,152,1,0,1,0,,,,,,,,,1086.1278726011515,None,1087.135825900361,None,s,1,0.45881279930472374,1087.135825900361,None,None,None,,,,,,,17,22,female,17,2022_May_09_1643,Partial repeat,2021.2.3,59.88798543995,
7,7,0,1,3,2,1,2,1,1,0,0,1,0,0,0,152,152,152,,,,,,,,,,,,,,,,,,,,,,,,,,,,,,17,22,female,17,2022_May_09_1643,Partial repeat,2021.2.3,59.88798543995,
1,6,0,1,2,3,1,2,1,0,0,0,0,0,0,0,153,153,153,0,0,0,0,,,,,,,1087.6139291003346,None,1088.0588883012533,None,1089.0064054001123,None,s,1,0.796288101002574,1089.0064054001123,None,None,None,,,,,,,17,22,female,17,2022_May_09_1643,Partial repeat,2021.2.3,59.88798543995,
