prime_tar_pos,probe_tar_pos,dimension,tar_color,prime_dist_color,probe_dist_color,prime_dist_shape,probe_dist_shape,prime_tar_dot_pos,probe_tar_dot_pos,col_rep,shape_rep,resp_rep,pos_fixed,sparse,MainLoop.thisRepN,MainLoop.thisTrialN,MainLoop.thisN,MainLoop.thisIndex,PrimeProbe.thisRepN,PrimeProbe.thisTrialN,PrimeProbe.thisN,PrimeProbe.thisIndex,Instruction.started,Instruction.stopped,instruction_key.keys,instruction_key.rt,instruction_key.started,instruction_key.stopped,PairStartText.started,PairStartText.stopped,FixCross.started,FixCross.stopped,SearchFixCross.started,SearchFixCross.stopped,key_resp.keys,key_resp.corr,key_resp.rt,key_resp.started,key_resp.stopped,feedback_text.started,feedback_text.stopped,text_finish.started,text_finish.stopped,finish_key.keys,finish_key.rt,finish_key.started,finish_key.stopped,participant,age,gender,group,date,expName,psychopyVersion,frameRate,
,,,,,,,,,,,,,,,,,,,,,,,355.12160820141435,None,space,76.27974179945886,355.12160820141435,None,,,,,,,,,,,,,,,,,,,,18,27,female,18,2022_May_10_1139,Partial repeat,2021.2.3,59.90373420323014,
8,8,0,1,3,2,2,2,1,0,0,1,0,1,0,0,0,0,0,0,0,0,0,,,,,,,431.5257056001574,None,435.0793698001653,None,435.88033219985664,None,s,1,0.840769600123167,435.88033219985664,None,None,None,,,,,,,18,27,female,18,2022_May_10_1139,Partial repeat,2021.2.3,59.90373420323014,
8,8,0,1,3,2,2,2,1,0,0,1,0,1,0,0,0,0,0,1,0,1,0,,,,,,,,,436.7465896997601,None,437.630392100662,None,l,1,0.6186969000846148,437.630392100662,None,None,None,,,,,,,18,27,female,18,2022_May_10_1139,Partial repeat,2021.2.3,59.90373420323014,
8,8,0,1,3,2,2,2,1,0,0,1,0,1,0,0,0,0,0,,,,,,,,,,,,,,,,,,,,,,,,,,,,,,18,27,female,18,2022_May_10_1139,Partial repeat,2021.2.3,59.90373420323014,
8,8,0,1,3,3,1,1,0,1,1,1,0,1,0,0,1,1,1,0,0,0,0,,,,,,,438.2767038997263,None,441.35843580029905,None,442.32235980033875,None,s,0,0.6147515997290611,442.32235980033875,None,442.9620840009302,None,,,,,,,18,27,female,18,2022_May_10_1139,Partial repeat,2021.2.3,59.90373420323014,
8,8,0,1,3,3,1,1,0,1,1,1,0,1,0,0,1,1,1,1,0,1,0,,,,,,,,,443.46252319961786,None,444.21235929988325,None,l,0,0.6687372010201216,444.21235929988325,None,444.9069784004241,None,,,,,,,18,27,female,18,2022_May_10_1139,Partial repeat,2021.2.3,59.90373420323014,
8,8,0,1,3,3,1,1,0,1,1,1,0,1,0,0,1,1,1,,,,,,,,,,,,,,,,,,,,,,,,,,,,,,18,27,female,18,2022_May_10_1139,Partial repeat,2021.2.3,59.90373420323014,
8,8,0,1,3,2,2,1,0,0,0,0,1,1,0,0,2,2,2,0,0,0,0,,,,,,,445.4163757003844,None,447.1363260000944,None,448.05004260130227,None,l,1,1.3350518997758627,448.05004260130227,None,None,None,,,,,,,18,27,female,18,2022_May_10_1139,Partial repeat,2021.2.3,59.90373420323014,
8,8,0,1,3,2,2,1,0,0,0,0,1,1,0,0,2,2,2,1,0,1,0,,,,,,,,,449.4066077005118,None,450.1875117011368,None,l,1,0.4375794995576143,450.1875117011368,None,None,None,,,,,,,18,27,female,18,2022_May_10_1139,Partial repeat,2021.2.3,59.90373420323014,
8,8,0,1,3,2,2,1,0,0,0,0,1,1,0,0,2,2,2,,,,,,,,,,,,,,,,,,,,,,,,,,,,,,18,27,female,18,2022_May_10_1139,Partial repeat,2021.2.3,59.90373420323014,
8,8,0,1,3,3,1,2,1,1,1,0,1,1,0,0,3,3,3,0,0,0,0,,,,,,,450.6473088003695,None,452.34646390005946,None,453.29419619962573,None,s,1,0.5308969989418983,453.29419619962573,None,None,None,,,,,,,18,27,female,18,2022_May_10_1139,Partial repeat,2021.2.3,59.90373420323014,
8,8,0,1,3,3,1,2,1,1,1,0,1,1,0,0,3,3,3,1,0,1,0,,,,,,,,,453.85120280086994,None,454.8300033006817,None,s,1,0.7710810005664825,454.8300033006817,None,None,None,,,,,,,18,27,female,18,2022_May_10_1139,Partial repeat,2021.2.3,59.90373420323014,
8,8,0,1,3,3,1,2,1,1,1,0,1,1,0,0,3,3,3,,,,,,,,,,,,,,,,,,,,,,,,,,,,,,18,27,female,18,2022_May_10_1139,Partial repeat,2021.2.3,59.90373420323014,
8,8,0,1,2,3,2,1,0,1,0,0,0,1,0,0,4,4,4,0,0,0,0,,,,,,,455.62305410020053,None,457.35620100051165,None,458.33686610125005,None,l,1,0.4962372984737158,458.33686610125005,None,None,None,,,,,,,18,27,female,18,2022_May_10_1139,Partial repeat,2021.2.3,59.90373420323014,
8,8,0,1,2,3,2,1,0,1,0,0,0,1,0,0,4,4,4,1,0,1,0,,,,,,,,,458.8477349001914,None,459.68973159976304,None,s,1,0.6954114995896816,459.68973159976304,None,None,None,,,,,,,18,27,female,18,2022_May_10_1139,Partial repeat,2021.2.3,59.90373420323014,
8,8,0,1,2,3,2,1,0,1,0,0,0,1,0,0,4,4,4,,,,,,,,,,,,,,,,,,,,,,,,,,,,,,18,27,female,18,2022_May_10_1139,Partial repeat,2021.2.3,59.90373420323014,
8,8,0,1,2,3,1,1,1,1,0,1,1,1,0,0,5,5,5,0,0,0,0,,,,,,,460.40188129991293,None,461.38069520145655,None,462.1776128001511,None,l,0,2.0954873003065586,462.1776128001511,None,464.2854216005653,None,,,,,,,18,27,female,18,2022_May_10_1139,Partial repeat,2021.2.3,59.90373420323014,
8,8,0,1,2,3,1,1,1,1,0,1,1,1,0,0,5,5,5,1,0,1,0,,,,,,,,,464.78717590123415,None,465.7350449003279,None,s,1,0.7300285995006561,465.7350449003279,None,None,None,,,,,,,18,27,female,18,2022_May_10_1139,Partial repeat,2021.2.3,59.90373420323014,
8,8,0,1,2,3,1,1,1,1,0,1,1,1,0,0,5,5,5,,,,,,,,,,,,,,,,,,,,,,,,,,,,,,18,27,female,18,2022_May_10_1139,Partial repeat,2021.2.3,59.90373420323014,
8,8,0,1,3,2,1,1,1,0,0,1,0,1,0,0,6,6,6,0,0,0,0,,,,,,,466.4873473998159,None,468.3442817013711,None,469.3249094001949,None,s,1,0.5961694996803999,469.3249094001949,None,None,None,,,,,,,18,27,female,18,2022_May_10_1139,Partial repeat,2021.2.3,59.90373420323014,
8,8,0,1,3,2,1,1,1,0,0,1,0,1,0,0,6,6,6,1,0,1,0,,,,,,,,,469.9453069996089,None,470.87783920019865,None,l,1,0.6352774985134602,470.87783920019865,None,None,None,,,,,,,18,27,female,18,2022_May_10_1139,Partial repeat,2021.2.3,59.90373420323014,
8,8,0,1,3,2,1,1,1,0,0,1,0,1,0,0,6,6,6,,,,,,,,,,,,,,,,,,,,,,,,,,,,,,18,27,female,18,2022_May_10_1139,Partial repeat,2021.2.3,59.90373420323014,
8,8,0,1,3,3,2,2,1,1,1,1,1,1,0,0,7,7,7,0,0,0,0,,,,,,,471.5241878014058,None,474.7066144011915,None,475.65490300022066,None,s,1,0.5222669001668692,475.65490300022066,None,None,None,,,,,,,18,27,female,18,2022_May_10_1139,Partial repeat,2021.2.3,59.90373420323014,
8,8,0,1,3,3,2,2,1,1,1,1,1,1,0,0,7,7,7,1,0,1,0,,,,,,,,,476.18664029985666,None,476.923080900684,None,s,1,0.45400720089673996,476.923080900684,None,None,None,,,,,,,18,27,female,18,2022_May_10_1139,Partial repeat,2021.2.3,59.90373420323014,
8,8,0,1,3,3,2,2,1,1,1,1,1,1,0,0,7,7,7,,,,,,,,,,,,,,,,,,,,,,,,,,,,,,18,27,female,18,2022_May_10_1139,Partial repeat,2021.2.3,59.90373420323014,
8,8,0,1,2,3,2,2,1,0,0,1,0,1,0,0,8,8,8,0,0,0,0,,,,,,,477.40075520053506,None,478.9315624013543,None,479.7285189013928,None,s,1,0.4805530998855829,479.7285189013928,None,None,None,,,,,,,18,27,female,18,2022_May_10_1139,Partial repeat,2021.2.3,59.90373420323014,
8,8,0,1,2,3,2,2,1,0,0,1,0,1,0,0,8,8,8,1,0,1,0,,,,,,,,,480.2249362003058,None,481.0646382011473,None,l,1,0.5604418013244867,481.0646382011473,None,None,None,,,,,,,18,27,female,18,2022_May_10_1139,Partial repeat,2021.2.3,59.90373420323014,
8,8,0,1,2,3,2,2,1,0,0,1,0,1,0,0,8,8,8,,,,,,,,,,,,,,,,,,,,,,,,,,,,,,18,27,female,18,2022_May_10_1139,Partial repeat,2021.2.3,59.90373420323014,
8,8,0,1,2,3,2,1,1,0,0,0,0,1,0,0,9,9,9,0,0,0,0,,,,,,,481.6447417009622,None,484.10827909968793,None,485.0388022996485,None,l,0,0.49826980009675026,485.0388022996485,None,485.5521293003112,None,,,,,,,18,27,female,18,2022_May_10_1139,Partial repeat,2021.2.3,59.90373420323014,
8,8,0,1,2,3,2,1,1,0,0,0,0,1,0,0,9,9,9,1,0,1,0,,,,,,,,,486.0620750002563,None,486.89230499975383,None,l,1,0.5407400000840425,486.89230499975383,None,None,None,,,,,,,18,27,female,18,2022_May_10_1139,Partial repeat,2021.2.3,59.90373420323014,
8,8,0,1,2,3,2,1,1,0,0,0,0,1,0,0,9,9,9,,,,,,,,,,,,,,,,,,,,,,,,,,,,,,18,27,female,18,2022_May_10_1139,Partial repeat,2021.2.3,59.90373420323014,
8,8,0,1,2,2,1,2,1,0,1,0,0,1,0,0,10,10,10,0,0,0,0,,,,,,,487.45543340034783,None,489.6523842997849,None,490.4493314996362,None,s,1,1.0717933997511864,490.4493314996362,None,None,None,,,,,,,18,27,female,18,2022_May_10_1139,Partial repeat,2021.2.3,59.90373420323014,
8,8,0,1,2,2,1,2,1,0,1,0,0,1,0,0,10,10,10,1,0,1,0,,,,,,,,,491.5322377998382,None,492.5206432007253,None,l,1,0.5444256998598576,492.5206432007253,None,None,None,,,,,,,18,27,female,18,2022_May_10_1139,Partial repeat,2021.2.3,59.90373420323014,
8,8,0,1,2,2,1,2,1,0,1,0,0,1,0,0,10,10,10,,,,,,,,,,,,,,,,,,,,,,,,,,,,,,18,27,female,18,2022_May_10_1139,Partial repeat,2021.2.3,59.90373420323014,
8,8,0,1,2,2,2,1,0,0,1,0,1,1,0,0,11,11,11,0,0,0,0,,,,,,,493.08281350135803,None,495.53044230118394,None,496.51107950136065,None,s,0,0.4660272989422083,496.51107950136065,None,497.00281110033393,None,,,,,,,18,27,female,18,2022_May_10_1139,Partial repeat,2021.2.3,59.90373420323014,
8,8,0,1,2,2,2,1,0,0,1,0,1,1,0,0,11,11,11,1,0,1,0,,,,,,,,,497.5177027005702,None,498.4313494004309,None,l,1,0.657753499224782,498.4313494004309,None,None,None,,,,,,,18,27,female,18,2022_May_10_1139,Partial repeat,2021.2.3,59.90373420323014,
8,8,0,1,2,2,2,1,0,0,1,0,1,1,0,0,11,11,11,,,,,,,,,,,,,,,,,,,,,,,,,,,,,,18,27,female,18,2022_May_10_1139,Partial repeat,2021.2.3,59.90373420323014,
8,8,0,1,2,2,2,1,0,1,1,0,0,1,0,0,12,12,12,0,0,0,0,,,,,,,499.1196935996413,None,500.22291840054095,None,501.0875793006271,None,l,1,0.8334947004914284,501.0875793006271,None,None,None,,,,,,,18,27,female,18,2022_May_10_1139,Partial repeat,2021.2.3,59.90373420323014,
8,8,0,1,2,2,2,1,0,1,1,0,0,1,0,0,12,12,12,1,0,1,0,,,,,,,,,501.9392010997981,None,502.9067660011351,None,s,1,0.414300300180912,502.9067660011351,None,None,None,,,,,,,18,27,female,18,2022_May_10_1139,Partial repeat,2021.2.3,59.90373420323014,
8,8,0,1,2,2,2,1,0,1,1,0,0,1,0,0,12,12,12,,,,,,,,,,,,,,,,,,,,,,,,,,,,,,18,27,female,18,2022_May_10_1139,Partial repeat,2021.2.3,59.90373420323014,
8,8,0,1,2,3,1,2,1,0,0,0,0,1,0,0,13,13,13,0,0,0,0,,,,,,,503.33702290058136,None,504.9822027012706,None,505.91262300126255,None,s,1,1.3364396002143621,505.91262300126255,None,None,None,,,,,,,18,27,female,18,2022_May_10_1139,Partial repeat,2021.2.3,59.90373420323014,
8,8,0,1,2,3,1,2,1,0,0,0,0,1,0,0,13,13,13,1,0,1,0,,,,,,,,,507.271223699674,None,508.0008285008371,None,l,1,0.5682373009622097,508.0008285008371,None,None,None,,,,,,,18,27,female,18,2022_May_10_1139,Partial repeat,2021.2.3,59.90373420323014,
8,8,0,1,2,3,1,2,1,0,0,0,0,1,0,0,13,13,13,,,,,,,,,,,,,,,,,,,,,,,,,,,,,,18,27,female,18,2022_May_10_1139,Partial repeat,2021.2.3,59.90373420323014,
8,8,0,1,3,3,2,1,1,1,1,0,1,1,0,0,14,14,14,0,0,0,0,,,,,,,508.59387429989874,None,510.67659450136125,None,511.5737431999296,None,s,1,0.7313953004777431,511.5737431999296,None,None,None,,,,,,,18,27,female,18,2022_May_10_1139,Partial repeat,2021.2.3,59.90373420323014,
8,8,0,1,3,3,2,1,1,1,1,0,1,1,0,0,14,14,14,1,0,1,0,,,,,,,,,512.3232672996819,None,513.3448582999408,None,s,1,0.6881990004330873,513.3448582999408,None,None,None,,,,,,,18,27,female,18,2022_May_10_1139,Partial repeat,2021.2.3,59.90373420323014,
8,8,0,1,3,3,2,1,1,1,1,0,1,1,0,0,14,14,14,,,,,,,,,,,,,,,,,,,,,,,,,,,,,,18,27,female,18,2022_May_10_1139,Partial repeat,2021.2.3,59.90373420323014,
8,8,0,1,3,2,1,2,0,1,0,0,0,1,0,0,15,15,15,0,0,0,0,,,,,,,514.0550795011222,None,515.5525863002986,None,516.3498849011958,None,l,1,0.4672138001769781,516.3498849011958,None,None,None,,,,,,,18,27,female,18,2022_May_10_1139,Partial repeat,2021.2.3,59.90373420323014,
8,8,0,1,3,2,1,2,0,1,0,0,0,1,0,0,15,15,15,1,0,1,0,,,,,,,,,516.843188200146,None,517.6357148997486,None,s,1,0.4133464992046356,517.6357148997486,None,None,None,,,,,,,18,27,female,18,2022_May_10_1139,Partial repeat,2021.2.3,59.90373420323014,
8,8,0,1,3,2,1,2,0,1,0,0,0,1,0,0,15,15,15,,,,,,,,,,,,,,,,,,,,,,,,,,,,,,18,27,female,18,2022_May_10_1139,Partial repeat,2021.2.3,59.90373420323014,
8,8,0,1,2,2,1,2,0,1,1,0,0,1,0,0,16,16,16,0,0,0,0,,,,,,,518.0698065999895,None,520.0447973012924,None,520.9924491997808,None,l,1,0.9286024998873472,520.9924491997808,None,None,None,,,,,,,18,27,female,18,2022_May_10_1139,Partial repeat,2021.2.3,59.90373420323014,
8,8,0,1,2,2,1,2,0,1,1,0,0,1,0,0,16,16,16,1,0,1,0,,,,,,,,,521.9356559999287,None,522.712092300877,None,s,1,0.4089643005281687,522.712092300877,None,None,None,,,,,,,18,27,female,18,2022_May_10_1139,Partial repeat,2021.2.3,59.90373420323014,
8,8,0,1,2,2,1,2,0,1,1,0,0,1,0,0,16,16,16,,,,,,,,,,,,,,,,,,,,,,,,,,,,,,18,27,female,18,2022_May_10_1139,Partial repeat,2021.2.3,59.90373420323014,
8,8,0,1,2,2,1,1,1,0,1,1,0,1,0,0,17,17,17,0,0,0,0,,,,,,,523.1436586007476,None,525.2382984012365,None,525.9697584006935,None,s,1,0.4473008010536432,525.9697584006935,None,None,None,,,,,,,18,27,female,18,2022_May_10_1139,Partial repeat,2021.2.3,59.90373420323014,
8,8,0,1,2,2,1,1,1,0,1,1,0,1,0,0,17,17,17,1,0,1,0,,,,,,,,,526.4431461002678,None,527.2378668002784,None,l,1,0.41918479837477207,527.2378668002784,None,None,None,,,,,,,18,27,female,18,2022_May_10_1139,Partial repeat,2021.2.3,59.90373420323014,
8,8,0,1,2,2,1,1,1,0,1,1,0,1,0,0,17,17,17,,,,,,,,,,,,,,,,,,,,,,,,,,,,,,18,27,female,18,2022_May_10_1139,Partial repeat,2021.2.3,59.90373420323014,
8,8,0,1,2,2,1,1,0,1,1,1,0,1,0,0,18,18,18,0,0,0,0,,,,,,,527.6743214000016,None,528.9287480004132,None,529.7757419012487,None,l,1,1.14529550075531,529.7757419012487,None,None,None,,,,,,,18,27,female,18,2022_May_10_1139,Partial repeat,2021.2.3,59.90373420323014,
8,8,0,1,2,2,1,1,0,1,1,1,0,1,0,0,18,18,18,1,0,1,0,,,,,,,,,530.9438541010022,None,531.779947699979,None,s,1,0.397104999050498,531.779947699979,None,None,None,,,,,,,18,27,female,18,2022_May_10_1139,Partial repeat,2021.2.3,59.90373420323014,
8,8,0,1,2,2,1,1,0,1,1,1,0,1,0,0,18,18,18,,,,,,,,,,,,,,,,,,,,,,,,,,,,,,18,27,female,18,2022_May_10_1139,Partial repeat,2021.2.3,59.90373420323014,
8,8,0,1,2,3,2,2,0,0,0,1,1,1,0,0,19,19,19,0,0,0,0,,,,,,,532.1946630999446,None,535.2410599011928,None,536.1068868003786,None,l,1,1.06220250017941,536.1068868003786,None,None,None,,,,,,,18,27,female,18,2022_May_10_1139,Partial repeat,2021.2.3,59.90373420323014,
8,8,0,1,2,3,2,2,0,0,0,1,1,1,0,0,19,19,19,1,0,1,0,,,,,,,,,537.1969135012478,None,537.9583801012486,None,l,1,0.47467419877648354,537.9583801012486,None,None,None,,,,,,,18,27,female,18,2022_May_10_1139,Partial repeat,2021.2.3,59.90373420323014,
8,8,0,1,2,3,2,2,0,0,0,1,1,1,0,0,19,19,19,,,,,,,,,,,,,,,,,,,,,,,,,,,,,,18,27,female,18,2022_May_10_1139,Partial repeat,2021.2.3,59.90373420323014,
8,8,0,1,2,2,1,1,1,1,1,1,1,1,0,0,20,20,20,0,0,0,0,,,,,,,538.4570241998881,None,540.7350097000599,None,541.548751000315,None,s,1,0.3803307004272938,541.548751000315,None,None,None,,,,,,,18,27,female,18,2022_May_10_1139,Partial repeat,2021.2.3,59.90373420323014,
8,8,0,1,2,2,1,1,1,1,1,1,1,1,0,0,20,20,20,1,0,1,0,,,,,,,,,541.9379715006799,None,542.8346030004323,None,s,1,0.3585224002599716,542.8346030004323,None,None,None,,,,,,,18,27,female,18,2022_May_10_1139,Partial repeat,2021.2.3,59.90373420323014,
8,8,0,1,2,2,1,1,1,1,1,1,1,1,0,0,20,20,20,,,,,,,,,,,,,,,,,,,,,,,,,,,,,,18,27,female,18,2022_May_10_1139,Partial repeat,2021.2.3,59.90373420323014,
8,8,0,1,2,2,2,2,1,0,1,1,0,1,0,0,21,21,21,0,0,0,0,,,,,,,543.2058662008494,None,544.4256039001048,None,545.4395727999508,None,s,1,1.0334697999060154,545.4395727999508,None,None,None,,,,,,,18,27,female,18,2022_May_10_1139,Partial repeat,2021.2.3,59.90373420323014,
8,8,0,1,2,2,2,2,1,0,1,1,0,1,0,0,21,21,21,1,0,1,0,,,,,,,,,546.4855816010386,None,547.3099276013672,None,l,1,0.5230900999158621,547.3099276013672,None,None,None,,,,,,,18,27,female,18,2022_May_10_1139,Partial repeat,2021.2.3,59.90373420323014,
8,8,0,1,2,2,2,2,1,0,1,1,0,1,0,0,21,21,21,,,,,,,,,,,,,,,,,,,,,,,,,,,,,,18,27,female,18,2022_May_10_1139,Partial repeat,2021.2.3,59.90373420323014,
8,8,0,1,3,2,1,1,0,1,0,1,0,1,0,0,22,22,22,0,0,0,0,,,,,,,547.8504180014133,None,549.1848755013198,None,550.115366101265,None,l,1,0.3896644003689289,550.115366101265,None,None,None,,,,,,,18,27,female,18,2022_May_10_1139,Partial repeat,2021.2.3,59.90373420323014,
8,8,0,1,3,2,1,1,0,1,0,1,0,1,0,0,22,22,22,1,0,1,0,,,,,,,,,550.5251419004053,None,551.3014056012034,None,s,1,0.39566359855234623,551.3014056012034,None,None,None,,,,,,,18,27,female,18,2022_May_10_1139,Partial repeat,2021.2.3,59.90373420323014,
8,8,0,1,3,2,1,1,0,1,0,1,0,1,0,0,22,22,22,,,,,,,,,,,,,,,,,,,,,,,,,,,,,,18,27,female,18,2022_May_10_1139,Partial repeat,2021.2.3,59.90373420323014,
8,8,0,1,2,2,2,2,0,0,1,1,1,1,0,0,23,23,23,0,0,0,0,,,,,,,551.7175626996905,None,553.760368200019,None,554.524000801146,None,l,1,0.7890321984887123,554.524000801146,None,None,None,,,,,,,18,27,female,18,2022_May_10_1139,Partial repeat,2021.2.3,59.90373420323014,
8,8,0,1,2,2,2,2,0,0,1,1,1,1,0,0,23,23,23,1,0,1,0,,,,,,,,,555.3392073009163,None,556.1769625004381,None,l,1,0.3601591996848583,556.1769625004381,None,None,None,,,,,,,18,27,female,18,2022_May_10_1139,Partial repeat,2021.2.3,59.90373420323014,
8,8,0,1,2,2,2,2,0,0,1,1,1,1,0,0,23,23,23,,,,,,,,,,,,,,,,,,,,,,,,,,,,,,18,27,female,18,2022_May_10_1139,Partial repeat,2021.2.3,59.90373420323014,
8,8,0,1,2,3,1,2,0,0,0,0,1,1,0,0,24,24,24,0,0,0,0,,,,,,,556.5495124999434,None,557.6847489010543,None,558.5486456006765,None,l,1,0.4444217011332512,558.5486456006765,None,None,None,,,,,,,18,27,female,18,2022_May_10_1139,Partial repeat,2021.2.3,59.90373420323014,
8,8,0,1,2,3,1,2,0,0,0,0,1,1,0,0,24,24,24,1,0,1,0,,,,,,,,,559.0188196003437,None,559.8509247004986,None,l,1,0.7421455010771751,559.8509247004986,None,None,None,,,,,,,18,27,female,18,2022_May_10_1139,Partial repeat,2021.2.3,59.90373420323014,
8,8,0,1,2,3,1,2,0,0,0,0,1,1,0,0,24,24,24,,,,,,,,,,,,,,,,,,,,,,,,,,,,,,18,27,female,18,2022_May_10_1139,Partial repeat,2021.2.3,59.90373420323014,
8,8,0,1,3,3,1,1,0,0,1,1,1,1,0,0,25,25,25,0,0,0,0,,,,,,,560.603564299643,None,562.1768207997084,None,562.940531000495,None,l,1,0.39653899893164635,562.940531000495,None,None,None,,,,,,,18,27,female,18,2022_May_10_1139,Partial repeat,2021.2.3,59.90373420323014,
8,8,0,1,3,3,1,1,0,0,1,1,1,1,0,0,25,25,25,1,0,1,0,,,,,,,,,563.348894501105,None,564.0926166009158,None,l,1,0.3084180988371372,564.0926166009158,None,None,None,,,,,,,18,27,female,18,2022_May_10_1139,Partial repeat,2021.2.3,59.90373420323014,
8,8,0,1,3,3,1,1,0,0,1,1,1,1,0,0,25,25,25,,,,,,,,,,,,,,,,,,,,,,,,,,,,,,18,27,female,18,2022_May_10_1139,Partial repeat,2021.2.3,59.90373420323014,
8,8,0,1,2,2,1,1,0,0,1,1,1,1,0,0,26,26,26,0,0,0,0,,,,,,,564.4221077002585,None,566.6687021013349,None,567.5994450002909,None,l,1,0.41758150048553944,567.5994450002909,None,None,None,,,,,,,18,27,female,18,2022_May_10_1139,Partial repeat,2021.2.3,59.90373420323014,
8,8,0,1,2,2,1,1,0,0,1,1,1,1,0,0,26,26,26,1,0,1,0,,,,,,,,,568.030733499676,None,568.9520225003362,None,l,1,0.2890027016401291,568.9520225003362,None,None,None,,,,,,,18,27,female,18,2022_May_10_1139,Partial repeat,2021.2.3,59.90373420323014,
8,8,0,1,2,2,1,1,0,0,1,1,1,1,0,0,26,26,26,,,,,,,,,,,,,,,,,,,,,,,,,,,,,,18,27,female,18,2022_May_10_1139,Partial repeat,2021.2.3,59.90373420323014,
8,8,0,1,2,3,2,2,0,1,0,1,0,1,0,0,27,27,27,0,0,0,0,,,,,,,569.2580711003393,None,572.1294892001897,None,573.0268194004893,None,l,1,0.3822761997580528,573.0268194004893,None,None,None,,,,,,,18,27,female,18,2022_May_10_1139,Partial repeat,2021.2.3,59.90373420323014,
8,8,0,1,2,3,2,2,0,1,0,1,0,1,0,0,27,27,27,1,0,1,0,,,,,,,,,573.4370327014476,None,574.4460435006768,None,s,1,0.4109847992658615,574.4460435006768,None,None,None,,,,,,,18,27,female,18,2022_May_10_1139,Partial repeat,2021.2.3,59.90373420323014,
8,8,0,1,2,3,2,2,0,1,0,1,0,1,0,0,27,27,27,,,,,,,,,,,,,,,,,,,,,,,,,,,,,,18,27,female,18,2022_May_10_1139,Partial repeat,2021.2.3,59.90373420323014,
8,8,0,1,3,2,2,1,1,1,0,0,1,1,0,0,28,28,28,0,0,0,0,,,,,,,574.8806651011109,None,576.4044240005314,None,577.2185553014278,None,s,1,0.3664605990052223,577.2185553014278,None,None,None,,,,,,,18,27,female,18,2022_May_10_1139,Partial repeat,2021.2.3,59.90373420323014,
8,8,0,1,3,2,2,1,1,1,0,0,1,1,0,0,28,28,28,1,0,1,0,,,,,,,,,577.608046701178,None,578.5221657007933,None,s,1,0.3028565999120474,578.5221657007933,None,None,None,,,,,,,18,27,female,18,2022_May_10_1139,Partial repeat,2021.2.3,59.90373420323014,
8,8,0,1,3,2,2,1,1,1,0,0,1,1,0,0,28,28,28,,,,,,,,,,,,,,,,,,,,,,,,,,,,,,18,27,female,18,2022_May_10_1139,Partial repeat,2021.2.3,59.90373420323014,
8,8,0,1,3,2,2,1,1,0,0,0,0,1,0,0,29,29,29,0,0,0,0,,,,,,,578.8532094005495,None,579.9614107012749,None,580.7928465008736,None,s,1,0.5121561996638775,580.7928465008736,None,None,None,,,,,,,18,27,female,18,2022_May_10_1139,Partial repeat,2021.2.3,59.90373420323014,
8,8,0,1,3,2,2,1,1,0,0,0,0,1,0,0,29,29,29,1,0,1,0,,,,,,,,,581.3337057996541,None,582.228667801246,None,l,1,0.4043518006801605,582.228667801246,None,None,None,,,,,,,18,27,female,18,2022_May_10_1139,Partial repeat,2021.2.3,59.90373420323014,
8,8,0,1,3,2,2,1,1,0,0,0,0,1,0,0,29,29,29,,,,,,,,,,,,,,,,,,,,,,,,,,,,,,18,27,female,18,2022_May_10_1139,Partial repeat,2021.2.3,59.90373420323014,
8,8,0,1,2,2,2,1,1,1,1,0,1,1,0,0,30,30,30,0,0,0,0,,,,,,,582.659143101424,None,583.7354436013848,None,584.6163471005857,None,s,1,0.5927780009806156,584.6163471005857,None,None,None,,,,,,,18,27,female,18,2022_May_10_1139,Partial repeat,2021.2.3,59.90373420323014,
8,8,0,1,2,2,2,1,1,1,1,0,1,1,0,0,30,30,30,1,0,1,0,,,,,,,,,585.2179765999317,None,586.0526743996888,None,s,1,0.4763500988483429,586.0526743996888,None,None,None,,,,,,,18,27,female,18,2022_May_10_1139,Partial repeat,2021.2.3,59.90373420323014,
8,8,0,1,2,2,2,1,1,1,1,0,1,1,0,0,30,30,30,,,,,,,,,,,,,,,,,,,,,,,,,,,,,,18,27,female,18,2022_May_10_1139,Partial repeat,2021.2.3,59.90373420323014,
8,8,0,1,3,2,2,2,1,1,0,1,1,1,0,0,31,31,31,0,0,0,0,,,,,,,586.551805600524,None,587.5260813012719,None,588.3233407009393,None,s,1,0.3657415993511677,588.3233407009393,None,None,None,,,,,,,18,27,female,18,2022_May_10_1139,Partial repeat,2021.2.3,59.90373420323014,
8,8,0,1,3,2,2,2,1,1,0,1,1,1,0,0,31,31,31,1,0,1,0,,,,,,,,,588.7133828997612,None,589.6088851001114,None,s,1,0.3121405001729727,589.6088851001114,None,None,None,,,,,,,18,27,female,18,2022_May_10_1139,Partial repeat,2021.2.3,59.90373420323014,
8,8,0,1,3,2,2,2,1,1,0,1,1,1,0,0,31,31,31,,,,,,,,,,,,,,,,,,,,,,,,,,,,,,18,27,female,18,2022_May_10_1139,Partial repeat,2021.2.3,59.90373420323014,
8,8,0,1,2,3,1,2,0,1,0,0,0,1,0,0,32,32,32,0,0,0,0,,,,,,,589.9355565011501,None,591.0329301003367,None,591.846782900393,None,l,1,0.5062870010733604,591.846782900393,None,None,None,,,,,,,18,27,female,18,2022_May_10_1139,Partial repeat,2021.2.3,59.90373420323014,
8,8,0,1,2,3,1,2,0,1,0,0,0,1,0,0,32,32,32,1,0,1,0,,,,,,,,,592.3802129011601,None,593.0990537013859,None,s,1,0.35799740068614483,593.0990537013859,None,None,None,,,,,,,18,27,female,18,2022_May_10_1139,Partial repeat,2021.2.3,59.90373420323014,
8,8,0,1,2,3,1,2,0,1,0,0,0,1,0,0,32,32,32,,,,,,,,,,,,,,,,,,,,,,,,,,,,,,18,27,female,18,2022_May_10_1139,Partial repeat,2021.2.3,59.90373420323014,
8,8,0,1,3,3,2,2,0,0,1,1,1,1,0,0,33,33,33,0,0,0,0,,,,,,,593.4672743007541,None,594.222484299913,None,595.2030434999615,None,s,0,0.47797080129384995,595.2030434999615,None,595.6968898996711,None,,,,,,,18,27,female,18,2022_May_10_1139,Partial repeat,2021.2.3,59.90373420323014,
8,8,0,1,3,3,2,2,0,0,1,1,1,1,0,0,33,33,33,1,0,1,0,,,,,,,,,596.2096784003079,None,597.0566493999213,None,l,1,0.6004083007574081,597.0566493999213,None,None,None,,,,,,,18,27,female,18,2022_May_10_1139,Partial repeat,2021.2.3,59.90373420323014,
8,8,0,1,3,3,2,2,0,0,1,1,1,1,0,0,33,33,33,,,,,,,,,,,,,,,,,,,,,,,,,,,,,,18,27,female,18,2022_May_10_1139,Partial repeat,2021.2.3,59.90373420323014,
8,8,0,1,3,2,1,2,1,1,0,0,1,1,0,0,34,34,34,0,0,0,0,,,,,,,597.6869162004441,None,598.4306425005198,None,599.2780648004264,None,s,1,0.6909267995506525,599.2780648004264,None,None,None,,,,,,,18,27,female,18,2022_May_10_1139,Partial repeat,2021.2.3,59.90373420323014,
8,8,0,1,3,2,1,2,1,1,0,0,1,1,0,0,34,34,34,1,0,1,0,,,,,,,,,599.9860827997327,None,600.8140598013997,None,s,1,0.3390047997236252,600.8140598013997,None,None,None,,,,,,,18,27,female,18,2022_May_10_1139,Partial repeat,2021.2.3,59.90373420323014,
8,8,0,1,3,2,1,2,1,1,0,0,1,1,0,0,34,34,34,,,,,,,,,,,,,,,,,,,,,,,,,,,,,,18,27,female,18,2022_May_10_1139,Partial repeat,2021.2.3,59.90373420323014,
8,8,0,1,3,3,2,1,1,0,1,0,0,1,0,0,35,35,35,0,0,0,0,,,,,,,601.1649252008647,None,601.9875017013401,None,602.9852029997855,None,s,1,0.48784699849784374,602.9852029997855,None,None,None,,,,,,,18,27,female,18,2022_May_10_1139,Partial repeat,2021.2.3,59.90373420323014,
8,8,0,1,3,3,2,1,1,0,1,0,0,1,0,0,35,35,35,1,0,1,0,,,,,,,,,603.5011343006045,None,604.4711234997958,None,l,1,0.3698986005038023,604.4711234997958,None,None,None,,,,,,,18,27,female,18,2022_May_10_1139,Partial repeat,2021.2.3,59.90373420323014,
8,8,0,1,3,3,2,1,1,0,1,0,0,1,0,0,35,35,35,,,,,,,,,,,,,,,,,,,,,,,,,,,,,,18,27,female,18,2022_May_10_1139,Partial repeat,2021.2.3,59.90373420323014,
8,8,0,1,3,2,1,2,1,0,0,0,0,1,0,0,36,36,36,0,0,0,0,,,,,,,604.8675314001739,None,605.4943528007716,None,606.4749727007002,None,s,1,0.5420704986900091,606.4749727007002,None,None,None,,,,,,,18,27,female,18,2022_May_10_1139,Partial repeat,2021.2.3,59.90373420323014,
8,8,0,1,3,2,1,2,1,0,0,0,0,1,0,0,36,36,36,1,0,1,0,,,,,,,,,607.0314319003373,None,607.9781849998981,None,l,1,0.3268572986125946,607.9781849998981,None,None,None,,,,,,,18,27,female,18,2022_May_10_1139,Partial repeat,2021.2.3,59.90373420323014,
8,8,0,1,3,2,1,2,1,0,0,0,0,1,0,0,36,36,36,,,,,,,,,,,,,,,,,,,,,,,,,,,,,,18,27,female,18,2022_May_10_1139,Partial repeat,2021.2.3,59.90373420323014,
8,8,0,1,2,3,2,1,0,0,0,0,1,1,0,0,37,37,37,0,0,0,0,,,,,,,608.3268206007779,None,608.9010362010449,None,609.8314871005714,None,l,1,0.6975296009331942,609.8314871005714,None,None,None,,,,,,,18,27,female,18,2022_May_10_1139,Partial repeat,2021.2.3,59.90373420323014,
8,8,0,1,2,3,2,1,0,0,0,0,1,1,0,0,37,37,37,1,0,1,0,,,,,,,,,610.5543738007545,None,611.56850480102,None,l,1,0.30453369952738285,611.56850480102,None,None,None,,,,,,,18,27,female,18,2022_May_10_1139,Partial repeat,2021.2.3,59.90373420323014,
8,8,0,1,2,3,2,1,0,0,0,0,1,1,0,0,37,37,37,,,,,,,,,,,,,,,,,,,,,,,,,,,,,,18,27,female,18,2022_May_10_1139,Partial repeat,2021.2.3,59.90373420323014,
8,8,0,1,2,3,1,1,1,0,0,1,0,1,0,0,38,38,38,0,0,0,0,,,,,,,611.8974048998207,None,612.4913545008749,None,613.3220100011677,None,s,1,0.47098989970982075,613.3220100011677,None,None,None,,,,,,,18,27,female,18,2022_May_10_1139,Partial repeat,2021.2.3,59.90373420323014,
8,8,0,1,2,3,1,1,1,0,0,1,0,1,0,0,38,38,38,1,0,1,0,,,,,,,,,613.8166632000357,None,614.7076811008155,None,l,1,0.5333266984671354,614.7076811008155,None,None,None,,,,,,,18,27,female,18,2022_May_10_1139,Partial repeat,2021.2.3,59.90373420323014,
8,8,0,1,2,3,1,1,1,0,0,1,0,1,0,0,38,38,38,,,,,,,,,,,,,,,,,,,,,,,,,,,,,,18,27,female,18,2022_May_10_1139,Partial repeat,2021.2.3,59.90373420323014,
8,8,0,1,2,2,2,2,1,1,1,1,1,1,0,0,39,39,39,0,0,0,0,,,,,,,615.2516991011798,None,615.8478153999895,None,616.6125662010163,None,s,1,0.8524718005210161,616.6125662010163,None,None,None,,,,,,,18,27,female,18,2022_May_10_1139,Partial repeat,2021.2.3,59.90373420323014,
8,8,0,1,2,2,2,2,1,1,1,1,1,1,0,0,39,39,39,1,0,1,0,,,,,,,,,617.4931674003601,None,618.4983744006604,None,s,1,0.6626296993345022,618.4983744006604,None,None,None,,,,,,,18,27,female,18,2022_May_10_1139,Partial repeat,2021.2.3,59.90373420323014,
8,8,0,1,2,2,2,2,1,1,1,1,1,1,0,0,39,39,39,,,,,,,,,,,,,,,,,,,,,,,,,,,,,,18,27,female,18,2022_May_10_1139,Partial repeat,2021.2.3,59.90373420323014,
8,8,0,1,3,2,2,2,0,1,0,1,0,1,0,0,40,40,40,0,0,0,0,,,,,,,619.1842975001782,None,619.8055654000491,None,620.736011100933,None,l,1,0.7530253008008003,620.736011100933,None,None,None,,,,,,,18,27,female,18,2022_May_10_1139,Partial repeat,2021.2.3,59.90373420323014,
8,8,0,1,3,2,2,2,0,1,0,1,0,1,0,0,40,40,40,1,0,1,0,,,,,,,,,621.5172541998327,None,622.4226734004915,None,s,1,0.37830450013279915,622.4226734004915,None,None,None,,,,,,,18,27,female,18,2022_May_10_1139,Partial repeat,2021.2.3,59.90373420323014,
8,8,0,1,3,2,2,2,0,1,0,1,0,1,0,0,40,40,40,,,,,,,,,,,,,,,,,,,,,,,,,,,,,,18,27,female,18,2022_May_10_1139,Partial repeat,2021.2.3,59.90373420323014,
8,8,0,1,3,3,1,2,1,0,1,0,0,1,0,0,41,41,41,0,0,0,0,,,,,,,622.8154667001218,None,623.3791857007891,None,624.1596555002034,None,l,0,0.47335270047187805,624.1596555002034,None,624.6559218000621,None,,,,,,,18,27,female,18,2022_May_10_1139,Partial repeat,2021.2.3,59.90373420323014,
8,8,0,1,3,3,1,2,1,0,1,0,0,1,0,0,41,41,41,1,0,1,0,,,,,,,,,625.1660018004477,None,625.9294138010591,None,l,1,0.679644700139761,625.9294138010591,None,None,None,,,,,,,18,27,female,18,2022_May_10_1139,Partial repeat,2021.2.3,59.90373420323014,
8,8,0,1,3,3,1,2,1,0,1,0,0,1,0,0,41,41,41,,,,,,,,,,,,,,,,,,,,,,,,,,,,,,18,27,female,18,2022_May_10_1139,Partial repeat,2021.2.3,59.90373420323014,
8,8,0,1,2,3,1,1,0,1,0,1,0,1,0,0,42,42,42,0,0,0,0,,,,,,,626.6402754001319,None,627.1531827002764,None,628.0004173014313,None,l,1,0.8326019998639822,628.0004173014313,None,None,None,,,,,,,18,27,female,18,2022_May_10_1139,Partial repeat,2021.2.3,59.90373420323014,
8,8,0,1,2,3,1,1,0,1,0,1,0,1,0,0,42,42,42,1,0,1,0,,,,,,,,,628.8527950011194,None,629.8203220013529,None,s,1,0.5087638013064861,629.8203220013529,None,None,None,,,,,,,18,27,female,18,2022_May_10_1139,Partial repeat,2021.2.3,59.90373420323014,
8,8,0,1,2,3,1,1,0,1,0,1,0,1,0,0,42,42,42,,,,,,,,,,,,,,,,,,,,,,,,,,,,,,18,27,female,18,2022_May_10_1139,Partial repeat,2021.2.3,59.90373420323014,
8,8,0,1,3,3,1,2,0,1,1,0,0,1,0,0,43,43,43,0,0,0,0,,,,,,,630.3417035005987,None,631.0607156008482,None,632.0747218001634,None,l,1,0.6382555011659861,632.0747218001634,None,None,None,,,,,,,18,27,female,18,2022_May_10_1139,Partial repeat,2021.2.3,59.90373420323014,
8,8,0,1,3,3,1,2,0,1,1,0,0,1,0,0,43,43,43,1,0,1,0,,,,,,,,,632.7356978002936,None,633.7113875001669,None,s,1,0.4096514992415905,633.7113875001669,None,None,None,,,,,,,18,27,female,18,2022_May_10_1139,Partial repeat,2021.2.3,59.90373420323014,
8,8,0,1,3,3,1,2,0,1,1,0,0,1,0,0,43,43,43,,,,,,,,,,,,,,,,,,,,,,,,,,,,,,18,27,female,18,2022_May_10_1139,Partial repeat,2021.2.3,59.90373420323014,
8,8,0,1,2,3,2,2,1,1,0,1,1,1,0,0,44,44,44,0,0,0,0,,,,,,,634.148298099637,None,634.7513117007911,None,635.7488283999264,None,s,1,0.38028630055487156,635.7488283999264,None,None,None,,,,,,,18,27,female,18,2022_May_10_1139,Partial repeat,2021.2.3,59.90373420323014,
8,8,0,1,2,3,2,2,1,1,0,1,1,1,0,0,44,44,44,1,0,1,0,,,,,,,,,636.1380445007235,None,636.9514795001596,None,s,1,0.3455223012715578,636.9514795001596,None,None,None,,,,,,,18,27,female,18,2022_May_10_1139,Partial repeat,2021.2.3,59.90373420323014,
8,8,0,1,2,3,2,2,1,1,0,1,1,1,0,0,44,44,44,,,,,,,,,,,,,,,,,,,,,,,,,,,,,,18,27,female,18,2022_May_10_1139,Partial repeat,2021.2.3,59.90373420323014,
8,8,0,1,3,3,1,1,1,0,1,1,0,1,0,0,45,45,45,0,0,0,0,,,,,,,637.3205307014287,None,638.1412422005087,None,639.0051473006606,None,s,1,0.48389359936118126,639.0051473006606,None,None,None,,,,,,,18,27,female,18,2022_May_10_1139,Partial repeat,2021.2.3,59.90373420323014,
8,8,0,1,3,3,1,1,1,0,1,1,0,1,0,0,45,45,45,1,0,1,0,,,,,,,,,639.4978517014533,None,640.5078491009772,None,l,1,0.4131464008241892,640.5078491009772,None,None,None,,,,,,,18,27,female,18,2022_May_10_1139,Partial repeat,2021.2.3,59.90373420323014,
8,8,0,1,3,3,1,1,1,0,1,1,0,1,0,0,45,45,45,,,,,,,,,,,,,,,,,,,,,,,,,,,,,,18,27,female,18,2022_May_10_1139,Partial repeat,2021.2.3,59.90373420323014,
8,8,0,1,3,3,2,1,0,0,1,0,1,1,0,0,46,46,46,0,0,0,0,,,,,,,640.9431873001158,None,641.7649642005563,None,642.6954216007143,None,l,1,0.5856504999101162,642.6954216007143,None,None,None,,,,,,,18,27,female,18,2022_May_10_1139,Partial repeat,2021.2.3,59.90373420323014,
8,8,0,1,3,3,2,1,0,0,1,0,1,1,0,0,46,46,46,1,0,1,0,,,,,,,,,643.2929880004376,None,644.1652492005378,None,l,1,0.31578129902482033,644.1652492005378,None,None,None,,,,,,,18,27,female,18,2022_May_10_1139,Partial repeat,2021.2.3,59.90373420323014,
8,8,0,1,3,3,2,1,0,0,1,0,1,1,0,0,46,46,46,,,,,,,,,,,,,,,,,,,,,,,,,,,,,,18,27,female,18,2022_May_10_1139,Partial repeat,2021.2.3,59.90373420323014,
8,8,0,1,3,3,1,2,0,0,1,0,1,1,0,0,47,47,47,0,0,0,0,,,,,,,644.4918132014573,None,645.538938799873,None,646.3194092996418,None,l,1,0.4975817985832691,646.3194092996418,None,None,None,,,,,,,18,27,female,18,2022_May_10_1139,Partial repeat,2021.2.3,59.90373420323014,
8,8,0,1,3,3,1,2,0,0,1,0,1,1,0,0,47,47,47,1,0,1,0,,,,,,,,,646.8353839013726,None,647.6051238011569,None,l,1,0.30785539932549,647.6051238011569,None,None,None,,,,,,,18,27,female,18,2022_May_10_1139,Partial repeat,2021.2.3,59.90373420323014,
8,8,0,1,3,3,1,2,0,0,1,0,1,1,0,0,47,47,47,,,,,,,,,,,,,,,,,,,,,,,,,,,,,,18,27,female,18,2022_May_10_1139,Partial repeat,2021.2.3,59.90373420323014,
8,8,0,1,3,2,2,1,0,1,0,0,0,1,0,0,48,48,48,0,0,0,0,,,,,,,647.9375314004719,None,649.2294540014118,None,650.0777675006539,None,l,1,0.5712173003703356,650.0777675006539,None,None,None,,,,,,,18,27,female,18,2022_May_10_1139,Partial repeat,2021.2.3,59.90373420323014,
8,8,0,1,3,2,2,1,0,1,0,0,0,1,0,0,48,48,48,1,0,1,0,,,,,,,,,650.6752752009779,None,651.46363450028,None,s,1,0.40934979915618896,651.46363450028,None,None,None,,,,,,,18,27,female,18,2022_May_10_1139,Partial repeat,2021.2.3,59.90373420323014,
8,8,0,1,3,2,2,1,0,1,0,0,0,1,0,0,48,48,48,,,,,,,,,,,,,,,,,,,,,,,,,,,,,,18,27,female,18,2022_May_10_1139,Partial repeat,2021.2.3,59.90373420323014,
8,8,0,1,2,3,1,1,0,0,0,1,1,1,0,0,49,49,49,0,0,0,0,,,,,,,651.8985556997359,None,652.5693209003657,None,653.385006301105,None,l,1,0.5920042991638184,653.385006301105,None,None,None,,,,,,,18,27,female,18,2022_May_10_1139,Partial repeat,2021.2.3,59.90373420323014,
8,8,0,1,2,3,1,1,0,0,0,1,1,1,0,0,49,49,49,1,0,1,0,,,,,,,,,654.0052393004298,None,654.8358559012413,None,l,1,0.29312950000166893,654.8358559012413,None,None,None,,,,,,,18,27,female,18,2022_May_10_1139,Partial repeat,2021.2.3,59.90373420323014,
8,8,0,1,2,3,1,1,0,0,0,1,1,1,0,0,49,49,49,,,,,,,,,,,,,,,,,,,,,,,,,,,,,,18,27,female,18,2022_May_10_1139,Partial repeat,2021.2.3,59.90373420323014,
8,8,0,1,3,2,2,2,0,0,0,1,1,1,0,0,50,50,50,0,0,0,0,,,,,,,655.1460148002952,None,655.7921425998211,None,656.5556864999235,None,l,1,0.45329760015010834,656.5556864999235,None,None,None,,,,,,,18,27,female,18,2022_May_10_1139,Partial repeat,2021.2.3,59.90373420323014,
8,8,0,1,3,2,2,2,0,0,0,1,1,1,0,0,50,50,50,1,0,1,0,,,,,,,,,657.0303939003497,None,657.8599370010197,None,l,1,0.28501380048692226,657.8599370010197,None,None,None,,,,,,,18,27,female,18,2022_May_10_1139,Partial repeat,2021.2.3,59.90373420323014,
8,8,0,1,3,2,2,2,0,0,0,1,1,1,0,0,50,50,50,,,,,,,,,,,,,,,,,,,,,,,,,,,,,,18,27,female,18,2022_May_10_1139,Partial repeat,2021.2.3,59.90373420323014,
8,8,0,1,3,2,1,1,0,0,0,1,1,1,0,0,51,51,51,0,0,0,0,,,,,,,658.1689523011446,None,658.8815224003047,None,659.8289577998221,None,l,1,0.42003759928047657,659.8289577998221,None,None,None,,,,,,,18,27,female,18,2022_May_10_1139,Partial repeat,2021.2.3,59.90373420323014,
8,8,0,1,3,2,1,1,0,0,0,1,1,1,0,0,51,51,51,1,0,1,0,,,,,,,,,660.2737162001431,None,661.1484204996377,None,l,1,0.29255570098757744,661.1484204996377,None,None,None,,,,,,,18,27,female,18,2022_May_10_1139,Partial repeat,2021.2.3,59.90373420323014,
8,8,0,1,3,2,1,1,0,0,0,1,1,1,0,0,51,51,51,,,,,,,,,,,,,,,,,,,,,,,,,,,,,,18,27,female,18,2022_May_10_1139,Partial repeat,2021.2.3,59.90373420323014,
8,8,0,1,2,3,1,2,1,1,0,0,1,1,0,0,52,52,52,0,0,0,0,,,,,,,661.4558233004063,None,662.0209434013814,None,662.7689840011299,None,s,1,0.4719933997839689,662.7689840011299,None,None,None,,,,,,,18,27,female,18,2022_May_10_1139,Partial repeat,2021.2.3,59.90373420323014,
8,8,0,1,2,3,1,2,1,1,0,0,1,1,0,0,52,52,52,1,0,1,0,,,,,,,,,663.2661815006286,None,664.2375269010663,None,s,1,0.29145070165395737,664.2375269010663,None,None,None,,,,,,,18,27,female,18,2022_May_10_1139,Partial repeat,2021.2.3,59.90373420323014,
8,8,0,1,2,3,1,2,1,1,0,0,1,1,0,0,52,52,52,,,,,,,,,,,,,,,,,,,,,,,,,,,,,,18,27,female,18,2022_May_10_1139,Partial repeat,2021.2.3,59.90373420323014,
8,8,0,1,2,2,2,1,1,0,1,0,0,1,0,0,53,53,53,0,0,0,0,,,,,,,664.5466253012419,None,665.0435643997043,None,665.8906359001994,None,s,1,0.42234609834849834,665.8906359001994,None,None,None,,,,,,,18,27,female,18,2022_May_10_1139,Partial repeat,2021.2.3,59.90373420323014,
8,8,0,1,2,2,2,1,1,0,1,0,0,1,0,0,53,53,53,1,0,1,0,,,,,,,,,666.3244812004268,None,667.0927594006062,None,l,1,0.5803043991327286,667.0927594006062,None,None,None,,,,,,,18,27,female,18,2022_May_10_1139,Partial repeat,2021.2.3,59.90373420323014,
8,8,0,1,2,2,2,1,1,0,1,0,0,1,0,0,53,53,53,,,,,,,,,,,,,,,,,,,,,,,,,,,,,,18,27,female,18,2022_May_10_1139,Partial repeat,2021.2.3,59.90373420323014,
8,8,0,1,3,3,2,2,0,1,1,1,0,1,0,0,54,54,54,0,0,0,0,,,,,,,667.7028813008219,None,669.08477990143,None,669.8654319997877,None,l,1,0.6315919999033213,669.8654319997877,None,None,None,,,,,,,18,27,female,18,2022_May_10_1139,Partial repeat,2021.2.3,59.90373420323014,
8,8,0,1,3,3,2,2,0,1,1,1,0,1,0,0,54,54,54,1,0,1,0,,,,,,,,,670.5047898013145,None,671.3681415002793,None,s,1,0.38484330102801323,671.3681415002793,None,None,None,,,,,,,18,27,female,18,2022_May_10_1139,Partial repeat,2021.2.3,59.90373420323014,
8,8,0,1,3,3,2,2,0,1,1,1,0,1,0,0,54,54,54,,,,,,,,,,,,,,,,,,,,,,,,,,,,,,18,27,female,18,2022_May_10_1139,Partial repeat,2021.2.3,59.90373420323014,
8,8,0,1,3,3,2,2,1,0,1,1,0,1,0,0,55,55,55,0,0,0,0,,,,,,,671.7838020008057,None,672.274298099801,None,673.2891610004008,None,s,1,0.4158142991364002,673.2891610004008,None,None,None,,,,,,,18,27,female,18,2022_May_10_1139,Partial repeat,2021.2.3,59.90373420323014,
8,8,0,1,3,3,2,2,1,0,1,1,0,1,0,0,55,55,55,1,0,1,0,,,,,,,,,673.7235337011516,None,674.5574316997081,None,l,1,0.3635603003203869,674.5574316997081,None,None,None,,,,,,,18,27,female,18,2022_May_10_1139,Partial repeat,2021.2.3,59.90373420323014,
8,8,0,1,3,3,2,2,1,0,1,1,0,1,0,0,55,55,55,,,,,,,,,,,,,,,,,,,,,,,,,,,,,,18,27,female,18,2022_May_10_1139,Partial repeat,2021.2.3,59.90373420323014,
8,8,0,1,2,2,2,2,0,1,1,1,0,1,0,0,56,56,56,0,0,0,0,,,,,,,674.9493132997304,None,675.4471289999783,None,676.3776698000729,None,l,1,0.42328310012817383,676.3776698000729,None,None,None,,,,,,,18,27,female,18,2022_May_10_1139,Partial repeat,2021.2.3,59.90373420323014,
8,8,0,1,2,2,2,2,0,1,1,1,0,1,0,0,56,56,56,1,0,1,0,,,,,,,,,676.8103708010167,None,677.8137113004923,None,s,1,0.33129640109837055,677.8137113004923,None,None,None,,,,,,,18,27,female,18,2022_May_10_1139,Partial repeat,2021.2.3,59.90373420323014,
8,8,0,1,2,2,2,2,0,1,1,1,0,1,0,0,56,56,56,,,,,,,,,,,,,,,,,,,,,,,,,,,,,,18,27,female,18,2022_May_10_1139,Partial repeat,2021.2.3,59.90373420323014,
8,8,0,1,2,2,1,2,0,0,1,0,1,1,0,0,57,57,57,0,0,0,0,,,,,,,678.1667970009148,None,678.7201809007674,None,679.4836769998074,None,l,1,0.41329709999263287,679.4836769998074,None,None,None,,,,,,,18,27,female,18,2022_May_10_1139,Partial repeat,2021.2.3,59.90373420323014,
8,8,0,1,2,2,1,2,0,0,1,0,1,1,0,0,57,57,57,1,0,1,0,,,,,,,,,679.9141787011176,None,680.7860364001244,None,l,1,0.27892900072038174,680.7860364001244,None,None,None,,,,,,,18,27,female,18,2022_May_10_1139,Partial repeat,2021.2.3,59.90373420323014,
8,8,0,1,2,2,1,2,0,0,1,0,1,1,0,0,57,57,57,,,,,,,,,,,,,,,,,,,,,,,,,,,,,,18,27,female,18,2022_May_10_1139,Partial repeat,2021.2.3,59.90373420323014,
8,8,0,1,2,3,2,1,1,1,0,0,1,1,0,0,58,58,58,0,0,0,0,,,,,,,681.0958012007177,None,681.6091389004141,None,682.422857100144,None,s,1,0.810113400220871,682.422857100144,None,None,None,,,,,,,18,27,female,18,2022_May_10_1139,Partial repeat,2021.2.3,59.90373420323014,
8,8,0,1,2,3,2,1,1,1,0,0,1,1,0,0,58,58,58,1,0,1,0,,,,,,,,,683.2587720006704,None,684.092924401164,None,s,1,0.27606119960546494,684.092924401164,None,None,None,,,,,,,18,27,female,18,2022_May_10_1139,Partial repeat,2021.2.3,59.90373420323014,
8,8,0,1,2,3,2,1,1,1,0,0,1,1,0,0,58,58,58,,,,,,,,,,,,,,,,,,,,,,,,,,,,,,18,27,female,18,2022_May_10_1139,Partial repeat,2021.2.3,59.90373420323014,
8,8,0,1,2,2,1,2,1,1,1,0,1,1,0,0,59,59,59,0,0,0,0,,,,,,,684.3828727006912,None,684.9322335012257,None,685.9463066011667,None,s,1,0.47066530026495457,685.9463066011667,None,None,None,,,,,,,18,27,female,18,2022_May_10_1139,Partial repeat,2021.2.3,59.90373420323014,
8,8,0,1,2,2,1,2,1,1,1,0,1,1,0,0,59,59,59,1,0,1,0,,,,,,,,,686.4395786002278,None,687.4494132008404,None,s,1,0.32754690013825893,687.4494132008404,None,None,None,,,,,,,18,27,female,18,2022_May_10_1139,Partial repeat,2021.2.3,59.90373420323014,
8,8,0,1,2,2,1,2,1,1,1,0,1,1,0,0,59,59,59,,,,,,,,,,,,,,,,,,,,,,,,,,,,,,18,27,female,18,2022_May_10_1139,Partial repeat,2021.2.3,59.90373420323014,
8,8,0,1,3,3,2,1,0,1,1,0,0,1,0,0,60,60,60,0,0,0,0,,,,,,,687.8018445000052,None,688.2553681004792,None,689.269408101216,None,l,1,0.37959760054945946,689.269408101216,None,None,None,,,,,,,18,27,female,18,2022_May_10_1139,Partial repeat,2021.2.3,59.90373420323014,
8,8,0,1,3,3,2,1,0,1,1,0,0,1,0,0,60,60,60,1,0,1,0,,,,,,,,,689.6779471002519,None,690.6888488009572,None,s,1,0.3521209005266428,690.6888488009572,None,None,None,,,,,,,18,27,female,18,2022_May_10_1139,Partial repeat,2021.2.3,59.90373420323014,
8,8,0,1,3,3,2,1,0,1,1,0,0,1,0,0,60,60,60,,,,,,,,,,,,,,,,,,,,,,,,,,,,,,18,27,female,18,2022_May_10_1139,Partial repeat,2021.2.3,59.90373420323014,
8,8,0,1,3,2,1,1,1,1,0,1,1,1,0,0,61,61,61,0,0,0,0,,,,,,,691.0556800011545,None,691.6453363001347,None,692.5257633011788,None,s,1,0.5152473989874125,692.5257633011788,None,None,None,,,,,,,18,27,female,18,2022_May_10_1139,Partial repeat,2021.2.3,59.90373420323014,
8,8,0,1,3,2,1,1,1,1,0,1,1,1,0,0,61,61,61,1,0,1,0,,,,,,,,,693.0695623010397,None,693.8285370003432,None,s,1,0.3004600014537573,693.8285370003432,None,None,None,,,,,,,18,27,female,18,2022_May_10_1139,Partial repeat,2021.2.3,59.90373420323014,
8,8,0,1,3,2,1,1,1,1,0,1,1,1,0,0,61,61,61,,,,,,,,,,,,,,,,,,,,,,,,,,,,,,18,27,female,18,2022_May_10_1139,Partial repeat,2021.2.3,59.90373420323014,
8,8,0,1,3,2,1,2,0,0,0,0,1,1,0,0,62,62,62,0,0,0,0,,,,,,,694.1595392003655,None,694.6845159996301,None,695.6985012013465,None,l,1,0.390463599935174,695.6985012013465,None,None,None,,,,,,,18,27,female,18,2022_May_10_1139,Partial repeat,2021.2.3,59.90373420323014,
8,8,0,1,3,2,1,2,0,0,0,0,1,1,0,0,62,62,62,1,0,1,0,,,,,,,,,696.1050030998886,None,697.101821500808,None,l,1,0.2911387011408806,697.101821500808,None,None,None,,,,,,,18,27,female,18,2022_May_10_1139,Partial repeat,2021.2.3,59.90373420323014,
8,8,0,1,3,2,1,2,0,0,0,0,1,1,0,0,62,62,62,,,,,,,,,,,,,,,,,,,,,,,,,,,,,,18,27,female,18,2022_May_10_1139,Partial repeat,2021.2.3,59.90373420323014,
8,8,0,1,3,3,1,1,1,1,1,1,1,1,0,0,63,63,63,0,0,0,0,,,,,,,697.410438099876,None,697.940821999684,None,698.9048923999071,None,s,1,0.7600503005087376,698.9048923999071,None,None,None,,,,,,,18,27,female,18,2022_May_10_1139,Partial repeat,2021.2.3,59.90373420323014,
8,8,0,1,3,3,1,1,1,1,1,1,1,1,0,0,63,63,63,1,0,1,0,,,,,,,,,699.6924818009138,None,700.5583006013185,None,s,1,0.35466150008141994,700.5583006013185,None,None,None,,,,,,,18,27,female,18,2022_May_10_1139,Partial repeat,2021.2.3,59.90373420323014,
8,8,0,1,3,3,1,1,1,1,1,1,1,1,0,0,63,63,63,,,,,,,,,,,,,,,,,,,,,,,,,,,,,,18,27,female,18,2022_May_10_1139,Partial repeat,2021.2.3,59.90373420323014,
1,5,0,1,2,2,1,1,0,1,1,1,0,0,0,0,64,64,64,0,0,0,0,,,,,,,709.8408802002668,None,713.1369572002441,None,714.0846712999046,None,l,1,1.0842857006937265,714.0846712999046,None,None,None,,,,,,,18,27,female,18,2022_May_10_1139,Partial repeat,2021.2.3,59.90373420323014,
1,5,0,1,2,2,1,1,0,1,1,1,0,0,0,0,64,64,64,1,0,1,0,,,,,,,,,715.1782470010221,None,716.1718353014439,None,s,1,0.6451259013265371,716.1718353014439,None,None,None,,,,,,,18,27,female,18,2022_May_10_1139,Partial repeat,2021.2.3,59.90373420323014,
1,5,0,1,2,2,1,1,0,1,1,1,0,0,0,0,64,64,64,,,,,,,,,,,,,,,,,,,,,,,,,,,,,,18,27,female,18,2022_May_10_1139,Partial repeat,2021.2.3,59.90373420323014,
6,8,0,1,2,3,2,1,1,0,0,0,0,0,0,0,65,65,65,0,0,0,0,,,,,,,716.8394899014384,None,717.4622306004167,None,718.2761505004019,None,s,1,0.6208165995776653,718.2761505004019,None,None,None,,,,,,,18,27,female,18,2022_May_10_1139,Partial repeat,2021.2.3,59.90373420323014,
6,8,0,1,2,3,2,1,1,0,0,0,0,0,0,0,65,65,65,1,0,1,0,,,,,,,,,718.9209682997316,None,719.6454601008445,None,l,1,0.5314565990120173,719.6454601008445,None,None,None,,,,,,,18,27,female,18,2022_May_10_1139,Partial repeat,2021.2.3,59.90373420323014,
6,8,0,1,2,3,2,1,1,0,0,0,0,0,0,0,65,65,65,,,,,,,,,,,,,,,,,,,,,,,,,,,,,,18,27,female,18,2022_May_10_1139,Partial repeat,2021.2.3,59.90373420323014,
2,3,0,1,3,3,1,1,0,1,1,1,0,0,0,0,66,66,66,0,0,0,0,,,,,,,720.1945080999285,None,721.1861284002662,None,721.916360700503,None,l,1,0.5886751990765333,721.916360700503,None,None,None,,,,,,,18,27,female,18,2022_May_10_1139,Partial repeat,2021.2.3,59.90373420323014,
2,3,0,1,3,3,1,1,0,1,1,1,0,0,0,0,66,66,66,1,0,1,0,,,,,,,,,722.5153011996299,None,723.3524587005377,None,s,1,1.0084982011467218,723.3524587005377,None,None,None,,,,,,,18,27,female,18,2022_May_10_1139,Partial repeat,2021.2.3,59.90373420323014,
2,3,0,1,3,3,1,1,0,1,1,1,0,0,0,0,66,66,66,,,,,,,,,,,,,,,,,,,,,,,,,,,,,,18,27,female,18,2022_May_10_1139,Partial repeat,2021.2.3,59.90373420323014,
3,1,0,1,2,2,2,2,1,1,1,1,1,0,0,0,67,67,67,0,0,0,0,,,,,,,724.3717027008533,None,725.2940631005913,None,726.2256859000772,None,s,1,0.5592651013284922,726.2256859000772,None,None,None,,,,,,,18,27,female,18,2022_May_10_1139,Partial repeat,2021.2.3,59.90373420323014,
3,1,0,1,2,2,2,2,1,1,1,1,1,0,0,0,67,67,67,1,0,1,0,,,,,,,,,726.8017268013209,None,727.727570200339,None,s,1,0.40133720077574253,727.727570200339,None,None,None,,,,,,,18,27,female,18,2022_May_10_1139,Partial repeat,2021.2.3,59.90373420323014,
3,1,0,1,2,2,2,2,1,1,1,1,1,0,0,0,67,67,67,,,,,,,,,,,,,,,,,,,,,,,,,,,,,,18,27,female,18,2022_May_10_1139,Partial repeat,2021.2.3,59.90373420323014,
2,8,0,1,2,2,1,2,1,1,1,0,1,0,0,0,68,68,68,0,0,0,0,,,,,,,728.1465394999832,None,728.7341032009572,None,729.6655512005091,None,s,1,0.7754354998469353,729.6655512005091,None,None,None,,,,,,,18,27,female,18,2022_May_10_1139,Partial repeat,2021.2.3,59.90373420323014,
2,8,0,1,2,2,1,2,1,1,1,0,1,0,0,0,68,68,68,1,0,1,0,,,,,,,,,730.4629450011998,None,731.4515097998083,None,s,1,0.47743389941751957,731.4515097998083,None,None,None,,,,,,,18,27,female,18,2022_May_10_1139,Partial repeat,2021.2.3,59.90373420323014,
2,8,0,1,2,2,1,2,1,1,1,0,1,0,0,0,68,68,68,,,,,,,,,,,,,,,,,,,,,,,,,,,,,,18,27,female,18,2022_May_10_1139,Partial repeat,2021.2.3,59.90373420323014,
4,8,0,1,3,3,1,1,0,0,1,1,1,0,0,0,69,69,69,0,0,0,0,,,,,,,731.9499192014337,None,732.7920172009617,None,733.6396842002869,None,s,0,0.5533332992345095,733.6396842002869,None,734.2203444000334,None,,,,,,,18,27,female,18,2022_May_10_1139,Partial repeat,2021.2.3,59.90373420323014,
4,8,0,1,3,3,1,1,0,0,1,1,1,0,0,0,69,69,69,1,0,1,0,,,,,,,,,734.7291385009885,None,735.5595941003412,None,l,1,0.553345900028944,735.5595941003412,None,None,None,,,,,,,18,27,female,18,2022_May_10_1139,Partial repeat,2021.2.3,59.90373420323014,
4,8,0,1,3,3,1,1,0,0,1,1,1,0,0,0,69,69,69,,,,,,,,,,,,,,,,,,,,,,,,,,,,,,18,27,female,18,2022_May_10_1139,Partial repeat,2021.2.3,59.90373420323014,
7,5,0,1,3,3,2,1,1,0,1,0,0,0,0,0,70,70,70,0,0,0,0,,,,,,,736.1294045001268,None,736.515789501369,None,737.3963757008314,None,s,1,0.6125464010983706,737.3963757008314,None,None,None,,,,,,,18,27,female,18,2022_May_10_1139,Partial repeat,2021.2.3,59.90373420323014,
7,5,0,1,3,3,2,1,1,0,1,0,0,0,0,0,70,70,70,1,0,1,0,,,,,,,,,738.0248643010855,None,738.9997869003564,None,l,1,0.6331578996032476,738.9997869003564,None,None,None,,,,,,,18,27,female,18,2022_May_10_1139,Partial repeat,2021.2.3,59.90373420323014,
7,5,0,1,3,3,2,1,1,0,1,0,0,0,0,0,70,70,70,,,,,,,,,,,,,,,,,,,,,,,,,,,,,,18,27,female,18,2022_May_10_1139,Partial repeat,2021.2.3,59.90373420323014,
8,8,0,1,2,2,1,1,1,0,1,1,0,0,0,0,71,71,71,0,0,0,0,,,,,,,739.646997300908,None,740.1229494996369,None,740.9707382004708,None,s,1,0.6861723009496927,740.9707382004708,None,None,None,,,,,,,18,27,female,18,2022_May_10_1139,Partial repeat,2021.2.3,59.90373420323014,
8,8,0,1,2,2,1,1,1,0,1,1,0,0,0,0,71,71,71,1,0,1,0,,,,,,,,,741.6819733008742,None,742.6736361999065,None,l,1,0.6393149010837078,742.6736361999065,None,None,None,,,,,,,18,27,female,18,2022_May_10_1139,Partial repeat,2021.2.3,59.90373420323014,
8,8,0,1,2,2,1,1,1,0,1,1,0,0,0,0,71,71,71,,,,,,,,,,,,,,,,,,,,,,,,,,,,,,18,27,female,18,2022_May_10_1139,Partial repeat,2021.2.3,59.90373420323014,
2,6,0,1,3,2,2,1,0,1,0,0,0,0,0,0,72,72,72,0,0,0,0,,,,,,,743.340966200456,None,743.7466340996325,None,744.4937644004822,None,l,1,0.45917570032179356,744.4937644004822,None,None,None,,,,,,,18,27,female,18,2022_May_10_1139,Partial repeat,2021.2.3,59.90373420323014,
2,6,0,1,3,2,2,1,0,1,0,0,0,0,0,0,72,72,72,1,0,1,0,,,,,,,,,744.9676860999316,None,745.8966097012162,None,s,1,1.2083342988044024,745.8966097012162,None,None,None,,,,,,,18,27,female,18,2022_May_10_1139,Partial repeat,2021.2.3,59.90373420323014,
2,6,0,1,3,2,2,1,0,1,0,0,0,0,0,0,72,72,72,,,,,,,,,,,,,,,,,,,,,,,,,,,,,,18,27,female,18,2022_May_10_1139,Partial repeat,2021.2.3,59.90373420323014,
5,3,0,1,2,3,2,1,0,0,0,0,1,0,0,0,73,73,73,0,0,0,0,,,,,,,747.1319508012384,None,748.6894433014095,None,749.5867494996637,None,l,1,0.7182847000658512,749.5867494996637,None,None,None,,,,,,,18,27,female,18,2022_May_10_1139,Partial repeat,2021.2.3,59.90373420323014,
5,3,0,1,2,3,2,1,0,0,0,0,1,0,0,0,73,73,73,1,0,1,0,,,,,,,,,750.3159477002919,None,751.1567051000893,None,l,1,0.5402347017079592,751.1567051000893,None,None,None,,,,,,,18,27,female,18,2022_May_10_1139,Partial repeat,2021.2.3,59.90373420323014,
5,3,0,1,2,3,2,1,0,0,0,0,1,0,0,0,73,73,73,,,,,,,,,,,,,,,,,,,,,,,,,,,,,,18,27,female,18,2022_May_10_1139,Partial repeat,2021.2.3,59.90373420323014,
5,4,0,1,2,3,2,1,0,1,0,0,0,0,0,0,74,74,74,0,0,0,0,,,,,,,751.7183574009687,None,752.1629665009677,None,752.9266336001456,None,l,1,0.5623080004006624,752.9266336001456,None,None,None,,,,,,,18,27,female,18,2022_May_10_1139,Partial repeat,2021.2.3,59.90373420323014,
5,4,0,1,2,3,2,1,0,1,0,0,0,0,0,0,74,74,74,1,0,1,0,,,,,,,,,753.5060322005302,None,754.502926601097,None,s,1,0.5140103995800018,754.502926601097,None,None,None,,,,,,,18,27,female,18,2022_May_10_1139,Partial repeat,2021.2.3,59.90373420323014,
5,4,0,1,2,3,2,1,0,1,0,0,0,0,0,0,74,74,74,,,,,,,,,,,,,,,,,,,,,,,,,,,,,,18,27,female,18,2022_May_10_1139,Partial repeat,2021.2.3,59.90373420323014,
6,1,0,1,3,2,2,2,0,0,0,1,1,0,0,0,75,75,75,0,0,0,0,,,,,,,755.043075799942,None,755.5529893003404,None,756.283536400646,None,l,1,0.501408901065588,756.283536400646,None,None,None,,,,,,,18,27,female,18,2022_May_10_1139,Partial repeat,2021.2.3,59.90373420323014,
6,1,0,1,3,2,2,2,0,0,0,1,1,0,0,0,75,75,75,1,0,1,0,,,,,,,,,756.7988171000034,None,757.6859217006713,None,l,1,0.48300849832594395,757.6859217006713,None,None,None,,,,,,,18,27,female,18,2022_May_10_1139,Partial repeat,2021.2.3,59.90373420323014,
6,1,0,1,3,2,2,2,0,0,0,1,1,0,0,0,75,75,75,,,,,,,,,,,,,,,,,,,,,,,,,,,,,,18,27,female,18,2022_May_10_1139,Partial repeat,2021.2.3,59.90373420323014,
1,7,0,1,2,3,2,2,0,0,0,1,1,0,0,0,76,76,76,0,0,0,0,,,,,,,758.1849547009915,None,758.6256013996899,None,759.6395105998963,None,l,1,0.3694219011813402,759.6395105998963,None,None,None,,,,,,,18,27,female,18,2022_May_10_1139,Partial repeat,2021.2.3,59.90373420323014,
1,7,0,1,2,3,2,2,0,0,0,1,1,0,0,0,76,76,76,1,0,1,0,,,,,,,,,760.0277134999633,None,760.8921675998718,None,l,1,0.4527864996343851,760.8921675998718,None,None,None,,,,,,,18,27,female,18,2022_May_10_1139,Partial repeat,2021.2.3,59.90373420323014,
1,7,0,1,2,3,2,2,0,0,0,1,1,0,0,0,76,76,76,,,,,,,,,,,,,,,,,,,,,,,,,,,,,,18,27,female,18,2022_May_10_1139,Partial repeat,2021.2.3,59.90373420323014,
7,4,0,1,3,2,2,2,1,0,0,1,0,0,0,0,77,77,77,0,0,0,0,,,,,,,761.3713918998837,None,761.8485774006695,None,762.6290547996759,None,s,1,0.5479709003120661,762.6290547996759,None,None,None,,,,,,,18,27,female,18,2022_May_10_1139,Partial repeat,2021.2.3,59.90373420323014,
7,4,0,1,3,2,2,2,1,0,0,1,0,0,0,0,77,77,77,1,0,1,0,,,,,,,,,763.1879551000893,None,764.1151178013533,None,l,1,0.789912398904562,764.1151178013533,None,None,None,,,,,,,18,27,female,18,2022_May_10_1139,Partial repeat,2021.2.3,59.90373420323014,
7,4,0,1,3,2,2,2,1,0,0,1,0,0,0,0,77,77,77,,,,,,,,,,,,,,,,,,,,,,,,,,,,,,18,27,female,18,2022_May_10_1139,Partial repeat,2021.2.3,59.90373420323014,
8,4,0,1,3,2,1,1,1,0,0,1,0,0,0,0,78,78,78,0,0,0,0,,,,,,,764.9185611009598,None,765.2885916996747,None,766.0530930012465,None,s,1,0.6118774004280567,766.0530930012465,None,None,None,,,,,,,18,27,female,18,2022_May_10_1139,Partial repeat,2021.2.3,59.90373420323014,
8,4,0,1,3,2,1,1,1,0,0,1,0,0,0,0,78,78,78,1,0,1,0,,,,,,,,,766.6939443014562,None,767.6728972997516,None,l,1,0.5121056996285915,767.6728972997516,None,None,None,,,,,,,18,27,female,18,2022_May_10_1139,Partial repeat,2021.2.3,59.90373420323014,
8,4,0,1,3,2,1,1,1,0,0,1,0,0,0,0,78,78,78,,,,,,,,,,,,,,,,,,,,,,,,,,,,,,18,27,female,18,2022_May_10_1139,Partial repeat,2021.2.3,59.90373420323014,
8,3,0,1,2,2,2,1,0,0,1,0,1,0,0,0,79,79,79,0,0,0,0,,,,,,,768.2152504008263,None,768.5949621014297,None,769.341975800693,None,l,1,0.6110804993659258,769.341975800693,None,None,None,,,,,,,18,27,female,18,2022_May_10_1139,Partial repeat,2021.2.3,59.90373420323014,
8,3,0,1,2,2,2,1,0,0,1,0,1,0,0,0,79,79,79,1,0,1,0,,,,,,,,,769.9636566005647,None,770.7448920998722,None,l,1,0.5600944012403488,770.7448920998722,None,None,None,,,,,,,18,27,female,18,2022_May_10_1139,Partial repeat,2021.2.3,59.90373420323014,
8,3,0,1,2,2,2,1,0,0,1,0,1,0,0,0,79,79,79,,,,,,,,,,,,,,,,,,,,,,,,,,,,,,18,27,female,18,2022_May_10_1139,Partial repeat,2021.2.3,59.90373420323014,
3,3,0,1,3,3,1,1,1,0,1,1,0,0,0,0,80,80,80,0,0,0,0,,,,,,,771.3334136996418,None,771.7845972012728,None,772.5147166009992,None,s,1,0.5262132007628679,772.5147166009992,None,None,None,,,,,,,18,27,female,18,2022_May_10_1139,Partial repeat,2021.2.3,59.90373420323014,
3,3,0,1,3,3,1,1,1,0,1,1,0,0,0,0,80,80,80,1,0,1,0,,,,,,,,,773.0535761006176,None,773.8005184996873,None,l,1,0.5124120004475117,773.8005184996873,None,None,None,,,,,,,18,27,female,18,2022_May_10_1139,Partial repeat,2021.2.3,59.90373420323014,
3,3,0,1,3,3,1,1,1,0,1,1,0,0,0,0,80,80,80,,,,,,,,,,,,,,,,,,,,,,,,,,,,,,18,27,female,18,2022_May_10_1139,Partial repeat,2021.2.3,59.90373420323014,
2,2,0,1,2,2,1,1,0,0,1,1,1,0,0,0,81,81,81,0,0,0,0,,,,,,,774.3412266001105,None,774.6233582012355,None,775.5050591006875,None,l,1,0.5278347004204988,775.5050591006875,None,None,None,,,,,,,18,27,female,18,2022_May_10_1139,Partial repeat,2021.2.3,59.90373420323014,
2,2,0,1,2,2,1,1,0,0,1,1,1,0,0,0,81,81,81,1,0,1,0,,,,,,,,,776.0606244001538,None,776.8732092007995,None,l,1,0.43971730023622513,776.8732092007995,None,None,None,,,,,,,18,27,female,18,2022_May_10_1139,Partial repeat,2021.2.3,59.90373420323014,
2,2,0,1,2,2,1,1,0,0,1,1,1,0,0,0,81,81,81,,,,,,,,,,,,,,,,,,,,,,,,,,,,,,18,27,female,18,2022_May_10_1139,Partial repeat,2021.2.3,59.90373420323014,
8,6,0,1,3,3,2,1,1,1,1,0,1,0,0,0,82,82,82,0,0,0,0,,,,,,,777.3292509000748,None,777.7127640005201,None,778.4428377002478,None,s,1,0.47809189930558205,778.4428377002478,None,None,None,,,,,,,18,27,female,18,2022_May_10_1139,Partial repeat,2021.2.3,59.90373420323014,
8,6,0,1,3,3,2,1,1,1,1,0,1,0,0,0,82,82,82,1,0,1,0,,,,,,,,,778.9361576009542,None,779.67865380086,None,s,1,0.5862341988831758,779.67865380086,None,None,None,,,,,,,18,27,female,18,2022_May_10_1139,Partial repeat,2021.2.3,59.90373420323014,
8,6,0,1,3,3,2,1,1,1,1,0,1,0,0,0,82,82,82,,,,,,,,,,,,,,,,,,,,,,,,,,,,,,18,27,female,18,2022_May_10_1139,Partial repeat,2021.2.3,59.90373420323014,
8,2,0,1,3,3,1,2,1,1,1,0,1,0,0,0,83,83,83,0,0,0,0,,,,,,,780.2897443007678,None,780.6684031002223,None,781.482369100675,None,s,1,0.5665495004504919,781.482369100675,None,None,None,,,,,,,18,27,female,18,2022_May_10_1139,Partial repeat,2021.2.3,59.90373420323014,
8,2,0,1,3,3,1,2,1,1,1,0,1,0,0,0,83,83,83,1,0,1,0,,,,,,,,,782.0633292999119,None,782.8682578001171,None,s,1,0.5246571991592646,782.8682578001171,None,None,None,,,,,,,18,27,female,18,2022_May_10_1139,Partial repeat,2021.2.3,59.90373420323014,
8,2,0,1,3,3,1,2,1,1,1,0,1,0,0,0,83,83,83,,,,,,,,,,,,,,,,,,,,,,,,,,,,,,18,27,female,18,2022_May_10_1139,Partial repeat,2021.2.3,59.90373420323014,
8,7,0,1,2,3,1,2,0,1,0,0,0,0,0,0,84,84,84,0,0,0,0,,,,,,,783.4096662010998,None,783.8246549014002,None,784.688450301066,None,l,1,0.4964800011366606,784.688450301066,None,None,None,,,,,,,18,27,female,18,2022_May_10_1139,Partial repeat,2021.2.3,59.90373420323014,
8,7,0,1,2,3,1,2,0,1,0,0,0,0,0,0,84,84,84,1,0,1,0,,,,,,,,,785.2010604012758,None,785.9575126003474,None,s,1,0.45140389911830425,785.9575126003474,None,None,None,,,,,,,18,27,female,18,2022_May_10_1139,Partial repeat,2021.2.3,59.90373420323014,
8,7,0,1,2,3,1,2,0,1,0,0,0,0,0,0,84,84,84,,,,,,,,,,,,,,,,,,,,,,,,,,,,,,18,27,female,18,2022_May_10_1139,Partial repeat,2021.2.3,59.90373420323014,
1,1,0,1,2,2,2,1,1,1,1,0,1,0,0,0,85,85,85,0,0,0,0,,,,,,,786.4337446000427,None,786.8305003996938,None,787.6623734012246,None,s,1,0.6185371000319719,787.6623734012246,None,None,None,,,,,,,18,27,female,18,2022_May_10_1139,Partial repeat,2021.2.3,59.90373420323014,
1,1,0,1,2,2,2,1,1,1,1,0,1,0,0,0,85,85,85,1,0,1,0,,,,,,,,,788.3063741996884,None,789.247265599668,None,s,1,0.5536008011549711,789.247265599668,None,None,None,,,,,,,18,27,female,18,2022_May_10_1139,Partial repeat,2021.2.3,59.90373420323014,
1,1,0,1,2,2,2,1,1,1,1,0,1,0,0,0,85,85,85,,,,,,,,,,,,,,,,,,,,,,,,,,,,,,18,27,female,18,2022_May_10_1139,Partial repeat,2021.2.3,59.90373420323014,
3,5,0,1,2,2,1,2,0,1,1,0,0,0,0,0,86,86,86,0,0,0,0,,,,,,,789.8312050011009,None,790.3038820009679,None,791.1690787002444,None,l,1,0.6558372005820274,791.1690787002444,None,None,None,,,,,,,18,27,female,18,2022_May_10_1139,Partial repeat,2021.2.3,59.90373420323014,
3,5,0,1,2,2,1,2,0,1,1,0,0,0,0,0,86,86,86,1,0,1,0,,,,,,,,,791.8494320008904,None,792.7713358998299,None,s,1,0.8135809004306793,792.7713358998299,None,None,None,,,,,,,18,27,female,18,2022_May_10_1139,Partial repeat,2021.2.3,59.90373420323014,
3,5,0,1,2,2,1,2,0,1,1,0,0,0,0,0,86,86,86,,,,,,,,,,,,,,,,,,,,,,,,,,,,,,18,27,female,18,2022_May_10_1139,Partial repeat,2021.2.3,59.90373420323014,
2,4,0,1,2,3,1,2,1,1,0,0,1,0,0,0,87,87,87,0,0,0,0,,,,,,,793.6130557004362,None,794.0111635997891,None,794.8248158004135,None,s,1,0.6081637013703585,794.8248158004135,None,None,None,,,,,,,18,27,female,18,2022_May_10_1139,Partial repeat,2021.2.3,59.90373420323014,
2,4,0,1,2,3,1,2,1,1,0,0,1,0,0,0,87,87,87,1,0,1,0,,,,,,,,,795.4501454997808,None,796.3454711008817,None,s,1,0.5515302009880543,796.3454711008817,None,None,None,,,,,,,18,27,female,18,2022_May_10_1139,Partial repeat,2021.2.3,59.90373420323014,
2,4,0,1,2,3,1,2,1,1,0,0,1,0,0,0,87,87,87,,,,,,,,,,,,,,,,,,,,,,,,,,,,,,18,27,female,18,2022_May_10_1139,Partial repeat,2021.2.3,59.90373420323014,
6,4,0,1,2,2,2,2,0,0,1,1,1,0,0,0,88,88,88,0,0,0,0,,,,,,,796.9276043996215,None,797.3008569013327,None,798.1156732011586,None,l,1,0.509298900142312,798.1156732011586,None,None,None,,,,,,,18,27,female,18,2022_May_10_1139,Partial repeat,2021.2.3,59.90373420323014,
6,4,0,1,2,2,2,2,0,0,1,1,1,0,0,0,88,88,88,1,0,1,0,,,,,,,,,798.6331674996763,None,799.4508114997298,None,l,1,0.4061294011771679,799.4508114997298,None,None,None,,,,,,,18,27,female,18,2022_May_10_1139,Partial repeat,2021.2.3,59.90373420323014,
6,4,0,1,2,2,2,2,0,0,1,1,1,0,0,0,88,88,88,,,,,,,,,,,,,,,,,,,,,,,,,,,,,,18,27,female,18,2022_May_10_1139,Partial repeat,2021.2.3,59.90373420323014,
8,5,0,1,3,2,2,1,1,1,0,0,1,0,0,0,89,89,89,0,0,0,0,,,,,,,799.8675801996142,None,800.4402776006609,None,801.3374422006309,None,s,1,0.4395743999630213,801.3374422006309,None,None,None,,,,,,,18,27,female,18,2022_May_10_1139,Partial repeat,2021.2.3,59.90373420323014,
8,5,0,1,3,2,2,1,1,1,0,0,1,0,0,0,89,89,89,1,0,1,0,,,,,,,,,801.7879253998399,None,802.5731907002628,None,s,1,0.45172430016100407,802.5731907002628,None,None,None,,,,,,,18,27,female,18,2022_May_10_1139,Partial repeat,2021.2.3,59.90373420323014,
8,5,0,1,3,2,2,1,1,1,0,0,1,0,0,0,89,89,89,,,,,,,,,,,,,,,,,,,,,,,,,,,,,,18,27,female,18,2022_May_10_1139,Partial repeat,2021.2.3,59.90373420323014,
3,7,0,1,2,3,1,2,0,0,0,0,1,0,0,0,90,90,90,0,0,0,0,,,,,,,803.052348099649,None,803.7133114002645,None,804.6118163000792,None,l,1,0.6370825991034508,804.6118163000792,None,None,None,,,,,,,18,27,female,18,2022_May_10_1139,Partial repeat,2021.2.3,59.90373420323014,
3,7,0,1,2,3,1,2,0,0,0,0,1,0,0,0,90,90,90,1,0,1,0,,,,,,,,,805.2677728012204,None,806.096680900082,None,l,1,0.4882283005863428,806.096680900082,None,None,None,,,,,,,18,27,female,18,2022_May_10_1139,Partial repeat,2021.2.3,59.90373420323014,
3,7,0,1,2,3,1,2,0,0,0,0,1,0,0,0,90,90,90,,,,,,,,,,,,,,,,,,,,,,,,,,,,,,18,27,female,18,2022_May_10_1139,Partial repeat,2021.2.3,59.90373420323014,
7,1,0,1,2,3,1,1,1,1,0,1,1,0,0,0,91,91,91,0,0,0,0,,,,,,,806.6000644005835,None,806.9527946002781,None,807.8169791009277,None,s,1,0.44792999885976315,807.8169791009277,None,None,None,,,,,,,18,27,female,18,2022_May_10_1139,Partial repeat,2021.2.3,59.90373420323014,
7,1,0,1,2,3,1,1,1,1,0,1,1,0,0,0,91,91,91,1,0,1,0,,,,,,,,,808.2908417005092,None,809.10268160142,None,s,1,0.5062285996973515,809.10268160142,None,None,None,,,,,,,18,27,female,18,2022_May_10_1139,Partial repeat,2021.2.3,59.90373420323014,
7,1,0,1,2,3,1,1,1,1,0,1,1,0,0,0,91,91,91,,,,,,,,,,,,,,,,,,,,,,,,,,,,,,18,27,female,18,2022_May_10_1139,Partial repeat,2021.2.3,59.90373420323014,
1,8,0,1,2,2,2,1,0,1,1,0,0,0,0,0,92,92,92,0,0,0,0,,,,,,,809.6236733011901,None,809.9421283006668,None,810.755885200575,None,l,1,0.517017500475049,810.755885200575,None,None,None,,,,,,,18,27,female,18,2022_May_10_1139,Partial repeat,2021.2.3,59.90373420323014,
1,8,0,1,2,2,2,1,0,1,1,0,0,0,0,0,92,92,92,1,0,1,0,,,,,,,,,811.2869392000139,None,812.0749923996627,None,l,0,0.5019121989607811,812.0749923996627,None,812.5941091999412,None,,,,,,,18,27,female,18,2022_May_10_1139,Partial repeat,2021.2.3,59.90373420323014,
1,8,0,1,2,2,2,1,0,1,1,0,0,0,0,0,92,92,92,,,,,,,,,,,,,,,,,,,,,,,,,,,,,,18,27,female,18,2022_May_10_1139,Partial repeat,2021.2.3,59.90373420323014,
3,2,0,1,3,3,1,2,0,0,1,0,1,0,0,0,93,93,93,0,0,0,0,,,,,,,813.0982665996999,None,813.8831273000687,None,814.8643490001559,None,l,1,0.4965907000005245,814.8643490001559,None,None,None,,,,,,,18,27,female,18,2022_May_10_1139,Partial repeat,2021.2.3,59.90373420323014,
3,2,0,1,3,3,1,2,0,0,1,0,1,0,0,0,93,93,93,1,0,1,0,,,,,,,,,815.3801033999771,None,816.1331666000187,None,l,1,0.5479199010878801,816.1331666000187,None,None,None,,,,,,,18,27,female,18,2022_May_10_1139,Partial repeat,2021.2.3,59.90373420323014,
3,2,0,1,3,3,1,2,0,0,1,0,1,0,0,0,93,93,93,,,,,,,,,,,,,,,,,,,,,,,,,,,,,,18,27,female,18,2022_May_10_1139,Partial repeat,2021.2.3,59.90373420323014,
4,2,0,1,3,3,2,1,0,0,1,0,1,0,0,0,94,94,94,0,0,0,0,,,,,,,816.6929067000747,None,817.4233513008803,None,818.3708171006292,None,l,1,0.5501532014459372,818.3708171006292,None,None,None,,,,,,,18,27,female,18,2022_May_10_1139,Partial repeat,2021.2.3,59.90373420323014,
4,2,0,1,3,3,2,1,0,0,1,0,1,0,0,0,94,94,94,1,0,1,0,,,,,,,,,818.9297532010823,None,819.8905258011073,None,l,1,0.35035090148448944,819.8905258011073,None,None,None,,,,,,,18,27,female,18,2022_May_10_1139,Partial repeat,2021.2.3,59.90373420323014,
4,2,0,1,3,3,2,1,0,0,1,0,1,0,0,0,94,94,94,,,,,,,,,,,,,,,,,,,,,,,,,,,,,,18,27,female,18,2022_May_10_1139,Partial repeat,2021.2.3,59.90373420323014,
4,1,0,1,3,2,1,2,1,1,0,0,1,0,0,0,95,95,95,0,0,0,0,,,,,,,820.2626358997077,None,820.6629422996193,None,821.3938464000821,None,s,1,0.5270326994359493,821.3938464000821,None,None,None,,,,,,,18,27,female,18,2022_May_10_1139,Partial repeat,2021.2.3,59.90373420323014,
4,1,0,1,3,2,1,2,1,1,0,0,1,0,0,0,95,95,95,1,0,1,0,,,,,,,,,821.9300651010126,None,822.9296676013619,None,l,0,0.4233238995075226,822.9296676013619,None,823.362808201462,None,,,,,,,18,27,female,18,2022_May_10_1139,Partial repeat,2021.2.3,59.90373420323014,
4,1,0,1,3,2,1,2,1,1,0,0,1,0,0,0,95,95,95,,,,,,,,,,,,,,,,,,,,,,,,,,,,,,18,27,female,18,2022_May_10_1139,Partial repeat,2021.2.3,59.90373420323014,
1,2,0,1,2,3,2,1,1,1,0,0,1,0,0,0,96,96,96,0,0,0,0,,,,,,,823.8692806009203,None,824.8210915997624,None,825.6516222003847,None,s,1,0.5253295991569757,825.6516222003847,None,None,None,,,,,,,18,27,female,18,2022_May_10_1139,Partial repeat,2021.2.3,59.90373420323014,
1,2,0,1,2,3,2,1,1,1,0,0,1,0,0,0,96,96,96,1,0,1,0,,,,,,,,,826.1882920004427,None,827.1376264002174,None,s,1,0.4392712004482746,827.1376264002174,None,None,None,,,,,,,18,27,female,18,2022_May_10_1139,Partial repeat,2021.2.3,59.90373420323014,
1,2,0,1,2,3,2,1,1,1,0,0,1,0,0,0,96,96,96,,,,,,,,,,,,,,,,,,,,,,,,,,,,,,18,27,female,18,2022_May_10_1139,Partial repeat,2021.2.3,59.90373420323014,
4,4,0,1,3,2,1,2,1,0,0,0,0,0,0,0,97,97,97,0,0,0,0,,,,,,,827.5943603999913,None,828.0105769000947,None,828.8910546004772,None,s,1,0.5018440000712872,828.8910546004772,None,None,None,,,,,,,18,27,female,18,2022_May_10_1139,Partial repeat,2021.2.3,59.90373420323014,
4,4,0,1,3,2,1,2,1,0,0,0,0,0,0,0,97,97,97,1,0,1,0,,,,,,,,,829.4051246996969,None,830.3950318004936,None,l,1,0.5578643009066582,830.3950318004936,None,None,None,,,,,,,18,27,female,18,2022_May_10_1139,Partial repeat,2021.2.3,59.90373420323014,
4,4,0,1,3,2,1,2,1,0,0,0,0,0,0,0,97,97,97,,,,,,,,,,,,,,,,,,,,,,,,,,,,,,18,27,female,18,2022_May_10_1139,Partial repeat,2021.2.3,59.90373420323014,
2,7,0,1,2,3,2,2,0,1,0,1,0,0,0,0,98,98,98,0,0,0,0,,,,,,,830.9818609002978,None,831.2835943009704,None,832.2154767010361,None,l,1,0.5454190000891685,832.2154767010361,None,None,None,,,,,,,18,27,female,18,2022_May_10_1139,Partial repeat,2021.2.3,59.90373420323014,
2,7,0,1,2,3,2,2,0,1,0,1,0,0,0,0,98,98,98,1,0,1,0,,,,,,,,,832.7754172999412,None,833.6006077006459,None,s,1,0.7762781996279955,833.6006077006459,None,None,None,,,,,,,18,27,female,18,2022_May_10_1139,Partial repeat,2021.2.3,59.90373420323014,
2,7,0,1,2,3,2,2,0,1,0,1,0,0,0,0,98,98,98,,,,,,,,,,,,,,,,,,,,,,,,,,,,,,18,27,female,18,2022_May_10_1139,Partial repeat,2021.2.3,59.90373420323014,
1,3,0,1,3,3,2,2,0,0,1,1,1,0,0,0,99,99,99,0,0,0,0,,,,,,,834.4016110002995,None,835.2914260998368,None,836.28891470097,None,l,1,0.951978100463748,836.28891470097,None,None,None,,,,,,,18,27,female,18,2022_May_10_1139,Partial repeat,2021.2.3,59.90373420323014,
1,3,0,1,3,3,2,2,0,0,1,1,1,0,0,0,99,99,99,1,0,1,0,,,,,,,,,837.2664556000382,None,837.9923710003495,None,l,1,0.5924830995500088,837.9923710003495,None,None,None,,,,,,,18,27,female,18,2022_May_10_1139,Partial repeat,2021.2.3,59.90373420323014,
1,3,0,1,3,3,2,2,0,0,1,1,1,0,0,0,99,99,99,,,,,,,,,,,,,,,,,,,,,,,,,,,,,,18,27,female,18,2022_May_10_1139,Partial repeat,2021.2.3,59.90373420323014,
7,6,0,1,3,3,1,2,1,0,1,0,0,0,0,0,100,100,100,0,0,0,0,,,,,,,838.6160997003317,None,839.048731200397,None,839.9626217000186,None,s,1,0.510206799954176,839.9626217000186,None,None,None,,,,,,,18,27,female,18,2022_May_10_1139,Partial repeat,2021.2.3,59.90373420323014,
7,6,0,1,3,3,1,2,1,0,1,0,0,0,0,0,100,100,100,1,0,1,0,,,,,,,,,840.4885485004634,None,841.4988398998976,None,l,1,0.5340493991971016,841.4988398998976,None,None,None,,,,,,,18,27,female,18,2022_May_10_1139,Partial repeat,2021.2.3,59.90373420323014,
7,6,0,1,3,3,1,2,1,0,1,0,0,0,0,0,100,100,100,,,,,,,,,,,,,,,,,,,,,,,,,,,,,,18,27,female,18,2022_May_10_1139,Partial repeat,2021.2.3,59.90373420323014,
4,3,0,1,3,2,2,1,0,0,0,0,1,0,0,0,101,101,101,0,0,0,0,,,,,,,842.0610220003873,None,842.4218973014504,None,843.3027346003801,None,l,1,0.7861966006457806,843.3027346003801,None,None,None,,,,,,,18,27,female,18,2022_May_10_1139,Partial repeat,2021.2.3,59.90373420323014,
4,3,0,1,3,2,2,1,0,0,0,0,1,0,0,0,101,101,101,1,0,1,0,,,,,,,,,844.0972886998206,None,845.1065396014601,None,l,1,0.558355400338769,845.1065396014601,None,None,None,,,,,,,18,27,female,18,2022_May_10_1139,Partial repeat,2021.2.3,59.90373420323014,
4,3,0,1,3,2,2,1,0,0,0,0,1,0,0,0,101,101,101,,,,,,,,,,,,,,,,,,,,,,,,,,,,,,18,27,female,18,2022_May_10_1139,Partial repeat,2021.2.3,59.90373420323014,
5,5,0,1,2,3,2,2,1,0,0,1,0,0,0,0,102,102,102,0,0,0,0,,,,,,,845.694577600807,None,845.9955593012273,None,846.7423975002021,None,s,1,0.482489999383688,846.7423975002021,None,None,None,,,,,,,18,27,female,18,2022_May_10_1139,Partial repeat,2021.2.3,59.90373420323014,
5,5,0,1,2,3,2,2,1,0,0,1,0,0,0,0,102,102,102,1,0,1,0,,,,,,,,,847.2410204000771,None,848.1620648000389,None,l,1,0.45480769872665405,848.1620648000389,None,None,None,,,,,,,18,27,female,18,2022_May_10_1139,Partial repeat,2021.2.3,59.90373420323014,
5,5,0,1,2,3,2,2,1,0,0,1,0,0,0,0,102,102,102,,,,,,,,,,,,,,,,,,,,,,,,,,,,,,18,27,female,18,2022_May_10_1139,Partial repeat,2021.2.3,59.90373420323014,
5,7,0,1,2,2,2,1,1,0,1,0,0,0,0,0,103,103,103,0,0,0,0,,,,,,,848.6394400000572,None,848.9511992000043,None,849.932001600042,None,s,1,0.48494729958474636,849.932001600042,None,None,None,,,,,,,18,27,female,18,2022_May_10_1139,Partial repeat,2021.2.3,59.90373420323014,
5,7,0,1,2,2,2,1,1,0,1,0,0,0,0,0,103,103,103,1,0,1,0,,,,,,,,,850.4264976996928,None,851.4183732997626,None,l,1,0.5185183994472027,851.4183732997626,None,None,None,,,,,,,18,27,female,18,2022_May_10_1139,Partial repeat,2021.2.3,59.90373420323014,
5,7,0,1,2,2,2,1,1,0,1,0,0,0,0,0,103,103,103,,,,,,,,,,,,,,,,,,,,,,,,,,,,,,18,27,female,18,2022_May_10_1139,Partial repeat,2021.2.3,59.90373420323014,
7,3,0,1,2,3,1,1,0,1,0,1,0,0,0,0,104,104,104,0,0,0,0,,,,,,,851.959839001298,None,852.2075929008424,None,853.0057223010808,None,l,1,0.46715989895164967,853.0057223010808,None,None,None,,,,,,,18,27,female,18,2022_May_10_1139,Partial repeat,2021.2.3,59.90373420323014,
7,3,0,1,2,3,1,1,0,1,0,1,0,0,0,0,104,104,104,1,0,1,0,,,,,,,,,853.4993092007935,None,854.4075100999326,None,s,1,0.5134404990822077,854.4075100999326,None,None,None,,,,,,,18,27,female,18,2022_May_10_1139,Partial repeat,2021.2.3,59.90373420323014,
7,3,0,1,2,3,1,1,0,1,0,1,0,0,0,0,104,104,104,,,,,,,,,,,,,,,,,,,,,,,,,,,,,,18,27,female,18,2022_May_10_1139,Partial repeat,2021.2.3,59.90373420323014,
2,5,0,1,2,2,1,2,1,0,1,0,0,0,0,0,105,105,105,0,0,0,0,,,,,,,854.9503850005567,None,855.1634312998503,None,856.0938326008618,None,s,1,0.5710496008396149,856.0938326008618,None,None,None,,,,,,,18,27,female,18,2022_May_10_1139,Partial repeat,2021.2.3,59.90373420323014,
2,5,0,1,2,2,1,2,1,0,1,0,0,0,0,0,105,105,105,1,0,1,0,,,,,,,,,856.6921248007566,None,857.6972302999347,None,l,1,0.47164440155029297,857.6972302999347,None,None,None,,,,,,,18,27,female,18,2022_May_10_1139,Partial repeat,2021.2.3,59.90373420323014,
2,5,0,1,2,2,1,2,1,0,1,0,0,0,0,0,105,105,105,,,,,,,,,,,,,,,,,,,,,,,,,,,,,,18,27,female,18,2022_May_10_1139,Partial repeat,2021.2.3,59.90373420323014,
6,3,0,1,3,3,2,2,1,0,1,1,0,0,0,0,106,106,106,0,0,0,0,,,,,,,858.1973561998457,None,858.4698549006134,None,859.2837666999549,None,s,1,0.645117100328207,859.2837666999549,None,None,None,,,,,,,18,27,female,18,2022_May_10_1139,Partial repeat,2021.2.3,59.90373420323014,
6,3,0,1,3,3,2,2,1,0,1,1,0,0,0,0,106,106,106,1,0,1,0,,,,,,,,,859.94751060009,None,860.7538584005088,None,l,1,0.5910248998552561,860.7538584005088,None,None,None,,,,,,,18,27,female,18,2022_May_10_1139,Partial repeat,2021.2.3,59.90373420323014,
6,3,0,1,3,3,2,2,1,0,1,1,0,0,0,0,106,106,106,,,,,,,,,,,,,,,,,,,,,,,,,,,,,,18,27,female,18,2022_May_10_1139,Partial repeat,2021.2.3,59.90373420323014,
6,5,0,1,3,2,2,2,1,1,0,1,1,0,0,0,107,107,107,0,0,0,0,,,,,,,861.3620458003134,None,862.0768590010703,None,863.0742914006114,None,s,1,0.4786223992705345,863.0742914006114,None,None,None,,,,,,,18,27,female,18,2022_May_10_1139,Partial repeat,2021.2.3,59.90373420323014,
6,5,0,1,3,2,2,2,1,1,0,1,1,0,0,0,107,107,107,1,0,1,0,,,,,,,,,863.5732032004744,None,864.3102205004543,None,s,1,0.44266119971871376,864.3102205004543,None,None,None,,,,,,,18,27,female,18,2022_May_10_1139,Partial repeat,2021.2.3,59.90373420323014,
6,5,0,1,3,2,2,2,1,1,0,1,1,0,0,0,107,107,107,,,,,,,,,,,,,,,,,,,,,,,,,,,,,,18,27,female,18,2022_May_10_1139,Partial repeat,2021.2.3,59.90373420323014,
4,7,0,1,3,3,1,1,1,1,1,1,1,0,0,0,108,108,108,0,0,0,0,,,,,,,864.7676820997149,None,865.2496655005962,None,866.2303464002907,None,s,1,0.5066266991198063,866.2303464002907,None,None,None,,,,,,,18,27,female,18,2022_May_10_1139,Partial repeat,2021.2.3,59.90373420323014,
4,7,0,1,3,3,1,1,1,1,1,1,1,0,0,0,108,108,108,1,0,1,0,,,,,,,,,866.7471066005528,None,867.6163519006222,None,s,1,0.4965293016284704,867.6163519006222,None,None,None,,,,,,,18,27,female,18,2022_May_10_1139,Partial repeat,2021.2.3,59.90373420323014,
4,7,0,1,3,3,1,1,1,1,1,1,1,0,0,0,108,108,108,,,,,,,,,,,,,,,,,,,,,,,,,,,,,,18,27,female,18,2022_May_10_1139,Partial repeat,2021.2.3,59.90373420323014,
3,6,0,1,2,3,1,2,1,0,0,0,0,0,0,0,109,109,109,0,0,0,0,,,,,,,868.1361453011632,None,868.57281300053,None,869.4699459001422,None,s,1,0.5869027003645897,869.4699459001422,None,None,None,,,,,,,18,27,female,18,2022_May_10_1139,Partial repeat,2021.2.3,59.90373420323014,
3,6,0,1,2,3,1,2,1,0,0,0,0,0,0,0,109,109,109,1,0,1,0,,,,,,,,,870.0705778002739,None,870.9562171008438,None,l,1,0.5166646987199783,870.9562171008438,None,None,None,,,,,,,18,27,female,18,2022_May_10_1139,Partial repeat,2021.2.3,59.90373420323014,
3,6,0,1,2,3,1,2,1,0,0,0,0,0,0,0,109,109,109,,,,,,,,,,,,,,,,,,,,,,,,,,,,,,18,27,female,18,2022_May_10_1139,Partial repeat,2021.2.3,59.90373420323014,
7,8,0,1,3,3,2,2,0,1,1,1,0,0,0,0,110,110,110,0,0,0,0,,,,,,,871.5017940010875,None,871.9794725012034,None,872.7263473998755,None,l,1,0.5625349003821611,872.7263473998755,None,None,None,,,,,,,18,27,female,18,2022_May_10_1139,Partial repeat,2021.2.3,59.90373420323014,
7,8,0,1,3,3,2,2,0,1,1,1,0,0,0,0,110,110,110,1,0,1,0,,,,,,,,,873.3064661007375,None,874.296363601461,None,l,0,0.5045395996421576,874.296363601461,None,874.8147411998361,None,,,,,,,18,27,female,18,2022_May_10_1139,Partial repeat,2021.2.3,59.90373420323014,
7,8,0,1,3,3,2,2,0,1,1,1,0,0,0,0,110,110,110,,,,,,,,,,,,,,,,,,,,,,,,,,,,,,18,27,female,18,2022_May_10_1139,Partial repeat,2021.2.3,59.90373420323014,
6,6,0,1,2,3,1,1,1,0,0,1,0,0,0,0,111,111,111,0,0,0,0,,,,,,,875.3193433005363,None,875.9035892002285,None,876.7844582013786,None,s,1,0.528490699827671,876.7844582013786,None,None,None,,,,,,,18,27,female,18,2022_May_10_1139,Partial repeat,2021.2.3,59.90373420323014,
6,6,0,1,2,3,1,1,1,0,0,1,0,0,0,0,111,111,111,1,0,1,0,,,,,,,,,877.3235309012234,None,878.1381385996938,None,l,1,0.7507128994911909,878.1381385996938,None,None,None,,,,,,,18,27,female,18,2022_May_10_1139,Partial repeat,2021.2.3,59.90373420323014,
6,6,0,1,2,3,1,1,1,0,0,1,0,0,0,0,111,111,111,,,,,,,,,,,,,,,,,,,,,,,,,,,,,,18,27,female,18,2022_May_10_1139,Partial repeat,2021.2.3,59.90373420323014,
6,7,0,1,3,2,1,1,0,1,0,1,0,0,0,0,112,112,112,0,0,0,0,,,,,,,878.9167139008641,None,880.6963804997504,None,881.6440005004406,None,l,1,0.5088634006679058,881.6440005004406,None,None,None,,,,,,,18,27,female,18,2022_May_10_1139,Partial repeat,2021.2.3,59.90373420323014,
6,7,0,1,3,2,1,1,0,1,0,1,0,0,0,0,112,112,112,1,0,1,0,,,,,,,,,882.1786700002849,None,883.1967297010124,None,s,1,0.47614230029284954,883.1967297010124,None,None,None,,,,,,,18,27,female,18,2022_May_10_1139,Partial repeat,2021.2.3,59.90373420323014,
6,7,0,1,3,2,1,1,0,1,0,1,0,0,0,0,112,112,112,,,,,,,,,,,,,,,,,,,,,,,,,,,,,,18,27,female,18,2022_May_10_1139,Partial repeat,2021.2.3,59.90373420323014,
6,2,0,1,3,2,1,2,0,1,0,0,0,0,0,0,113,113,113,0,0,0,0,,,,,,,883.6963517013937,None,884.2533197999,None,885.1672170013189,None,l,1,0.4976535998284817,885.1672170013189,None,None,None,,,,,,,18,27,female,18,2022_May_10_1139,Partial repeat,2021.2.3,59.90373420323014,
6,2,0,1,3,2,1,2,0,1,0,0,0,0,0,0,113,113,113,1,0,1,0,,,,,,,,,885.6818250007927,None,886.6034623999149,None,s,1,0.5174144003540277,886.6034623999149,None,None,None,,,,,,,18,27,female,18,2022_May_10_1139,Partial repeat,2021.2.3,59.90373420323014,
6,2,0,1,3,2,1,2,0,1,0,0,0,0,0,0,113,113,113,,,,,,,,,,,,,,,,,,,,,,,,,,,,,,18,27,female,18,2022_May_10_1139,Partial repeat,2021.2.3,59.90373420323014,
7,7,0,1,3,3,1,2,0,1,1,0,0,0,0,0,114,114,114,0,0,0,0,,,,,,,887.1481304001063,None,887.5430824011564,None,888.4903934001923,None,l,1,0.5184742994606495,888.4903934001923,None,None,None,,,,,,,18,27,female,18,2022_May_10_1139,Partial repeat,2021.2.3,59.90373420323014,
7,7,0,1,3,3,1,2,0,1,1,0,0,0,0,0,114,114,114,1,0,1,0,,,,,,,,,889.0314416009933,None,889.943379400298,None,s,1,0.4735188987106085,889.943379400298,None,None,None,,,,,,,18,27,female,18,2022_May_10_1139,Partial repeat,2021.2.3,59.90373420323014,
7,7,0,1,3,3,1,2,0,1,1,0,0,0,0,0,114,114,114,,,,,,,,,,,,,,,,,,,,,,,,,,,,,,18,27,female,18,2022_May_10_1139,Partial repeat,2021.2.3,59.90373420323014,
2,1,0,1,3,2,1,1,0,0,0,1,1,0,0,0,115,115,115,0,0,0,0,,,,,,,890.4403066001832,None,890.9162307009101,None,891.8138361014426,None,l,1,0.626994701102376,891.8138361014426,None,None,None,,,,,,,18,27,female,18,2022_May_10_1139,Partial repeat,2021.2.3,59.90373420323014,
2,1,0,1,3,2,1,1,0,0,0,1,1,0,0,0,115,115,115,1,0,1,0,,,,,,,,,892.458192801103,None,893.3332671001554,None,l,1,0.5716467015445232,893.3332671001554,None,None,None,,,,,,,18,27,female,18,2022_May_10_1139,Partial repeat,2021.2.3,59.90373420323014,
2,1,0,1,3,2,1,1,0,0,0,1,1,0,0,0,115,115,115,,,,,,,,,,,,,,,,,,,,,,,,,,,,,,18,27,female,18,2022_May_10_1139,Partial repeat,2021.2.3,59.90373420323014,
1,6,0,1,3,2,2,2,0,1,0,1,0,0,0,0,116,116,116,0,0,0,0,,,,,,,893.934425201267,None,894.2561441008002,None,895.1867925003171,None,l,1,0.4940722994506359,895.1867925003171,None,None,None,,,,,,,18,27,female,18,2022_May_10_1139,Partial repeat,2021.2.3,59.90373420323014,
1,6,0,1,3,2,2,2,0,1,0,1,0,0,0,0,116,116,116,1,0,1,0,,,,,,,,,895.7009626999497,None,896.4725589007139,None,s,1,0.4242484010756016,896.4725589007139,None,None,None,,,,,,,18,27,female,18,2022_May_10_1139,Partial repeat,2021.2.3,59.90373420323014,
1,6,0,1,3,2,2,2,0,1,0,1,0,0,0,0,116,116,116,,,,,,,,,,,,,,,,,,,,,,,,,,,,,,18,27,female,18,2022_May_10_1139,Partial repeat,2021.2.3,59.90373420323014,
7,2,0,1,2,3,1,1,0,0,0,1,1,0,0,0,117,117,117,0,0,0,0,,,,,,,896.9278041999787,None,897.4623531010002,None,898.2762471996248,None,l,1,0.49268149957060814,898.2762471996248,None,None,None,,,,,,,18,27,female,18,2022_May_10_1139,Partial repeat,2021.2.3,59.90373420323014,
7,2,0,1,2,3,1,1,0,0,0,1,1,0,0,0,117,117,117,1,0,1,0,,,,,,,,,898.7965561002493,None,899.7957575004548,None,l,1,0.5490961000323296,899.7957575004548,None,None,None,,,,,,,18,27,female,18,2022_May_10_1139,Partial repeat,2021.2.3,59.90373420323014,
7,2,0,1,2,3,1,1,0,0,0,1,1,0,0,0,117,117,117,,,,,,,,,,,,,,,,,,,,,,,,,,,,,,18,27,female,18,2022_May_10_1139,Partial repeat,2021.2.3,59.90373420323014,
5,2,0,1,2,2,2,2,0,1,1,1,0,0,0,0,118,118,118,0,0,0,0,,,,,,,900.3611671011895,None,900.60152919963,None,901.3985662013292,None,l,1,0.7862867005169392,901.3985662013292,None,None,None,,,,,,,18,27,female,18,2022_May_10_1139,Partial repeat,2021.2.3,59.90373420323014,
5,2,0,1,2,2,2,2,0,1,1,1,0,0,0,0,118,118,118,1,0,1,0,,,,,,,,,902.2114036008716,None,902.9518206007779,None,s,1,0.4890254996716976,902.9518206007779,None,None,None,,,,,,,18,27,female,18,2022_May_10_1139,Partial repeat,2021.2.3,59.90373420323014,
5,2,0,1,2,2,2,2,0,1,1,1,0,0,0,0,118,118,118,,,,,,,,,,,,,,,,,,,,,,,,,,,,,,18,27,female,18,2022_May_10_1139,Partial repeat,2021.2.3,59.90373420323014,
5,6,0,1,2,2,2,2,1,0,1,1,0,0,0,0,119,119,119,0,0,0,0,,,,,,,903.4672109000385,None,903.8247628007084,None,904.5549539998174,None,s,1,0.5579075999557972,904.5549539998174,None,None,None,,,,,,,18,27,female,18,2022_May_10_1139,Partial repeat,2021.2.3,59.90373420323014,
5,6,0,1,2,2,2,2,1,0,1,1,0,0,0,0,119,119,119,1,0,1,0,,,,,,,,,905.134696399793,None,906.124854600057,None,l,1,0.5159782003611326,906.124854600057,None,None,None,,,,,,,18,27,female,18,2022_May_10_1139,Partial repeat,2021.2.3,59.90373420323014,
5,6,0,1,2,2,2,2,1,0,1,1,0,0,0,0,119,119,119,,,,,,,,,,,,,,,,,,,,,,,,,,,,,,18,27,female,18,2022_May_10_1139,Partial repeat,2021.2.3,59.90373420323014,
8,1,0,1,2,2,1,1,1,1,1,1,1,0,0,0,120,120,120,0,0,0,0,,,,,,,906.6674765013158,None,906.9975466001779,None,907.7623747009784,None,s,1,0.4704896006733179,907.7623747009784,None,None,None,,,,,,,18,27,female,18,2022_May_10_1139,Partial repeat,2021.2.3,59.90373420323014,
8,1,0,1,2,2,1,1,1,1,1,1,1,0,0,0,120,120,120,1,0,1,0,,,,,,,,,908.2592850010842,None,909.2641467005014,None,s,1,0.43271009996533394,909.2641467005014,None,None,None,,,,,,,18,27,female,18,2022_May_10_1139,Partial repeat,2021.2.3,59.90373420323014,
8,1,0,1,2,2,1,1,1,1,1,1,1,0,0,0,120,120,120,,,,,,,,,,,,,,,,,,,,,,,,,,,,,,18,27,female,18,2022_May_10_1139,Partial repeat,2021.2.3,59.90373420323014,
4,6,0,1,3,3,2,1,0,1,1,0,0,0,0,0,121,121,121,0,0,0,0,,,,,,,909.7222768012434,None,910.170436700806,None,910.9008699003607,None,l,1,0.4679637998342514,910.9008699003607,None,None,None,,,,,,,18,27,female,18,2022_May_10_1139,Partial repeat,2021.2.3,59.90373420323014,
4,6,0,1,3,3,2,1,0,1,1,0,0,0,0,0,121,121,121,1,0,1,0,,,,,,,,,911.3964582998306,None,912.236698500812,None,s,1,0.44422730058431625,912.236698500812,None,None,None,,,,,,,18,27,female,18,2022_May_10_1139,Partial repeat,2021.2.3,59.90373420323014,
4,6,0,1,3,3,2,1,0,1,1,0,0,0,0,0,121,121,121,,,,,,,,,,,,,,,,,,,,,,,,,,,,,,18,27,female,18,2022_May_10_1139,Partial repeat,2021.2.3,59.90373420323014,
4,5,0,1,2,2,1,2,0,0,1,0,1,0,0,0,122,122,122,0,0,0,0,,,,,,,912.693996200338,None,912.9925207998604,None,913.9733943007886,None,l,1,0.6995179001241922,913.9733943007886,None,None,None,,,,,,,18,27,female,18,2022_May_10_1139,Partial repeat,2021.2.3,59.90373420323014,
4,5,0,1,2,2,1,2,0,0,1,0,1,0,0,0,122,122,122,1,0,1,0,,,,,,,,,914.7004365008324,None,915.6765894014388,None,l,1,0.41223639994859695,915.6765894014388,None,None,None,,,,,,,18,27,female,18,2022_May_10_1139,Partial repeat,2021.2.3,59.90373420323014,
4,5,0,1,2,2,1,2,0,0,1,0,1,0,0,0,122,122,122,,,,,,,,,,,,,,,,,,,,,,,,,,,,,,18,27,female,18,2022_May_10_1139,Partial repeat,2021.2.3,59.90373420323014,
5,8,0,1,3,3,2,2,1,1,1,1,1,0,0,0,123,123,123,0,0,0,0,,,,,,,916.110036900267,None,916.3825187999755,None,917.1639063004404,None,s,1,0.5250228997319937,917.1639063004404,None,None,None,,,,,,,18,27,female,18,2022_May_10_1139,Partial repeat,2021.2.3,59.90373420323014,
5,8,0,1,3,3,2,2,1,1,1,1,1,0,0,0,123,123,123,1,0,1,0,,,,,,,,,917.6996625009924,None,918.682349300012,None,s,1,0.42261029966175556,918.682349300012,None,None,None,,,,,,,18,27,female,18,2022_May_10_1139,Partial repeat,2021.2.3,59.90373420323014,
5,8,0,1,3,3,2,2,1,1,1,1,1,0,0,0,123,123,123,,,,,,,,,,,,,,,,,,,,,,,,,,,,,,18,27,female,18,2022_May_10_1139,Partial repeat,2021.2.3,59.90373420323014,
1,4,0,1,3,2,2,1,1,0,0,0,0,0,0,0,124,124,124,0,0,0,0,,,,,,,919.1177539005876,None,919.4885667003691,None,920.3522498998791,None,l,0,0.9205937013030052,920.3522498998791,None,921.2875747997314,None,,,,,,,18,27,female,18,2022_May_10_1139,Partial repeat,2021.2.3,59.90373420323014,
1,4,0,1,3,2,2,1,1,0,0,0,0,0,0,0,124,124,124,1,0,1,0,,,,,,,,,921.7930511012673,None,922.6231773011386,None,l,1,0.5296729002147913,922.6231773011386,None,None,None,,,,,,,18,27,female,18,2022_May_10_1139,Partial repeat,2021.2.3,59.90373420323014,
1,4,0,1,3,2,2,1,1,0,0,0,0,0,0,0,124,124,124,,,,,,,,,,,,,,,,,,,,,,,,,,,,,,18,27,female,18,2022_May_10_1139,Partial repeat,2021.2.3,59.90373420323014,
5,1,0,1,3,2,1,1,1,1,0,1,1,0,0,0,125,125,125,0,0,0,0,,,,,,,923.1684339009225,None,923.4295589011163,None,924.3768074009567,None,s,1,1.512039801105857,924.3768074009567,None,None,None,,,,,,,18,27,female,18,2022_May_10_1139,Partial repeat,2021.2.3,59.90373420323014,
5,1,0,1,3,2,1,1,1,1,0,1,1,0,0,0,125,125,125,1,0,1,0,,,,,,,,,925.911131599918,None,926.7316752001643,None,s,1,0.8531746994704008,926.7316752001643,None,None,None,,,,,,,18,27,female,18,2022_May_10_1139,Partial repeat,2021.2.3,59.90373420323014,
5,1,0,1,3,2,1,1,1,1,0,1,1,0,0,0,125,125,125,,,,,,,,,,,,,,,,,,,,,,,,,,,,,,18,27,female,18,2022_May_10_1139,Partial repeat,2021.2.3,59.90373420323014,
3,4,0,1,3,2,1,2,0,0,0,0,1,0,0,0,126,126,126,0,0,0,0,,,,,,,927.6115579009056,None,928.2555491998792,None,929.0361187998205,None,l,1,0.5327742006629705,929.0361187998205,None,None,None,,,,,,,18,27,female,18,2022_May_10_1139,Partial repeat,2021.2.3,59.90373420323014,
3,4,0,1,3,2,1,2,0,0,0,0,1,0,0,0,126,126,126,1,0,1,0,,,,,,,,,929.596839800477,None,930.5723643004894,None,l,1,0.46047369949519634,930.5723643004894,None,None,None,,,,,,,18,27,female,18,2022_May_10_1139,Partial repeat,2021.2.3,59.90373420323014,
3,4,0,1,3,2,1,2,0,0,0,0,1,0,0,0,126,126,126,,,,,,,,,,,,,,,,,,,,,,,,,,,,,,18,27,female,18,2022_May_10_1139,Partial repeat,2021.2.3,59.90373420323014,
3,8,0,1,2,3,2,2,1,1,0,1,1,0,0,0,127,127,127,0,0,0,0,,,,,,,931.0484527014196,None,931.3449492007494,None,932.1920242998749,None,s,1,0.5688178017735481,932.1920242998749,None,None,None,,,,,,,18,27,female,18,2022_May_10_1139,Partial repeat,2021.2.3,59.90373420323014,
3,8,0,1,2,3,2,2,1,1,0,1,1,0,0,0,127,127,127,1,0,1,0,,,,,,,,,932.7752133011818,None,933.5280678998679,None,s,1,0.5367689002305269,933.5280678998679,None,None,None,,,,,,,18,27,female,18,2022_May_10_1139,Partial repeat,2021.2.3,59.90373420323014,
3,8,0,1,2,3,2,2,1,1,0,1,1,0,0,0,127,127,127,,,,,,,,,,,,,,,,,,,,,,,,,,,,,,18,27,female,18,2022_May_10_1139,Partial repeat,2021.2.3,59.90373420323014,
1,1,0,1,2,2,2,1,1,0,1,0,0,1,0,0,128,128,128,0,0,0,0,,,,,,,934.544340301305,None,940.9970734007657,None,941.9778422005475,None,l,0,0.6629977002739906,941.9778422005475,None,942.6702162008733,None,,,,,,,18,27,female,18,2022_May_10_1139,Partial repeat,2021.2.3,59.90373420323014,
1,1,0,1,2,2,2,1,1,0,1,0,0,1,0,0,128,128,128,1,0,1,0,,,,,,,,,943.1846115011722,None,943.9485979005694,None,l,1,0.420243700966239,943.9485979005694,None,None,None,,,,,,,18,27,female,18,2022_May_10_1139,Partial repeat,2021.2.3,59.90373420323014,
1,1,0,1,2,2,2,1,1,0,1,0,0,1,0,0,128,128,128,,,,,,,,,,,,,,,,,,,,,,,,,,,,,,18,27,female,18,2022_May_10_1139,Partial repeat,2021.2.3,59.90373420323014,
1,1,0,1,2,3,2,1,0,0,0,0,1,1,0,0,129,129,129,0,0,0,0,,,,,,,944.383955899626,None,944.7710528001189,None,945.6516716014594,None,l,1,0.9811116997152567,945.6516716014594,None,None,None,,,,,,,18,27,female,18,2022_May_10_1139,Partial repeat,2021.2.3,59.90373420323014,
1,1,0,1,2,3,2,1,0,0,0,0,1,1,0,0,129,129,129,1,0,1,0,,,,,,,,,946.6513465996832,None,947.4550238996744,None,l,1,0.44187289848923683,947.4550238996744,None,None,None,,,,,,,18,27,female,18,2022_May_10_1139,Partial repeat,2021.2.3,59.90373420323014,
1,1,0,1,2,3,2,1,0,0,0,0,1,1,0,0,129,129,129,,,,,,,,,,,,,,,,,,,,,,,,,,,,,,18,27,female,18,2022_May_10_1139,Partial repeat,2021.2.3,59.90373420323014,
1,1,0,1,2,3,1,1,0,0,0,1,1,1,0,0,130,130,130,0,0,0,0,,,,,,,947.9177014008164,None,949.63049990125,None,950.5946754999459,None,l,1,0.37415510043501854,950.5946754999459,None,None,None,,,,,,,18,27,female,18,2022_May_10_1139,Partial repeat,2021.2.3,59.90373420323014,
1,1,0,1,2,3,1,1,0,0,0,1,1,1,0,0,130,130,130,1,0,1,0,,,,,,,,,950.9841792006046,None,951.8470220007002,None,l,1,0.3458179011940956,951.8470220007002,None,None,None,,,,,,,18,27,female,18,2022_May_10_1139,Partial repeat,2021.2.3,59.90373420323014,
1,1,0,1,2,3,1,1,0,0,0,1,1,1,0,0,130,130,130,,,,,,,,,,,,,,,,,,,,,,,,,,,,,,18,27,female,18,2022_May_10_1139,Partial repeat,2021.2.3,59.90373420323014,
1,1,0,1,2,2,2,2,0,0,1,1,1,1,0,0,131,131,131,0,0,0,0,,,,,,,952.2170193009079,None,952.6029781010002,None,953.4503406006843,None,l,1,0.35846110060811043,953.4503406006843,None,None,None,,,,,,,18,27,female,18,2022_May_10_1139,Partial repeat,2021.2.3,59.90373420323014,
1,1,0,1,2,2,2,2,0,0,1,1,1,1,0,0,131,131,131,1,0,1,0,,,,,,,,,953.8211135007441,None,954.6690884009004,None,l,1,0.323751300573349,954.6690884009004,None,None,None,,,,,,,18,27,female,18,2022_May_10_1139,Partial repeat,2021.2.3,59.90373420323014,
1,1,0,1,2,2,2,2,0,0,1,1,1,1,0,0,131,131,131,,,,,,,,,,,,,,,,,,,,,,,,,,,,,,18,27,female,18,2022_May_10_1139,Partial repeat,2021.2.3,59.90373420323014,
1,1,0,1,2,3,2,1,1,0,0,0,0,1,0,0,132,132,132,0,0,0,0,,,,,,,955.0192469004542,None,955.5754324011505,None,956.4902846999466,None,s,1,0.4305517990142107,956.4902846999466,None,None,None,,,,,,,18,27,female,18,2022_May_10_1139,Partial repeat,2021.2.3,59.90373420323014,
1,1,0,1,2,3,2,1,1,0,0,0,0,1,0,0,132,132,132,1,0,1,0,,,,,,,,,956.9444626998156,None,957.8925445005298,None,l,1,0.49230650067329407,957.8925445005298,None,None,None,,,,,,,18,27,female,18,2022_May_10_1139,Partial repeat,2021.2.3,59.90373420323014,
1,1,0,1,2,3,2,1,1,0,0,0,0,1,0,0,132,132,132,,,,,,,,,,,,,,,,,,,,,,,,,,,,,,18,27,female,18,2022_May_10_1139,Partial repeat,2021.2.3,59.90373420323014,
1,1,0,1,3,2,2,1,1,0,0,0,0,1,0,0,133,133,133,0,0,0,0,,,,,,,958.4110500011593,None,958.6647215001285,None,959.6621816996485,None,s,1,0.4266515988856554,959.6621816996485,None,None,None,,,,,,,18,27,female,18,2022_May_10_1139,Partial repeat,2021.2.3,59.90373420323014,
1,1,0,1,3,2,2,1,1,0,0,0,0,1,0,0,133,133,133,1,0,1,0,,,,,,,,,960.1155249010772,None,961.0652723014355,None,l,1,0.4155571013689041,961.0652723014355,None,None,None,,,,,,,18,27,female,18,2022_May_10_1139,Partial repeat,2021.2.3,59.90373420323014,
1,1,0,1,3,2,2,1,1,0,0,0,0,1,0,0,133,133,133,,,,,,,,,,,,,,,,,,,,,,,,,,,,,,18,27,female,18,2022_May_10_1139,Partial repeat,2021.2.3,59.90373420323014,
1,1,0,1,2,3,1,1,1,1,0,1,1,1,0,0,134,134,134,0,0,0,0,,,,,,,961.5035647004843,None,961.7707816008478,None,962.768174700439,None,s,1,0.544624600559473,962.768174700439,None,None,None,,,,,,,18,27,female,18,2022_May_10_1139,Partial repeat,2021.2.3,59.90373420323014,
1,1,0,1,2,3,1,1,1,1,0,1,1,1,0,0,134,134,134,1,0,1,0,,,,,,,,,963.3262393008918,None,964.1709828004241,None,s,1,0.3658218998461962,964.1709828004241,None,None,None,,,,,,,18,27,female,18,2022_May_10_1139,Partial repeat,2021.2.3,59.90373420323014,
1,1,0,1,2,3,1,1,1,1,0,1,1,1,0,0,134,134,134,,,,,,,,,,,,,,,,,,,,,,,,,,,,,,18,27,female,18,2022_May_10_1139,Partial repeat,2021.2.3,59.90373420323014,
1,1,0,1,2,2,1,2,0,0,1,0,1,1,0,0,135,135,135,0,0,0,0,,,,,,,964.5662584006786,None,965.043859301135,None,965.9578192010522,None,l,1,0.38700350001454353,965.9578192010522,None,None,None,,,,,,,18,27,female,18,2022_May_10_1139,Partial repeat,2021.2.3,59.90373420323014,
1,1,0,1,2,2,1,2,0,0,1,0,1,1,0,0,135,135,135,1,0,1,0,,,,,,,,,966.3678518012166,None,967.3436801005155,None,l,1,0.3131338991224766,967.3436801005155,None,None,None,,,,,,,18,27,female,18,2022_May_10_1139,Partial repeat,2021.2.3,59.90373420323014,
1,1,0,1,2,2,1,2,0,0,1,0,1,1,0,0,135,135,135,,,,,,,,,,,,,,,,,,,,,,,,,,,,,,18,27,female,18,2022_May_10_1139,Partial repeat,2021.2.3,59.90373420323014,
1,1,0,1,3,2,2,2,0,1,0,1,0,1,0,0,136,136,136,0,0,0,0,,,,,,,967.6731789000332,None,968.0663779005408,None,968.8969005011022,None,l,1,0.37599079869687557,968.8969005011022,None,None,None,,,,,,,18,27,female,18,2022_May_10_1139,Partial repeat,2021.2.3,59.90373420323014,
1,1,0,1,3,2,2,2,0,1,0,1,0,1,0,0,136,136,136,1,0,1,0,,,,,,,,,969.2852389998734,None,970.0329652000219,None,s,1,0.4158564005047083,970.0329652000219,None,None,None,,,,,,,18,27,female,18,2022_May_10_1139,Partial repeat,2021.2.3,59.90373420323014,
1,1,0,1,3,2,2,2,0,1,0,1,0,1,0,0,136,136,136,,,,,,,,,,,,,,,,,,,,,,,,,,,,,,18,27,female,18,2022_May_10_1139,Partial repeat,2021.2.3,59.90373420323014,
1,1,0,1,2,3,1,1,0,1,0,1,0,1,0,0,137,137,137,0,0,0,0,,,,,,,970.4678039997816,None,970.8384429011494,None,971.7355578001589,None,l,1,1.2253839001059532,971.7355578001589,None,None,None,,,,,,,18,27,female,18,2022_May_10_1139,Partial repeat,2021.2.3,59.90373420323014,
1,1,0,1,2,3,1,1,0,1,0,1,0,1,0,0,137,137,137,1,0,1,0,,,,,,,,,972.9713051002473,None,973.9398405998945,None,s,1,0.5569749008864164,973.9398405998945,None,None,None,,,,,,,18,27,female,18,2022_May_10_1139,Partial repeat,2021.2.3,59.90373420323014,
1,1,0,1,2,3,1,1,0,1,0,1,0,1,0,0,137,137,137,,,,,,,,,,,,,,,,,,,,,,,,,,,,,,18,27,female,18,2022_May_10_1139,Partial repeat,2021.2.3,59.90373420323014,
1,1,0,1,2,3,1,2,1,1,0,0,1,1,0,0,138,138,138,0,0,0,0,,,,,,,974.5228806007653,None,975.1969301011413,None,975.9941519014537,None,s,1,0.678668299689889,975.9941519014537,None,None,None,,,,,,,18,27,female,18,2022_May_10_1139,Partial repeat,2021.2.3,59.90373420323014,
1,1,0,1,2,3,1,2,1,1,0,0,1,1,0,0,138,138,138,1,0,1,0,,,,,,,,,976.6960797011852,None,977.6973398011178,None,s,1,0.4954800996929407,977.6973398011178,None,None,None,,,,,,,18,27,female,18,2022_May_10_1139,Partial repeat,2021.2.3,59.90373420323014,
1,1,0,1,2,3,1,2,1,1,0,0,1,1,0,0,138,138,138,,,,,,,,,,,,,,,,,,,,,,,,,,,,,,18,27,female,18,2022_May_10_1139,Partial repeat,2021.2.3,59.90373420323014,
1,1,0,1,3,2,2,2,0,0,0,1,1,1,0,0,139,139,139,0,0,0,0,,,,,,,978.2186952996999,None,979.1545235998929,None,980.1362137012184,None,l,1,0.4565923009067774,980.1362137012184,None,None,None,,,,,,,18,27,female,18,2022_May_10_1139,Partial repeat,2021.2.3,59.90373420323014,
1,1,0,1,3,2,2,2,0,0,0,1,1,1,0,0,139,139,139,1,0,1,0,,,,,,,,,980.6124406997114,None,981.5547791011631,None,l,1,0.30205420032143593,981.5547791011631,None,None,None,,,,,,,18,27,female,18,2022_May_10_1139,Partial repeat,2021.2.3,59.90373420323014,
1,1,0,1,3,2,2,2,0,0,0,1,1,1,0,0,139,139,139,,,,,,,,,,,,,,,,,,,,,,,,,,,,,,18,27,female,18,2022_May_10_1139,Partial repeat,2021.2.3,59.90373420323014,
1,1,0,1,2,2,2,1,0,0,1,0,1,1,0,0,140,140,140,0,0,0,0,,,,,,,981.8848976008594,None,982.2272762004286,None,982.9585140012205,None,l,1,0.4263315014541149,982.9585140012205,None,None,None,,,,,,,18,27,female,18,2022_May_10_1139,Partial repeat,2021.2.3,59.90373420323014,
1,1,0,1,2,2,2,1,0,0,1,0,1,1,0,0,140,140,140,1,0,1,0,,,,,,,,,983.4113440997899,None,984.1433374006301,None,l,1,0.3294782005250454,984.1433374006301,None,None,None,,,,,,,18,27,female,18,2022_May_10_1139,Partial repeat,2021.2.3,59.90373420323014,
1,1,0,1,2,2,2,1,0,0,1,0,1,1,0,0,140,140,140,,,,,,,,,,,,,,,,,,,,,,,,,,,,,,18,27,female,18,2022_May_10_1139,Partial repeat,2021.2.3,59.90373420323014,
1,1,0,1,2,3,2,1,1,1,0,0,1,1,0,0,141,141,141,0,0,0,0,,,,,,,984.4934903010726,None,984.832255801186,None,985.6628676000983,None,s,1,0.44994630105793476,985.6628676000983,None,None,None,,,,,,,18,27,female,18,2022_May_10_1139,Partial repeat,2021.2.3,59.90373420323014,
1,1,0,1,2,3,2,1,1,1,0,0,1,1,0,0,141,141,141,1,0,1,0,,,,,,,,,986.136790400371,None,986.9153473004699,None,s,1,0.40554070100188255,986.9153473004699,None,None,None,,,,,,,18,27,female,18,2022_May_10_1139,Partial repeat,2021.2.3,59.90373420323014,
1,1,0,1,2,3,2,1,1,1,0,0,1,1,0,0,141,141,141,,,,,,,,,,,,,,,,,,,,,,,,,,,,,,18,27,female,18,2022_May_10_1139,Partial repeat,2021.2.3,59.90373420323014,
1,1,0,1,2,3,1,2,0,1,0,0,0,1,0,0,142,142,142,0,0,0,0,,,,,,,987.351002400741,None,987.854795800522,None,988.6016512010247,None,l,1,0.39119979925453663,988.6016512010247,None,None,None,,,,,,,18,27,female,18,2022_May_10_1139,Partial repeat,2021.2.3,59.90373420323014,
1,1,0,1,2,3,1,2,0,1,0,0,0,1,0,0,142,142,142,1,0,1,0,,,,,,,,,989.0108337011188,None,989.8543555997312,None,s,1,0.4344637989997864,989.8543555997312,None,None,None,,,,,,,18,27,female,18,2022_May_10_1139,Partial repeat,2021.2.3,59.90373420323014,
1,1,0,1,2,3,1,2,0,1,0,0,0,1,0,0,142,142,142,,,,,,,,,,,,,,,,,,,,,,,,,,,,,,18,27,female,18,2022_May_10_1139,Partial repeat,2021.2.3,59.90373420323014,
1,1,0,1,2,3,1,2,0,0,0,0,1,1,0,0,143,143,143,0,0,0,0,,,,,,,990.3136052004993,None,990.6770422011614,None,991.6577500011772,None,l,1,0.455035999417305,991.6577500011772,None,None,None,,,,,,,18,27,female,18,2022_May_10_1139,Partial repeat,2021.2.3,59.90373420323014,
1,1,0,1,2,3,1,2,0,0,0,0,1,1,0,0,143,143,143,1,0,1,0,,,,,,,,,992.1314062010497,None,992.8600913006812,None,l,1,0.3967276010662317,992.8600913006812,None,None,None,,,,,,,18,27,female,18,2022_May_10_1139,Partial repeat,2021.2.3,59.90373420323014,
1,1,0,1,2,3,1,2,0,0,0,0,1,1,0,0,143,143,143,,,,,,,,,,,,,,,,,,,,,,,,,,,,,,18,27,female,18,2022_May_10_1139,Partial repeat,2021.2.3,59.90373420323014,
1,1,0,1,3,2,1,2,0,0,0,0,1,1,0,0,144,144,144,0,0,0,0,,,,,,,993.2743439003825,None,993.849786600098,None,994.7135972008109,None,l,1,0.4552865996956825,994.7135972008109,None,None,None,,,,,,,18,27,female,18,2022_May_10_1139,Partial repeat,2021.2.3,59.90373420323014,
1,1,0,1,3,2,1,2,0,0,0,0,1,1,0,0,144,144,144,1,0,1,0,,,,,,,,,995.1875285003334,None,996.1847265008837,None,l,1,0.3601191993802786,996.1847265008837,None,None,None,,,,,,,18,27,female,18,2022_May_10_1139,Partial repeat,2021.2.3,59.90373420323014,
1,1,0,1,3,2,1,2,0,0,0,0,1,1,0,0,144,144,144,,,,,,,,,,,,,,,,,,,,,,,,,,,,,,18,27,female,18,2022_May_10_1139,Partial repeat,2021.2.3,59.90373420323014,
1,1,0,1,2,2,2,2,0,1,1,1,0,1,0,0,145,145,145,0,0,0,0,,,,,,,996.5596759002656,None,997.4903015010059,None,998.2877885997295,None,l,1,0.37702349945902824,998.2877885997295,None,None,None,,,,,,,18,27,female,18,2022_May_10_1139,Partial repeat,2021.2.3,59.90373420323014,
1,1,0,1,2,2,2,2,0,1,1,1,0,1,0,0,145,145,145,1,0,1,0,,,,,,,,,998.6781675014645,None,999.6064667999744,None,s,1,0.4743457995355129,999.6064667999744,None,None,None,,,,,,,18,27,female,18,2022_May_10_1139,Partial repeat,2021.2.3,59.90373420323014,
1,1,0,1,2,2,2,2,0,1,1,1,0,1,0,0,145,145,145,,,,,,,,,,,,,,,,,,,,,,,,,,,,,,18,27,female,18,2022_May_10_1139,Partial repeat,2021.2.3,59.90373420323014,
1,1,0,1,3,2,2,2,1,1,0,1,1,1,0,0,146,146,146,0,0,0,0,,,,,,,1000.104962900281,None,1000.7132054008543,None,1001.677693599835,None,s,1,0.6111555993556976,1001.677693599835,None,None,None,,,,,,,18,27,female,18,2022_May_10_1139,Partial repeat,2021.2.3,59.90373420323014,
1,1,0,1,3,2,2,2,1,1,0,1,1,1,0,0,146,146,146,1,0,1,0,,,,,,,,,1002.3176026996225,None,1003.3301763013005,None,s,1,0.41466029919683933,1003.3301763013005,None,None,None,,,,,,,18,27,female,18,2022_May_10_1139,Partial repeat,2021.2.3,59.90373420323014,
1,1,0,1,3,2,2,2,1,1,0,1,1,1,0,0,146,146,146,,,,,,,,,,,,,,,,,,,,,,,,,,,,,,18,27,female,18,2022_May_10_1139,Partial repeat,2021.2.3,59.90373420323014,
1,1,0,1,2,3,2,2,0,1,0,1,0,1,0,0,147,147,147,0,0,0,0,,,,,,,1003.764821600169,None,1004.9547681007534,None,1005.7016596999019,None,l,1,0.6031458005309105,1005.7016596999019,None,None,None,,,,,,,18,27,female,18,2022_May_10_1139,Partial repeat,2021.2.3,59.90373420323014,
1,1,0,1,2,3,2,2,0,1,0,1,0,1,0,0,147,147,147,1,0,1,0,,,,,,,,,1006.3171401005238,None,1007.288109401241,None,s,1,1.000695500522852,1007.288109401241,None,None,None,,,,,,,18,27,female,18,2022_May_10_1139,Partial repeat,2021.2.3,59.90373420323014,
1,1,0,1,2,3,2,2,0,1,0,1,0,1,0,0,147,147,147,,,,,,,,,,,,,,,,,,,,,,,,,,,,,,18,27,female,18,2022_May_10_1139,Partial repeat,2021.2.3,59.90373420323014,
1,1,0,1,3,2,1,2,0,1,0,0,0,1,0,0,148,148,148,0,0,0,0,,,,,,,1008.3184649012983,None,1008.8958331998438,None,1009.7762668002397,None,l,1,0.7206791006028652,1009.7762668002397,None,None,None,,,,,,,18,27,female,18,2022_May_10_1139,Partial repeat,2021.2.3,59.90373420323014,
1,1,0,1,3,2,1,2,0,1,0,0,0,1,0,0,148,148,148,1,0,1,0,,,,,,,,,1010.5063803009689,None,1011.3963318001479,None,s,1,0.3964738994836807,1011.3963318001479,None,None,None,,,,,,,18,27,female,18,2022_May_10_1139,Partial repeat,2021.2.3,59.90373420323014,
1,1,0,1,3,2,1,2,0,1,0,0,0,1,0,0,148,148,148,,,,,,,,,,,,,,,,,,,,,,,,,,,,,,18,27,female,18,2022_May_10_1139,Partial repeat,2021.2.3,59.90373420323014,
1,1,0,1,3,3,1,2,0,0,1,0,1,1,0,0,149,149,149,0,0,0,0,,,,,,,1011.8119422011077,None,1012.2857477013022,None,1013.2332551013678,None,l,1,0.5116032008081675,1013.2332551013678,None,None,None,,,,,,,18,27,female,18,2022_May_10_1139,Partial repeat,2021.2.3,59.90373420323014,
1,1,0,1,3,3,1,2,0,0,1,0,1,1,0,0,149,149,149,1,0,1,0,,,,,,,,,1013.7533636000007,None,1014.5188143998384,None,l,1,0.3220467008650303,1014.5188143998384,None,None,None,,,,,,,18,27,female,18,2022_May_10_1139,Partial repeat,2021.2.3,59.90373420323014,
1,1,0,1,3,3,1,2,0,0,1,0,1,1,0,0,149,149,149,,,,,,,,,,,,,,,,,,,,,,,,,,,,,,18,27,female,18,2022_May_10_1139,Partial repeat,2021.2.3,59.90373420323014,
1,1,0,1,3,3,2,1,1,0,1,0,0,1,0,0,150,150,150,0,0,0,0,,,,,,,1014.8721881005913,None,1015.2080995012075,None,1016.2224030010402,None,s,1,0.4903686996549368,1016.2224030010402,None,None,None,,,,,,,18,27,female,18,2022_May_10_1139,Partial repeat,2021.2.3,59.90373420323014,
1,1,0,1,3,3,2,1,1,0,1,0,0,1,0,0,150,150,150,1,0,1,0,,,,,,,,,1016.7210547998548,None,1017.6585576012731,None,l,1,0.4382458012551069,1017.6585576012731,None,None,None,,,,,,,18,27,female,18,2022_May_10_1139,Partial repeat,2021.2.3,59.90373420323014,
1,1,0,1,3,3,2,1,1,0,1,0,0,1,0,0,150,150,150,,,,,,,,,,,,,,,,,,,,,,,,,,,,,,18,27,female,18,2022_May_10_1139,Partial repeat,2021.2.3,59.90373420323014,
1,1,0,1,3,3,2,1,0,0,1,0,1,1,0,0,151,151,151,0,0,0,0,,,,,,,1018.1180253010243,None,1018.4477188009769,None,1019.3619651999325,None,l,1,0.430859100073576,1019.3619651999325,None,None,None,,,,,,,18,27,female,18,2022_May_10_1139,Partial repeat,2021.2.3,59.90373420323014,
