prime_tar_pos,probe_tar_pos,dimension,tar_color,prime_dist_color,probe_dist_color,prime_dist_shape,probe_dist_shape,prime_tar_dot_pos,probe_tar_dot_pos,col_rep,shape_rep,resp_rep,pos_fixed,sparse,MainLoop.thisRepN,MainLoop.thisTrialN,MainLoop.thisN,MainLoop.thisIndex,PrimeProbe.thisRepN,PrimeProbe.thisTrialN,PrimeProbe.thisN,PrimeProbe.thisIndex,Instruction.started,Instruction.stopped,instruction_key.keys,instruction_key.rt,instruction_key.started,instruction_key.stopped,PairStartText.started,PairStartText.stopped,FixCross.started,FixCross.stopped,SearchFixCross.started,SearchFixCross.stopped,key_resp.keys,key_resp.corr,key_resp.rt,key_resp.started,key_resp.stopped,feedback_text.started,feedback_text.stopped,text_finish.started,text_finish.stopped,finish_key.keys,finish_key.rt,finish_key.started,finish_key.stopped,participant,age,gender,group,date,expName,psychopyVersion,frameRate,
,,,,,,,,,,,,,,,,,,,,,,,28.58919950015843,None,space,66.8548732008785,28.58919950015843,None,,,,,,,,,,,,,,,,,,,,19,21,female,19,2022_May_10_1155,Partial repeat,2021.2.3,59.87281784709459,
6,6,0,1,3,3,2,1,1,1,1,0,1,0,0,0,0,0,0,0,0,0,0,,,,,,,95.56873380020261,None,97.98268680088222,None,98.71743790060282,None,s,1,2.0624729990959167,98.71743790060282,None,None,None,,,,,,,19,21,female,19,2022_May_10_1155,Partial repeat,2021.2.3,59.87281784709459,
6,6,0,1,3,3,2,1,1,1,1,0,1,0,0,0,0,0,0,1,0,1,0,,,,,,,,,100.79345670156181,None,101.68528990074992,None,s,1,0.5746212992817163,101.68528990074992,None,None,None,,,,,,,19,21,female,19,2022_May_10_1155,Partial repeat,2021.2.3,59.87281784709459,
6,6,0,1,3,3,2,1,1,1,1,0,1,0,0,0,0,0,0,,,,,,,,,,,,,,,,,,,,,,,,,,,,,,19,21,female,19,2022_May_10_1155,Partial repeat,2021.2.3,59.87281784709459,
3,3,0,1,3,3,2,2,0,0,1,1,1,0,0,0,1,1,1,0,0,0,0,,,,,,,102.27376150153577,None,103.99447430111468,None,104.89162330143154,None,l,1,0.6323595996946096,104.89162330143154,None,None,None,,,,,,,19,21,female,19,2022_May_10_1155,Partial repeat,2021.2.3,59.87281784709459,
3,3,0,1,3,3,2,2,0,0,1,1,1,0,0,0,1,1,1,1,0,1,0,,,,,,,,,105.53503010049462,None,106.26130400039256,None,l,1,0.5586075987666845,106.26130400039256,None,None,None,,,,,,,19,21,female,19,2022_May_10_1155,Partial repeat,2021.2.3,59.87281784709459,
3,3,0,1,3,3,2,2,0,0,1,1,1,0,0,0,1,1,1,,,,,,,,,,,,,,,,,,,,,,,,,,,,,,19,21,female,19,2022_May_10_1155,Partial repeat,2021.2.3,59.87281784709459,
1,3,0,1,3,2,1,1,0,1,0,1,0,0,0,0,2,2,2,0,0,0,0,,,,,,,106.84963400103152,None,108.13584580086172,None,108.8992999009788,None,l,1,0.520567599684,108.8992999009788,None,None,None,,,,,,,19,21,female,19,2022_May_10_1155,Partial repeat,2021.2.3,59.87281784709459,
1,3,0,1,3,2,1,1,0,1,0,1,0,0,0,0,2,2,2,1,0,1,0,,,,,,,,,109.43758810125291,None,110.41907340101898,None,s,1,0.7207746002823114,110.41907340101898,None,None,None,,,,,,,19,21,female,19,2022_May_10_1155,Partial repeat,2021.2.3,59.87281784709459,
1,3,0,1,3,2,1,1,0,1,0,1,0,0,0,0,2,2,2,,,,,,,,,,,,,,,,,,,,,,,,,,,,,,19,21,female,19,2022_May_10_1155,Partial repeat,2021.2.3,59.87281784709459,
4,8,0,1,3,2,2,1,1,0,0,0,0,0,0,0,3,3,3,0,0,0,0,,,,,,,111.15744080021977,None,114.06403780169785,None,115.0625029001385,None,s,1,0.6853993013501167,115.0625029001385,None,None,None,,,,,,,19,21,female,19,2022_May_10_1155,Partial repeat,2021.2.3,59.87281784709459,
4,8,0,1,3,2,2,1,1,0,0,0,0,0,0,0,3,3,3,1,0,1,0,,,,,,,,,115.7658317014575,None,116.48078360036016,None,l,1,0.6911147013306618,116.48078360036016,None,None,None,,,,,,,19,21,female,19,2022_May_10_1155,Partial repeat,2021.2.3,59.87281784709459,
4,8,0,1,3,2,2,1,1,0,0,0,0,0,0,0,3,3,3,,,,,,,,,,,,,,,,,,,,,,,,,,,,,,19,21,female,19,2022_May_10_1155,Partial repeat,2021.2.3,59.87281784709459,
8,6,0,1,2,3,2,2,1,1,0,1,1,0,0,0,4,4,4,0,0,0,0,,,,,,,117.19561050087214,None,118.20540600083768,None,118.93668860010803,None,l,0,0.5552188009023666,118.93668860010803,None,119.51756690070033,None,,,,,,,19,21,female,19,2022_May_10_1155,Partial repeat,2021.2.3,59.87281784709459,
8,6,0,1,2,3,2,2,1,1,0,1,1,0,0,0,4,4,4,1,0,1,0,,,,,,,,,120.02567380107939,None,120.90629920177162,None,s,1,0.8336154986172915,120.90629920177162,None,None,None,,,,,,,19,21,female,19,2022_May_10_1155,Partial repeat,2021.2.3,59.87281784709459,
8,6,0,1,2,3,2,2,1,1,0,1,1,0,0,0,4,4,4,,,,,,,,,,,,,,,,,,,,,,,,,,,,,,19,21,female,19,2022_May_10_1155,Partial repeat,2021.2.3,59.87281784709459,
6,7,0,1,2,2,2,1,1,1,1,0,1,0,0,0,5,5,5,0,0,0,0,,,,,,,121.76603469997644,None,125.25247259996831,None,126.26690920069814,None,s,1,0.8330354001373053,126.26690920069814,None,None,None,,,,,,,19,21,female,19,2022_May_10_1155,Partial repeat,2021.2.3,59.87281784709459,
6,7,0,1,2,2,2,1,1,1,1,0,1,0,0,0,5,5,5,1,0,1,0,,,,,,,,,127.12789230048656,None,128.00319430045784,None,s,1,0.5687109995633364,128.00319430045784,None,None,None,,,,,,,19,21,female,19,2022_May_10_1155,Partial repeat,2021.2.3,59.87281784709459,
6,7,0,1,2,2,2,1,1,1,1,0,1,0,0,0,5,5,5,,,,,,,,,,,,,,,,,,,,,,,,,,,,,,19,21,female,19,2022_May_10_1155,Partial repeat,2021.2.3,59.87281784709459,
7,6,0,1,3,2,1,2,0,1,0,0,0,0,0,0,6,6,6,0,0,0,0,,,,,,,128.58782460168004,None,129.74452430009842,None,130.59156470000744,None,l,1,0.5723739992827177,130.59156470000744,None,None,None,,,,,,,19,21,female,19,2022_May_10_1155,Partial repeat,2021.2.3,59.87281784709459,
7,6,0,1,3,2,1,2,0,1,0,0,0,0,0,0,6,6,6,1,0,1,0,,,,,,,,,131.17213320173323,None,131.92773990146816,None,s,1,0.5001623015850782,131.92773990146816,None,None,None,,,,,,,19,21,female,19,2022_May_10_1155,Partial repeat,2021.2.3,59.87281784709459,
7,6,0,1,3,2,1,2,0,1,0,0,0,0,0,0,6,6,6,,,,,,,,,,,,,,,,,,,,,,,,,,,,,,19,21,female,19,2022_May_10_1155,Partial repeat,2021.2.3,59.87281784709459,
1,8,0,1,3,3,1,1,0,1,1,1,0,0,0,0,7,7,7,0,0,0,0,,,,,,,132.44867140054703,None,137.29255600087345,None,138.15635330043733,None,l,1,0.519522700458765,138.15635330043733,None,None,None,,,,,,,19,21,female,19,2022_May_10_1155,Partial repeat,2021.2.3,59.87281784709459,
1,8,0,1,3,3,1,1,0,1,1,1,0,0,0,0,7,7,7,1,0,1,0,,,,,,,,,138.69893100112677,None,139.5756845008582,None,s,1,0.7402225006371737,139.5756845008582,None,None,None,,,,,,,19,21,female,19,2022_May_10_1155,Partial repeat,2021.2.3,59.87281784709459,
1,8,0,1,3,3,1,1,0,1,1,1,0,0,0,0,7,7,7,,,,,,,,,,,,,,,,,,,,,,,,,,,,,,19,21,female,19,2022_May_10_1155,Partial repeat,2021.2.3,59.87281784709459,
6,5,0,1,2,3,2,1,0,0,0,0,1,0,0,0,8,8,8,0,0,0,0,,,,,,,140.3314122017473,None,140.93299210071564,None,141.6965765003115,None,l,1,0.891398498788476,141.6965765003115,None,None,None,,,,,,,19,21,female,19,2022_May_10_1155,Partial repeat,2021.2.3,59.87281784709459,
6,5,0,1,2,3,2,1,0,0,0,0,1,0,0,0,8,8,8,1,0,1,0,,,,,,,,,142.61650460027158,None,143.56758720055223,None,l,1,0.5803497992455959,143.56758720055223,None,None,None,,,,,,,19,21,female,19,2022_May_10_1155,Partial repeat,2021.2.3,59.87281784709459,
6,5,0,1,2,3,2,1,0,0,0,0,1,0,0,0,8,8,8,,,,,,,,,,,,,,,,,,,,,,,,,,,,,,19,21,female,19,2022_May_10_1155,Partial repeat,2021.2.3,59.87281784709459,
8,1,0,1,3,3,2,2,1,0,1,1,0,0,0,0,9,9,9,0,0,0,0,,,,,,,144.1746716015041,None,145.00760580040514,None,145.98825200088322,None,s,1,0.9116600006818771,145.98825200088322,None,None,None,,,,,,,19,21,female,19,2022_May_10_1155,Partial repeat,2021.2.3,59.87281784709459,
8,1,0,1,3,3,2,2,1,0,1,1,0,0,0,0,9,9,9,1,0,1,0,,,,,,,,,146.92069930024445,None,147.69130830094218,None,l,1,0.656563900411129,147.69130830094218,None,None,None,,,,,,,19,21,female,19,2022_May_10_1155,Partial repeat,2021.2.3,59.87281784709459,
8,1,0,1,3,3,2,2,1,0,1,1,0,0,0,0,9,9,9,,,,,,,,,,,,,,,,,,,,,,,,,,,,,,19,21,female,19,2022_May_10_1155,Partial repeat,2021.2.3,59.87281784709459,
7,7,0,1,3,3,1,2,1,1,1,0,1,0,0,0,10,10,10,0,0,0,0,,,,,,,148.3651824016124,None,148.9318849015981,None,149.7959352005273,None,s,1,0.8479584995657206,149.7959352005273,None,None,None,,,,,,,19,21,female,19,2022_May_10_1155,Partial repeat,2021.2.3,59.87281784709459,
7,7,0,1,3,3,1,2,1,1,1,0,1,0,0,0,10,10,10,1,0,1,0,,,,,,,,,150.66982610151172,None,151.53242349997163,None,s,1,0.35947469994425774,151.53242349997163,None,None,None,,,,,,,19,21,female,19,2022_May_10_1155,Partial repeat,2021.2.3,59.87281784709459,
7,7,0,1,3,3,1,2,1,1,1,0,1,0,0,0,10,10,10,,,,,,,,,,,,,,,,,,,,,,,,,,,,,,19,21,female,19,2022_May_10_1155,Partial repeat,2021.2.3,59.87281784709459,
3,4,0,1,3,2,2,2,0,0,0,1,1,0,0,0,11,11,11,0,0,0,0,,,,,,,151.90665020048618,None,152.37193020060658,None,153.20250580087304,None,l,1,0.7854347005486488,153.20250580087304,None,None,None,,,,,,,19,21,female,19,2022_May_10_1155,Partial repeat,2021.2.3,59.87281784709459,
3,4,0,1,3,2,2,2,0,0,0,1,1,0,0,0,11,11,11,1,0,1,0,,,,,,,,,154.01638110168278,None,154.9723695013672,None,l,1,0.5595279987901449,154.9723695013672,None,None,None,,,,,,,19,21,female,19,2022_May_10_1155,Partial repeat,2021.2.3,59.87281784709459,
3,4,0,1,3,2,2,2,0,0,0,1,1,0,0,0,11,11,11,,,,,,,,,,,,,,,,,,,,,,,,,,,,,,19,21,female,19,2022_May_10_1155,Partial repeat,2021.2.3,59.87281784709459,
5,3,0,1,3,3,2,2,0,1,1,1,0,0,0,0,12,12,12,0,0,0,0,,,,,,,155.55941960029304,None,156.0123345013708,None,156.85952710174024,None,l,1,0.8163745999336243,156.85952710174024,None,None,None,,,,,,,19,21,female,19,2022_May_10_1155,Partial repeat,2021.2.3,59.87281784709459,
5,3,0,1,3,3,2,2,0,1,1,1,0,0,0,0,12,12,12,1,0,1,0,,,,,,,,,157.69813960045576,None,158.46270740032196,None,s,1,0.533254399895668,158.46270740032196,None,None,None,,,,,,,19,21,female,19,2022_May_10_1155,Partial repeat,2021.2.3,59.87281784709459,
5,3,0,1,3,3,2,2,0,1,1,1,0,0,0,0,12,12,12,,,,,,,,,,,,,,,,,,,,,,,,,,,,,,19,21,female,19,2022_May_10_1155,Partial repeat,2021.2.3,59.87281784709459,
7,4,0,1,3,3,1,1,1,0,1,1,0,0,0,0,13,13,13,0,0,0,0,,,,,,,159.01010220125318,None,159.4022697005421,None,160.29933300055563,None,s,1,0.5765643008053303,160.29933300055563,None,None,None,,,,,,,19,21,female,19,2022_May_10_1155,Partial repeat,2021.2.3,59.87281784709459,
7,4,0,1,3,3,1,1,1,0,1,1,0,0,0,0,13,13,13,1,0,1,0,,,,,,,,,160.90056290104985,None,161.81907860003412,None,l,1,0.5608216002583504,161.81907860003412,None,None,None,,,,,,,19,21,female,19,2022_May_10_1155,Partial repeat,2021.2.3,59.87281784709459,
7,4,0,1,3,3,1,1,1,0,1,1,0,0,0,0,13,13,13,,,,,,,,,,,,,,,,,,,,,,,,,,,,,,19,21,female,19,2022_May_10_1155,Partial repeat,2021.2.3,59.87281784709459,
3,5,0,1,2,2,1,2,0,1,1,0,0,0,0,0,14,14,14,0,0,0,0,,,,,,,162.40403670072556,None,162.85896560177207,None,163.85652150027454,None,l,1,0.6833437010645866,163.85652150027454,None,None,None,,,,,,,19,21,female,19,2022_May_10_1155,Partial repeat,2021.2.3,59.87281784709459,
3,5,0,1,2,2,1,2,0,1,1,0,0,0,0,0,14,14,14,1,0,1,0,,,,,,,,,164.54927040077746,None,165.54286820068955,None,s,1,0.4610275011509657,165.54286820068955,None,None,None,,,,,,,19,21,female,19,2022_May_10_1155,Partial repeat,2021.2.3,59.87281784709459,
3,5,0,1,2,2,1,2,0,1,1,0,0,0,0,0,14,14,14,,,,,,,,,,,,,,,,,,,,,,,,,,,,,,19,21,female,19,2022_May_10_1155,Partial repeat,2021.2.3,59.87281784709459,
4,3,0,1,3,2,1,2,0,0,0,0,1,0,0,0,15,15,15,0,0,0,0,,,,,,,166.02684430032969,None,166.49942010082304,None,167.263228001073,None,l,1,0.7487282995134592,167.263228001073,None,None,None,,,,,,,19,21,female,19,2022_May_10_1155,Partial repeat,2021.2.3,59.87281784709459,
4,3,0,1,3,2,1,2,0,0,0,0,1,0,0,0,15,15,15,1,0,1,0,,,,,,,,,168.03291420079768,None,168.8662743009627,None,l,1,0.5456211008131504,168.8662743009627,None,None,None,,,,,,,19,21,female,19,2022_May_10_1155,Partial repeat,2021.2.3,59.87281784709459,
4,3,0,1,3,2,1,2,0,0,0,0,1,0,0,0,15,15,15,,,,,,,,,,,,,,,,,,,,,,,,,,,,,,19,21,female,19,2022_May_10_1155,Partial repeat,2021.2.3,59.87281784709459,
2,2,0,1,2,2,2,1,1,0,1,0,0,0,0,0,16,16,16,0,0,0,0,,,,,,,169.43197860009968,None,169.80582760088146,None,170.5359025001526,None,s,1,0.939963499084115,170.5359025001526,None,None,None,,,,,,,19,21,female,19,2022_May_10_1155,Partial repeat,2021.2.3,59.87281784709459,
2,2,0,1,2,2,2,1,1,0,1,0,0,0,0,0,16,16,16,1,0,1,0,,,,,,,,,171.4937518015504,None,172.35620880126953,None,l,1,0.6556935012340546,172.35620880126953,None,None,None,,,,,,,19,21,female,19,2022_May_10_1155,Partial repeat,2021.2.3,59.87281784709459,
2,2,0,1,2,2,2,1,1,0,1,0,0,0,0,0,16,16,16,,,,,,,,,,,,,,,,,,,,,,,,,,,,,,19,21,female,19,2022_May_10_1155,Partial repeat,2021.2.3,59.87281784709459,
1,1,0,1,2,3,1,1,0,1,0,1,0,0,0,0,17,17,17,0,0,0,0,,,,,,,173.02552570030093,None,173.4962800014764,None,174.22669890150428,None,l,1,0.7451947014778852,174.22669890150428,None,None,None,,,,,,,19,21,female,19,2022_May_10_1155,Partial repeat,2021.2.3,59.87281784709459,
1,1,0,1,2,3,1,1,0,1,0,1,0,0,0,0,17,17,17,1,0,1,0,,,,,,,,,174.99346709996462,None,175.91325680166483,None,s,1,0.47469699941575527,175.91325680166483,None,None,None,,,,,,,19,21,female,19,2022_May_10_1155,Partial repeat,2021.2.3,59.87281784709459,
1,1,0,1,2,3,1,1,0,1,0,1,0,0,0,0,17,17,17,,,,,,,,,,,,,,,,,,,,,,,,,,,,,,19,21,female,19,2022_May_10_1155,Partial repeat,2021.2.3,59.87281784709459,
4,4,0,1,3,2,1,1,0,0,0,1,1,0,0,0,18,18,18,0,0,0,0,,,,,,,176.4171885009855,None,176.78606070019305,None,177.76675760000944,None,l,1,0.6451325006783009,177.76675760000944,None,None,None,,,,,,,19,21,female,19,2022_May_10_1155,Partial repeat,2021.2.3,59.87281784709459,
4,4,0,1,3,2,1,1,0,0,0,1,1,0,0,0,18,18,18,1,0,1,0,,,,,,,,,178.43550860136747,None,179.45342140085995,None,l,1,0.6944471001625061,179.45342140085995,None,None,None,,,,,,,19,21,female,19,2022_May_10_1155,Partial repeat,2021.2.3,59.87281784709459,
4,4,0,1,3,2,1,1,0,0,0,1,1,0,0,0,18,18,18,,,,,,,,,,,,,,,,,,,,,,,,,,,,,,19,21,female,19,2022_May_10_1155,Partial repeat,2021.2.3,59.87281784709459,
2,7,0,1,2,3,1,1,1,1,0,1,1,0,0,0,19,19,19,0,0,0,0,,,,,,,180.16913290135562,None,180.57678220048547,None,181.44094290025532,None,s,1,0.6029800996184349,181.44094290025532,None,None,None,,,,,,,19,21,female,19,2022_May_10_1155,Partial repeat,2021.2.3,59.87281784709459,
2,7,0,1,2,3,1,1,1,1,0,1,1,0,0,0,19,19,19,1,0,1,0,,,,,,,,,182.0678161010146,None,182.94351720064878,None,s,1,0.7964101992547512,182.94351720064878,None,None,None,,,,,,,19,21,female,19,2022_May_10_1155,Partial repeat,2021.2.3,59.87281784709459,
2,7,0,1,2,3,1,1,1,1,0,1,1,0,0,0,19,19,19,,,,,,,,,,,,,,,,,,,,,,,,,,,,,,19,21,female,19,2022_May_10_1155,Partial repeat,2021.2.3,59.87281784709459,
4,1,0,1,3,2,2,1,0,0,0,0,1,0,0,0,20,20,20,0,0,0,0,,,,,,,183.75966800004244,None,184.1170056015253,None,184.8471630010754,None,l,1,0.6447040997445583,184.8471630010754,None,None,None,,,,,,,19,21,female,19,2022_May_10_1155,Partial repeat,2021.2.3,59.87281784709459,
4,1,0,1,3,2,2,1,0,0,0,0,1,0,0,0,20,20,20,1,0,1,0,,,,,,,,,185.51595440134406,None,186.31791000068188,None,l,1,0.5339869000017643,186.31791000068188,None,None,None,,,,,,,19,21,female,19,2022_May_10_1155,Partial repeat,2021.2.3,59.87281784709459,
4,1,0,1,3,2,2,1,0,0,0,0,1,0,0,0,20,20,20,,,,,,,,,,,,,,,,,,,,,,,,,,,,,,19,21,female,19,2022_May_10_1155,Partial repeat,2021.2.3,59.87281784709459,
2,4,0,1,2,2,1,2,1,0,1,0,0,0,0,0,21,21,21,0,0,0,0,,,,,,,186.87917930074036,None,187.23960800096393,None,188.22059930115938,None,s,1,0.6392950993031263,188.22059930115938,None,None,None,,,,,,,19,21,female,19,2022_May_10_1155,Partial repeat,2021.2.3,59.87281784709459,
2,4,0,1,2,2,1,2,1,0,1,0,0,0,0,0,21,21,21,1,0,1,0,,,,,,,,,188.88516680151224,None,189.69023040123284,None,s,0,0.4337242003530264,189.69023040123284,None,190.1478887014091,None,,,,,,,19,21,female,19,2022_May_10_1155,Partial repeat,2021.2.3,59.87281784709459,
2,4,0,1,2,2,1,2,1,0,1,0,0,0,0,0,21,21,21,,,,,,,,,,,,,,,,,,,,,,,,,,,,,,19,21,female,19,2022_May_10_1155,Partial repeat,2021.2.3,59.87281784709459,
5,8,0,1,2,2,2,1,0,0,1,0,1,0,0,0,22,22,22,0,0,0,0,,,,,,,190.66294990107417,None,191.51463710144162,None,192.2819306012243,None,l,1,0.7059589009732008,192.2819306012243,None,None,None,,,,,,,19,21,female,19,2022_May_10_1155,Partial repeat,2021.2.3,59.87281784709459,
5,8,0,1,2,2,2,1,0,0,1,0,1,0,0,0,22,22,22,1,0,1,0,,,,,,,,,193.01000720076263,None,193.96486380137503,None,l,1,0.5269710998982191,193.96486380137503,None,None,None,,,,,,,19,21,female,19,2022_May_10_1155,Partial repeat,2021.2.3,59.87281784709459,
5,8,0,1,2,2,2,1,0,0,1,0,1,0,0,0,22,22,22,,,,,,,,,,,,,,,,,,,,,,,,,,,,,,19,21,female,19,2022_May_10_1155,Partial repeat,2021.2.3,59.87281784709459,
1,2,0,1,3,3,1,1,1,1,1,1,1,0,0,0,23,23,23,0,0,0,0,,,,,,,194.50361360050738,None,194.9213856011629,None,195.76857160031796,None,s,1,0.515352999791503,195.76857160031796,None,None,None,,,,,,,19,21,female,19,2022_May_10_1155,Partial repeat,2021.2.3,59.87281784709459,
1,2,0,1,3,3,1,1,1,1,1,1,1,0,0,0,23,23,23,1,0,1,0,,,,,,,,,196.3064446002245,None,197.27129970118403,None,s,1,0.4925866015255451,197.27129970118403,None,None,None,,,,,,,19,21,female,19,2022_May_10_1155,Partial repeat,2021.2.3,59.87281784709459,
1,2,0,1,3,3,1,1,1,1,1,1,1,0,0,0,23,23,23,,,,,,,,,,,,,,,,,,,,,,,,,,,,,,19,21,female,19,2022_May_10_1155,Partial repeat,2021.2.3,59.87281784709459,
7,1,0,1,2,2,2,2,0,1,1,1,0,0,0,0,24,24,24,0,0,0,0,,,,,,,197.78057740069926,None,198.07751610130072,None,198.95816300064325,None,l,1,0.5417218003422022,198.95816300064325,None,None,None,,,,,,,19,21,female,19,2022_May_10_1155,Partial repeat,2021.2.3,59.87281784709459,
7,1,0,1,2,2,2,2,0,1,1,1,0,0,0,0,24,24,24,1,0,1,0,,,,,,,,,199.51902320049703,None,200.41071690060198,None,s,1,0.6572542004287243,200.41071690060198,None,None,None,,,,,,,19,21,female,19,2022_May_10_1155,Partial repeat,2021.2.3,59.87281784709459,
7,1,0,1,2,2,2,2,0,1,1,1,0,0,0,0,24,24,24,,,,,,,,,,,,,,,,,,,,,,,,,,,,,,19,21,female,19,2022_May_10_1155,Partial repeat,2021.2.3,59.87281784709459,
1,7,0,1,2,3,2,2,0,1,0,1,0,0,0,0,25,25,25,0,0,0,0,,,,,,,201.08071850053966,None,201.40062020160258,None,202.19783640094101,None,l,1,0.5500388015061617,202.19783640094101,None,None,None,,,,,,,19,21,female,19,2022_May_10_1155,Partial repeat,2021.2.3,59.87281784709459,
1,7,0,1,2,3,2,2,0,1,0,1,0,0,0,0,25,25,25,1,0,1,0,,,,,,,,,202.75771180167794,None,203.6172312013805,None,s,1,0.6666603982448578,203.6172312013805,None,None,None,,,,,,,19,21,female,19,2022_May_10_1155,Partial repeat,2021.2.3,59.87281784709459,
1,7,0,1,2,3,2,2,0,1,0,1,0,0,0,0,25,25,25,,,,,,,,,,,,,,,,,,,,,,,,,,,,,,19,21,female,19,2022_May_10_1155,Partial repeat,2021.2.3,59.87281784709459,
6,8,0,1,3,2,2,2,1,0,0,1,0,0,0,0,26,26,26,0,0,0,0,,,,,,,204.31228530034423,None,204.5733425002545,None,205.5050131008029,None,s,1,0.7788708005100489,205.5050131008029,None,None,None,,,,,,,19,21,female,19,2022_May_10_1155,Partial repeat,2021.2.3,59.87281784709459,
6,8,0,1,3,2,2,2,1,0,0,1,0,0,0,0,26,26,26,1,0,1,0,,,,,,,,,206.2953919004649,None,207.02424219995737,None,l,1,0.8916363995522261,207.02424219995737,None,None,None,,,,,,,19,21,female,19,2022_May_10_1155,Partial repeat,2021.2.3,59.87281784709459,
6,8,0,1,3,2,2,2,1,0,0,1,0,0,0,0,26,26,26,,,,,,,,,,,,,,,,,,,,,,,,,,,,,,19,21,female,19,2022_May_10_1155,Partial repeat,2021.2.3,59.87281784709459,
7,2,0,1,2,2,1,1,1,1,1,1,1,0,0,0,27,27,27,0,0,0,0,,,,,,,207.93023040145636,None,209.0653770007193,None,209.8457753006369,None,l,0,0.5980859994888306,209.8457753006369,None,210.46758310124278,None,,,,,,,19,21,female,19,2022_May_10_1155,Partial repeat,2021.2.3,59.87281784709459,
7,2,0,1,2,2,1,1,1,1,1,1,1,0,0,0,27,27,27,1,0,1,0,,,,,,,,,210.96928380057216,None,211.91636750102043,None,s,1,0.6635162997990847,211.91636750102043,None,None,None,,,,,,,19,21,female,19,2022_May_10_1155,Partial repeat,2021.2.3,59.87281784709459,
7,2,0,1,2,2,1,1,1,1,1,1,1,0,0,0,27,27,27,,,,,,,,,,,,,,,,,,,,,,,,,,,,,,19,21,female,19,2022_May_10_1155,Partial repeat,2021.2.3,59.87281784709459,
8,4,0,1,2,2,2,1,0,1,1,0,0,0,0,0,28,28,28,0,0,0,0,,,,,,,212.60797500051558,None,216.0457967016846,None,217.0444249007851,None,l,1,0.5194566007703543,217.0444249007851,None,None,None,,,,,,,19,21,female,19,2022_May_10_1155,Partial repeat,2021.2.3,59.87281784709459,
8,4,0,1,2,2,2,1,0,1,1,0,0,0,0,0,28,28,28,1,0,1,0,,,,,,,,,217.5870949011296,None,218.3789961002767,None,l,0,0.6888941004872322,218.3789961002767,None,219.08679830096662,None,,,,,,,19,21,female,19,2022_May_10_1155,Partial repeat,2021.2.3,59.87281784709459,
8,4,0,1,2,2,2,1,0,1,1,0,0,0,0,0,28,28,28,,,,,,,,,,,,,,,,,,,,,,,,,,,,,,19,21,female,19,2022_May_10_1155,Partial repeat,2021.2.3,59.87281784709459,
4,6,0,1,3,3,1,1,0,0,1,1,1,0,0,0,29,29,29,0,0,0,0,,,,,,,219.5859812013805,None,220.13711240142584,None,220.95077210105956,None,l,1,0.8931873999536037,220.95077210105956,None,None,None,,,,,,,19,21,female,19,2022_May_10_1155,Partial repeat,2021.2.3,59.87281784709459,
4,6,0,1,3,3,1,1,0,0,1,1,1,0,0,0,29,29,29,1,0,1,0,,,,,,,,,221.85177180171013,None,222.7709311004728,None,l,1,0.6249556001275778,222.7709311004728,None,None,None,,,,,,,19,21,female,19,2022_May_10_1155,Partial repeat,2021.2.3,59.87281784709459,
4,6,0,1,3,3,1,1,0,0,1,1,1,0,0,0,29,29,29,,,,,,,,,,,,,,,,,,,,,,,,,,,,,,19,21,female,19,2022_May_10_1155,Partial repeat,2021.2.3,59.87281784709459,
1,6,0,1,2,3,1,2,0,0,0,0,1,0,0,0,30,30,30,0,0,0,0,,,,,,,223.41889680176973,None,223.82762930169702,None,224.70799349993467,None,l,1,0.6878957003355026,224.70799349993467,None,None,None,,,,,,,19,21,female,19,2022_May_10_1155,Partial repeat,2021.2.3,59.87281784709459,
1,6,0,1,2,3,1,2,0,0,0,0,1,0,0,0,30,30,30,1,0,1,0,,,,,,,,,225.41674870066345,None,226.19438030011952,None,l,1,0.5055614002048969,226.19438030011952,None,None,None,,,,,,,19,21,female,19,2022_May_10_1155,Partial repeat,2021.2.3,59.87281784709459,
1,6,0,1,2,3,1,2,0,0,0,0,1,0,0,0,30,30,30,,,,,,,,,,,,,,,,,,,,,,,,,,,,,,19,21,female,19,2022_May_10_1155,Partial repeat,2021.2.3,59.87281784709459,
3,8,0,1,2,2,2,2,1,1,1,1,1,0,0,0,31,31,31,0,0,0,0,,,,,,,226.71549130044878,None,227.06721870042384,None,228.04815139994025,None,s,1,0.6757456995546818,228.04815139994025,None,None,None,,,,,,,19,21,female,19,2022_May_10_1155,Partial repeat,2021.2.3,59.87281784709459,
3,8,0,1,2,2,2,2,1,1,1,1,1,0,0,0,31,31,31,1,0,1,0,,,,,,,,,228.73868750035763,None,229.61812400072813,None,s,1,0.5138466991484165,229.61812400072813,None,None,None,,,,,,,19,21,female,19,2022_May_10_1155,Partial repeat,2021.2.3,59.87281784709459,
3,8,0,1,2,2,2,2,1,1,1,1,1,0,0,0,31,31,31,,,,,,,,,,,,,,,,,,,,,,,,,,,,,,19,21,female,19,2022_May_10_1155,Partial repeat,2021.2.3,59.87281784709459,
3,1,0,1,3,2,2,1,0,1,0,0,0,0,0,0,32,32,32,0,0,0,0,,,,,,,230.14338690042496,None,230.4571811016649,None,231.18757740035653,None,l,1,0.904415899887681,231.18757740035653,None,None,None,,,,,,,19,21,female,19,2022_May_10_1155,Partial repeat,2021.2.3,59.87281784709459,
3,1,0,1,3,2,2,1,0,1,0,0,0,0,0,0,32,32,32,1,0,1,0,,,,,,,,,232.10239580087364,None,232.90751570090652,None,s,1,0.600331999361515,232.90751570090652,None,None,None,,,,,,,19,21,female,19,2022_May_10_1155,Partial repeat,2021.2.3,59.87281784709459,
3,1,0,1,3,2,2,1,0,1,0,0,0,0,0,0,32,32,32,,,,,,,,,,,,,,,,,,,,,,,,,,,,,,19,21,female,19,2022_May_10_1155,Partial repeat,2021.2.3,59.87281784709459,
5,6,0,1,2,2,1,1,0,1,1,1,0,0,0,0,33,33,33,0,0,0,0,,,,,,,233.53241890110075,None,233.81370129995048,None,234.8110901005566,None,l,1,0.5847954992204905,234.8110901005566,None,None,None,,,,,,,19,21,female,19,2022_May_10_1155,Partial repeat,2021.2.3,59.87281784709459,
5,6,0,1,2,2,1,1,0,1,1,1,0,0,0,0,33,33,33,1,0,1,0,,,,,,,,,235.41104770079255,None,236.18068050034344,None,s,1,0.5753095988184214,236.18068050034344,None,None,None,,,,,,,19,21,female,19,2022_May_10_1155,Partial repeat,2021.2.3,59.87281784709459,
5,6,0,1,2,2,1,1,0,1,1,1,0,0,0,0,33,33,33,,,,,,,,,,,,,,,,,,,,,,,,,,,,,,19,21,female,19,2022_May_10_1155,Partial repeat,2021.2.3,59.87281784709459,
3,6,0,1,3,3,2,1,0,0,1,0,1,0,0,0,34,34,34,0,0,0,0,,,,,,,236.77028850093484,None,237.01995710097253,None,237.96805100142956,None,l,1,1.187813799828291,237.96805100142956,None,None,None,,,,,,,19,21,female,19,2022_May_10_1155,Partial repeat,2021.2.3,59.87281784709459,
3,6,0,1,3,3,2,1,0,0,1,0,1,0,0,0,34,34,34,1,0,1,0,,,,,,,,,239.16387180052698,None,240.17162810079753,None,l,1,0.6882271002978086,240.17162810079753,None,None,None,,,,,,,19,21,female,19,2022_May_10_1155,Partial repeat,2021.2.3,59.87281784709459,
3,6,0,1,3,3,2,1,0,0,1,0,1,0,0,0,34,34,34,,,,,,,,,,,,,,,,,,,,,,,,,,,,,,19,21,female,19,2022_May_10_1155,Partial repeat,2021.2.3,59.87281784709459,
4,7,0,1,2,3,1,1,0,0,0,1,1,0,0,0,35,35,35,0,0,0,0,,,,,,,240.89096940122545,None,241.22807520069182,None,242.15892150066793,None,l,1,0.5889519993215799,242.15892150066793,None,None,None,,,,,,,19,21,female,19,2022_May_10_1155,Partial repeat,2021.2.3,59.87281784709459,
4,7,0,1,2,3,1,1,0,0,0,1,1,0,0,0,35,35,35,1,0,1,0,,,,,,,,,242.757393701002,None,243.56163040176034,None,l,1,0.5382681004703045,243.56163040176034,None,None,None,,,,,,,19,21,female,19,2022_May_10_1155,Partial repeat,2021.2.3,59.87281784709459,
4,7,0,1,2,3,1,1,0,0,0,1,1,0,0,0,35,35,35,,,,,,,,,,,,,,,,,,,,,,,,,,,,,,19,21,female,19,2022_May_10_1155,Partial repeat,2021.2.3,59.87281784709459,
6,1,0,1,3,2,1,1,1,0,0,1,0,0,0,0,36,36,36,0,0,0,0,,,,,,,244.13003800064325,None,244.40097230114043,None,245.13143620081246,None,s,1,0.5364435985684395,245.13143620081246,None,None,None,,,,,,,19,21,female,19,2022_May_10_1155,Partial repeat,2021.2.3,59.87281784709459,
6,1,0,1,3,2,1,1,1,0,0,1,0,0,0,0,36,36,36,1,0,1,0,,,,,,,,,245.69052460044622,None,246.55080390162766,None,l,1,0.5650450997054577,246.55080390162766,None,None,None,,,,,,,19,21,female,19,2022_May_10_1155,Partial repeat,2021.2.3,59.87281784709459,
6,1,0,1,3,2,1,1,1,0,0,1,0,0,0,0,36,36,36,,,,,,,,,,,,,,,,,,,,,,,,,,,,,,19,21,female,19,2022_May_10_1155,Partial repeat,2021.2.3,59.87281784709459,
7,5,0,1,3,3,2,2,1,1,1,1,1,0,0,0,37,37,37,0,0,0,0,,,,,,,247.13754370063543,None,247.42336800135672,None,248.3375800009817,None,s,1,1.3303694985806942,248.3375800009817,None,None,None,,,,,,,19,21,female,19,2022_May_10_1155,Partial repeat,2021.2.3,59.87281784709459,
7,5,0,1,3,3,2,2,1,1,1,1,1,0,0,0,37,37,37,1,0,1,0,,,,,,,,,249.6758506000042,None,250.4915619008243,None,s,1,0.496323199942708,250.4915619008243,None,None,None,,,,,,,19,21,female,19,2022_May_10_1155,Partial repeat,2021.2.3,59.87281784709459,
7,5,0,1,3,3,2,2,1,1,1,1,1,0,0,0,37,37,37,,,,,,,,,,,,,,,,,,,,,,,,,,,,,,19,21,female,19,2022_May_10_1155,Partial repeat,2021.2.3,59.87281784709459,
1,5,0,1,2,3,2,1,0,1,0,0,0,0,0,0,38,38,38,0,0,0,0,,,,,,,251.00797650031745,None,251.2308969013393,None,252.14532070048153,None,l,1,0.594665901735425,252.14532070048153,None,None,None,,,,,,,19,21,female,19,2022_May_10_1155,Partial repeat,2021.2.3,59.87281784709459,
1,5,0,1,2,3,2,1,0,1,0,0,0,0,0,0,38,38,38,1,0,1,0,,,,,,,,,252.75098350085318,None,253.71477900072932,None,s,1,0.48919159919023514,253.71477900072932,None,None,None,,,,,,,19,21,female,19,2022_May_10_1155,Partial repeat,2021.2.3,59.87281784709459,
1,5,0,1,2,3,2,1,0,1,0,0,0,0,0,0,38,38,38,,,,,,,,,,,,,,,,,,,,,,,,,,,,,,19,21,female,19,2022_May_10_1155,Partial repeat,2021.2.3,59.87281784709459,
8,5,0,1,3,3,2,1,0,1,1,0,0,0,0,0,39,39,39,0,0,0,0,,,,,,,254.23524890094995,None,254.45387450046837,None,255.41796170175076,None,l,1,0.46592519991099834,255.41796170175076,None,None,None,,,,,,,19,21,female,19,2022_May_10_1155,Partial repeat,2021.2.3,59.87281784709459,
8,5,0,1,3,3,2,1,0,1,1,0,0,0,0,0,39,39,39,1,0,1,0,,,,,,,,,255.89594720117748,None,256.75375760160387,None,s,1,0.474124301224947,256.75375760160387,None,None,None,,,,,,,19,21,female,19,2022_May_10_1155,Partial repeat,2021.2.3,59.87281784709459,
8,5,0,1,3,3,2,1,0,1,1,0,0,0,0,0,39,39,39,,,,,,,,,,,,,,,,,,,,,,,,,,,,,,19,21,female,19,2022_May_10_1155,Partial repeat,2021.2.3,59.87281784709459,
2,3,0,1,3,2,2,2,1,1,0,1,1,0,0,0,40,40,40,0,0,0,0,,,,,,,257.25483490154147,None,257.4764606002718,None,258.30679820105433,None,s,1,0.5930826012045145,258.30679820105433,None,None,None,,,,,,,19,21,female,19,2022_May_10_1155,Partial repeat,2021.2.3,59.87281784709459,
2,3,0,1,3,2,2,2,1,1,0,1,1,0,0,0,40,40,40,1,0,1,0,,,,,,,,,258.91346970014274,None,259.7262001000345,None,s,1,0.6776526998728514,259.7262001000345,None,None,None,,,,,,,19,21,female,19,2022_May_10_1155,Partial repeat,2021.2.3,59.87281784709459,
2,3,0,1,3,2,2,2,1,1,0,1,1,0,0,0,40,40,40,,,,,,,,,,,,,,,,,,,,,,,,,,,,,,19,21,female,19,2022_May_10_1155,Partial repeat,2021.2.3,59.87281784709459,
2,8,0,1,2,2,1,2,1,1,1,0,1,0,0,0,41,41,41,0,0,0,0,,,,,,,260.41835410147905,None,260.59915200062096,None,261.5799421016127,None,s,1,0.5678813997656107,261.5799421016127,None,None,None,,,,,,,19,21,female,19,2022_May_10_1155,Partial repeat,2021.2.3,59.87281784709459,
2,8,0,1,2,2,1,2,1,1,1,0,1,0,0,0,41,41,41,1,0,1,0,,,,,,,,,262.1638300009072,None,263.1495804004371,None,s,1,0.49429620057344437,263.1495804004371,None,None,None,,,,,,,19,21,female,19,2022_May_10_1155,Partial repeat,2021.2.3,59.87281784709459,
2,8,0,1,2,2,1,2,1,1,1,0,1,0,0,0,41,41,41,,,,,,,,,,,,,,,,,,,,,,,,,,,,,,19,21,female,19,2022_May_10_1155,Partial repeat,2021.2.3,59.87281784709459,
2,1,0,1,2,3,2,1,1,0,0,0,0,0,0,0,42,42,42,0,0,0,0,,,,,,,263.6710530016571,None,263.82208150066435,None,264.7695767004043,None,s,1,0.4823154993355274,264.7695767004043,None,None,None,,,,,,,19,21,female,19,2022_May_10_1155,Partial repeat,2021.2.3,59.87281784709459,
2,1,0,1,2,3,2,1,1,0,0,0,0,0,0,0,42,42,42,1,0,1,0,,,,,,,,,265.278476100415,None,266.03837190009654,None,l,1,0.5735093001276255,266.03837190009654,None,None,None,,,,,,,19,21,female,19,2022_May_10_1155,Partial repeat,2021.2.3,59.87281784709459,
2,1,0,1,2,3,2,1,1,0,0,0,0,0,0,0,42,42,42,,,,,,,,,,,,,,,,,,,,,,,,,,,,,,19,21,female,19,2022_May_10_1155,Partial repeat,2021.2.3,59.87281784709459,
5,2,0,1,2,3,2,2,1,0,0,1,0,0,0,0,43,43,43,0,0,0,0,,,,,,,266.64286870136857,None,266.87802090123296,None,267.7085919007659,None,s,1,0.7833000011742115,267.7085919007659,None,None,None,,,,,,,19,21,female,19,2022_May_10_1155,Partial repeat,2021.2.3,59.87281784709459,
5,2,0,1,2,3,2,2,1,0,0,1,0,0,0,0,43,43,43,1,0,1,0,,,,,,,,,268.51545910164714,None,269.49506470002234,None,l,1,0.5328595004975796,269.49506470002234,None,None,None,,,,,,,19,21,female,19,2022_May_10_1155,Partial repeat,2021.2.3,59.87281784709459,
5,2,0,1,2,3,2,2,1,0,0,1,0,0,0,0,43,43,43,,,,,,,,,,,,,,,,,,,,,,,,,,,,,,19,21,female,19,2022_May_10_1155,Partial repeat,2021.2.3,59.87281784709459,
8,3,0,1,3,3,1,2,0,0,1,0,1,0,0,0,44,44,44,0,0,0,0,,,,,,,270.0576080009341,None,270.3347527012229,None,271.21511010080576,None,l,1,0.7327616009861231,271.21511010080576,None,None,None,,,,,,,19,21,female,19,2022_May_10_1155,Partial repeat,2021.2.3,59.87281784709459,
8,3,0,1,3,3,1,2,0,0,1,0,1,0,0,0,44,44,44,1,0,1,0,,,,,,,,,271.9703523013741,None,272.98624520003796,None,l,1,0.6576099004596472,272.98624520003796,None,None,None,,,,,,,19,21,female,19,2022_May_10_1155,Partial repeat,2021.2.3,59.87281784709459,
8,3,0,1,3,3,1,2,0,0,1,0,1,0,0,0,44,44,44,,,,,,,,,,,,,,,,,,,,,,,,,,,,,,19,21,female,19,2022_May_10_1155,Partial repeat,2021.2.3,59.87281784709459,
4,2,0,1,2,3,2,2,0,0,0,1,1,0,0,0,45,45,45,0,0,0,0,,,,,,,273.67403720133007,None,274.0085905008018,None,274.85599950142205,None,l,1,0.7399470005184412,274.85599950142205,None,None,None,,,,,,,19,21,female,19,2022_May_10_1155,Partial repeat,2021.2.3,59.87281784709459,
4,2,0,1,2,3,2,2,0,0,0,1,1,0,0,0,45,45,45,1,0,1,0,,,,,,,,,275.60403050109744,None,276.50873240083456,None,l,1,0.5831531006842852,276.50873240083456,None,None,None,,,,,,,19,21,female,19,2022_May_10_1155,Partial repeat,2021.2.3,59.87281784709459,
4,2,0,1,2,3,2,2,0,0,0,1,1,0,0,0,45,45,45,,,,,,,,,,,,,,,,,,,,,,,,,,,,,,19,21,female,19,2022_May_10_1155,Partial repeat,2021.2.3,59.87281784709459,
2,6,0,1,3,2,2,2,0,1,0,1,0,0,0,0,46,46,46,0,0,0,0,,,,,,,277.11919080093503,None,278.18339410051703,None,278.99700650013983,None,l,1,0.5750357005745173,278.99700650013983,None,None,None,,,,,,,19,21,female,19,2022_May_10_1155,Partial repeat,2021.2.3,59.87281784709459,
2,6,0,1,3,2,2,2,0,1,0,1,0,0,0,0,46,46,46,1,0,1,0,,,,,,,,,279.5968623999506,None,280.6171824000776,None,s,1,0.5387193989008665,280.6171824000776,None,None,None,,,,,,,19,21,female,19,2022_May_10_1155,Partial repeat,2021.2.3,59.87281784709459,
2,6,0,1,3,2,2,2,0,1,0,1,0,0,0,0,46,46,46,,,,,,,,,,,,,,,,,,,,,,,,,,,,,,19,21,female,19,2022_May_10_1155,Partial repeat,2021.2.3,59.87281784709459,
4,5,0,1,2,3,1,1,1,0,0,1,0,0,0,0,47,47,47,0,0,0,0,,,,,,,281.18595540151,None,281.4229715000838,None,282.370540400967,None,s,1,0.8813352007418871,282.370540400967,None,None,None,,,,,,,19,21,female,19,2022_May_10_1155,Partial repeat,2021.2.3,59.87281784709459,
4,5,0,1,2,3,1,1,1,0,0,1,0,0,0,0,47,47,47,1,0,1,0,,,,,,,,,283.2689220011234,None,284.25729830004275,None,l,1,0.8265850003808737,284.25729830004275,None,None,None,,,,,,,19,21,female,19,2022_May_10_1155,Partial repeat,2021.2.3,59.87281784709459,
4,5,0,1,2,3,1,1,1,0,0,1,0,0,0,0,47,47,47,,,,,,,,,,,,,,,,,,,,,,,,,,,,,,19,21,female,19,2022_May_10_1155,Partial repeat,2021.2.3,59.87281784709459,
5,7,0,1,2,2,1,1,1,0,1,1,0,0,0,0,48,48,48,0,0,0,0,,,,,,,285.0947804003954,None,285.9651349000633,None,286.83012510091066,None,s,1,0.8297538999468088,286.83012510091066,None,None,None,,,,,,,19,21,female,19,2022_May_10_1155,Partial repeat,2021.2.3,59.87281784709459,
5,7,0,1,2,2,1,1,1,0,1,1,0,0,0,0,48,48,48,1,0,1,0,,,,,,,,,287.6794872004539,None,288.49910700134933,None,s,0,1.1528085991740227,288.49910700134933,None,289.6600476000458,None,,,,,,,19,21,female,19,2022_May_10_1155,Partial repeat,2021.2.3,59.87281784709459,
5,7,0,1,2,2,1,1,1,0,1,1,0,0,0,0,48,48,48,,,,,,,,,,,,,,,,,,,,,,,,,,,,,,19,21,female,19,2022_May_10_1155,Partial repeat,2021.2.3,59.87281784709459,
6,4,0,1,2,3,2,1,1,1,0,0,1,0,0,0,49,49,49,0,0,0,0,,,,,,,290.17337610013783,None,291.2587692011148,None,292.0891776010394,None,s,1,0.6826900001615286,292.0891776010394,None,None,None,,,,,,,19,21,female,19,2022_May_10_1155,Partial repeat,2021.2.3,59.87281784709459,
6,4,0,1,2,3,2,1,1,1,0,0,1,0,0,0,49,49,49,1,0,1,0,,,,,,,,,292.79319410026073,None,293.7936264015734,None,s,1,0.5862806010991335,293.7936264015734,None,None,None,,,,,,,19,21,female,19,2022_May_10_1155,Partial repeat,2021.2.3,59.87281784709459,
6,4,0,1,2,3,2,1,1,1,0,0,1,0,0,0,49,49,49,,,,,,,,,,,,,,,,,,,,,,,,,,,,,,19,21,female,19,2022_May_10_1155,Partial repeat,2021.2.3,59.87281784709459,
8,7,0,1,3,3,2,1,1,0,1,0,0,0,0,0,50,50,50,0,0,0,0,,,,,,,294.40183490142226,None,294.648741601035,None,295.39593550004065,None,s,1,0.6960220001637936,295.39593550004065,None,None,None,,,,,,,19,21,female,19,2022_May_10_1155,Partial repeat,2021.2.3,59.87281784709459,
8,7,0,1,3,3,2,1,1,0,1,0,0,0,0,0,50,50,50,1,0,1,0,,,,,,,,,296.1110677011311,None,296.91519050113857,None,l,1,0.7206538990139961,296.91519050113857,None,None,None,,,,,,,19,21,female,19,2022_May_10_1155,Partial repeat,2021.2.3,59.87281784709459,
8,7,0,1,3,3,2,1,1,0,1,0,0,0,0,0,50,50,50,,,,,,,,,,,,,,,,,,,,,,,,,,,,,,19,21,female,19,2022_May_10_1155,Partial repeat,2021.2.3,59.87281784709459,
7,3,0,1,3,3,1,2,1,0,1,0,0,0,0,0,51,51,51,0,0,0,0,,,,,,,297.64913769997656,None,297.98855680041015,None,298.7523718010634,None,s,1,0.49950229935348034,298.7523718010634,None,None,None,,,,,,,19,21,female,19,2022_May_10_1155,Partial repeat,2021.2.3,59.87281784709459,
7,3,0,1,3,3,1,2,1,0,1,0,0,0,0,0,51,51,51,1,0,1,0,,,,,,,,,299.2667221017182,None,300.17263590171933,None,l,1,0.7592117004096508,300.17263590171933,None,None,None,,,,,,,19,21,female,19,2022_May_10_1155,Partial repeat,2021.2.3,59.87281784709459,
7,3,0,1,3,3,1,2,1,0,1,0,0,0,0,0,51,51,51,,,,,,,,,,,,,,,,,,,,,,,,,,,,,,19,21,female,19,2022_May_10_1155,Partial repeat,2021.2.3,59.87281784709459,
5,5,0,1,3,2,2,1,1,1,0,0,1,0,0,0,52,52,52,0,0,0,0,,,,,,,300.94727690145373,None,301.24491830170155,None,302.19229560159147,None,s,1,0.4755872003734112,302.19229560159147,None,None,None,,,,,,,19,21,female,19,2022_May_10_1155,Partial repeat,2021.2.3,59.87281784709459,
5,5,0,1,3,2,2,1,1,1,0,0,1,0,0,0,52,52,52,1,0,1,0,,,,,,,,,302.6911392007023,None,303.6285097002983,None,s,1,0.4874058999121189,303.6285097002983,None,None,None,,,,,,,19,21,female,19,2022_May_10_1155,Partial repeat,2021.2.3,59.87281784709459,
5,5,0,1,3,2,2,1,1,1,0,0,1,0,0,0,52,52,52,,,,,,,,,,,,,,,,,,,,,,,,,,,,,,19,21,female,19,2022_May_10_1155,Partial repeat,2021.2.3,59.87281784709459,
5,1,0,1,3,2,1,2,1,0,0,0,0,0,0,0,53,53,53,0,0,0,0,,,,,,,304.1270449012518,None,305.1190846003592,None,305.91600750014186,None,s,1,0.959866700693965,305.91600750014186,None,None,None,,,,,,,19,21,female,19,2022_May_10_1155,Partial repeat,2021.2.3,59.87281784709459,
5,1,0,1,3,2,1,2,1,0,0,0,0,0,0,0,53,53,53,1,0,1,0,,,,,,,,,306.9000672008842,None,307.70279290154576,None,l,1,0.6290616001933813,307.70279290154576,None,None,None,,,,,,,19,21,female,19,2022_May_10_1155,Partial repeat,2021.2.3,59.87281784709459,
5,1,0,1,3,2,1,2,1,0,0,0,0,0,0,0,53,53,53,,,,,,,,,,,,,,,,,,,,,,,,,,,,,,19,21,female,19,2022_May_10_1155,Partial repeat,2021.2.3,59.87281784709459,
5,4,0,1,3,3,1,2,0,1,1,0,0,0,0,0,54,54,54,0,0,0,0,,,,,,,308.3504351004958,None,308.62591440044343,None,309.4244367014617,None,s,0,0.5634365007281303,309.4244367014617,None,310.00657990016043,None,,,,,,,19,21,female,19,2022_May_10_1155,Partial repeat,2021.2.3,59.87281784709459,
5,4,0,1,3,3,1,2,0,1,1,0,0,0,0,0,54,54,54,1,0,1,0,,,,,,,,,310.5129392016679,None,311.5105807017535,None,s,1,0.701273599639535,311.5105807017535,None,None,None,,,,,,,19,21,female,19,2022_May_10_1155,Partial repeat,2021.2.3,59.87281784709459,
5,4,0,1,3,3,1,2,0,1,1,0,0,0,0,0,54,54,54,,,,,,,,,,,,,,,,,,,,,,,,,,,,,,19,21,female,19,2022_May_10_1155,Partial repeat,2021.2.3,59.87281784709459,
3,7,0,1,2,2,1,2,0,0,1,0,1,0,0,0,55,55,55,0,0,0,0,,,,,,,312.22363420017064,None,314.6208984013647,None,315.41794710047543,None,l,1,1.0099286995828152,315.41794710047543,None,None,None,,,,,,,19,21,female,19,2022_May_10_1155,Partial repeat,2021.2.3,59.87281784709459,
3,7,0,1,2,2,1,2,0,0,1,0,1,0,0,0,55,55,55,1,0,1,0,,,,,,,,,316.44178250059485,None,317.17149990051985,None,l,1,0.4964172001928091,317.17149990051985,None,None,None,,,,,,,19,21,female,19,2022_May_10_1155,Partial repeat,2021.2.3,59.87281784709459,
3,7,0,1,2,2,1,2,0,0,1,0,1,0,0,0,55,55,55,,,,,,,,,,,,,,,,,,,,,,,,,,,,,,19,21,female,19,2022_May_10_1155,Partial repeat,2021.2.3,59.87281784709459,
8,8,0,1,3,2,1,1,1,1,0,1,1,0,0,0,56,56,56,0,0,0,0,,,,,,,317.67833660170436,None,318.0943679008633,None,318.82484450004995,None,s,1,0.49903119914233685,318.82484450004995,None,None,None,,,,,,,19,21,female,19,2022_May_10_1155,Partial repeat,2021.2.3,59.87281784709459,
8,8,0,1,3,2,1,1,1,1,0,1,1,0,0,0,56,56,56,1,0,1,0,,,,,,,,,319.3411862011999,None,320.32765830121934,None,s,1,0.5882187001407146,320.32765830121934,None,None,None,,,,,,,19,21,female,19,2022_May_10_1155,Partial repeat,2021.2.3,59.87281784709459,
8,8,0,1,3,2,1,1,1,1,0,1,1,0,0,0,56,56,56,,,,,,,,,,,,,,,,,,,,,,,,,,,,,,19,21,female,19,2022_May_10_1155,Partial repeat,2021.2.3,59.87281784709459,
6,2,0,1,2,3,1,2,1,1,0,0,1,0,0,0,57,57,57,0,0,0,0,,,,,,,320.9359274003655,None,321.53443180024624,None,322.3984933011234,None,s,1,0.997350400313735,322.3984933011234,None,None,None,,,,,,,19,21,female,19,2022_May_10_1155,Partial repeat,2021.2.3,59.87281784709459,
6,2,0,1,2,3,1,2,1,1,0,0,1,0,0,0,57,57,57,1,0,1,0,,,,,,,,,323.4208762999624,None,324.28520650044084,None,s,1,0.6866769008338451,324.28520650044084,None,None,None,,,,,,,19,21,female,19,2022_May_10_1155,Partial repeat,2021.2.3,59.87281784709459,
6,2,0,1,2,3,1,2,1,1,0,0,1,0,0,0,57,57,57,,,,,,,,,,,,,,,,,,,,,,,,,,,,,,19,21,female,19,2022_May_10_1155,Partial repeat,2021.2.3,59.87281784709459,
7,8,0,1,2,2,2,2,0,0,1,1,1,0,0,0,58,58,58,0,0,0,0,,,,,,,324.99994510039687,None,325.37520200014114,None,326.2892572004348,None,l,1,0.6826108004897833,326.2892572004348,None,None,None,,,,,,,19,21,female,19,2022_May_10_1155,Partial repeat,2021.2.3,59.87281784709459,
7,8,0,1,2,2,2,2,0,0,1,1,1,0,0,0,58,58,58,1,0,1,0,,,,,,,,,326.99209950119257,None,327.775209100917,None,l,1,0.4686411991715431,327.775209100917,None,None,None,,,,,,,19,21,female,19,2022_May_10_1155,Partial repeat,2021.2.3,59.87281784709459,
7,8,0,1,2,2,2,2,0,0,1,1,1,0,0,0,58,58,58,,,,,,,,,,,,,,,,,,,,,,,,,,,,,,19,21,female,19,2022_May_10_1155,Partial repeat,2021.2.3,59.87281784709459,
8,2,0,1,3,2,1,2,1,1,0,0,1,0,0,0,59,59,59,0,0,0,0,,,,,,,328.25552690029144,None,328.6649120002985,None,329.4123951010406,None,s,1,0.5514735002070665,329.4123951010406,None,None,None,,,,,,,19,21,female,19,2022_May_10_1155,Partial repeat,2021.2.3,59.87281784709459,
8,2,0,1,3,2,1,2,1,1,0,0,1,0,0,0,59,59,59,1,0,1,0,,,,,,,,,329.99239570088685,None,330.7646320015192,None,s,1,0.5432428009808064,330.7646320015192,None,None,None,,,,,,,19,21,female,19,2022_May_10_1155,Partial repeat,2021.2.3,59.87281784709459,
8,2,0,1,3,2,1,2,1,1,0,0,1,0,0,0,59,59,59,,,,,,,,,,,,,,,,,,,,,,,,,,,,,,19,21,female,19,2022_May_10_1155,Partial repeat,2021.2.3,59.87281784709459,
6,3,0,1,2,2,2,2,1,0,1,1,0,0,0,0,60,60,60,0,0,0,0,,,,,,,331.32958130165935,None,331.6039417013526,None,332.6013563014567,None,s,1,0.5145190991461277,332.6013563014567,None,None,None,,,,,,,19,21,female,19,2022_May_10_1155,Partial repeat,2021.2.3,59.87281784709459,
6,3,0,1,2,2,2,2,1,0,1,1,0,0,0,0,60,60,60,1,0,1,0,,,,,,,,,333.1402832008898,None,333.9873554017395,None,l,1,0.6164849996566772,333.9873554017395,None,None,None,,,,,,,19,21,female,19,2022_May_10_1155,Partial repeat,2021.2.3,59.87281784709459,
6,3,0,1,2,2,2,2,1,0,1,1,0,0,0,0,60,60,60,,,,,,,,,,,,,,,,,,,,,,,,,,,,,,19,21,female,19,2022_May_10_1155,Partial repeat,2021.2.3,59.87281784709459,
3,2,0,1,2,2,1,1,0,0,1,1,1,0,0,0,61,61,61,0,0,0,0,,,,,,,334.6348523013294,None,334.9437926001847,None,335.89095530100167,None,l,1,2.264970799908042,335.89095530100167,None,None,None,,,,,,,19,21,female,19,2022_May_10_1155,Partial repeat,2021.2.3,59.87281784709459,
3,2,0,1,2,2,1,1,0,0,1,1,1,0,0,0,61,61,61,1,0,1,0,,,,,,,,,338.16441920027137,None,339.1474486012012,None,l,1,0.5124635994434357,339.1474486012012,None,None,None,,,,,,,19,21,female,19,2022_May_10_1155,Partial repeat,2021.2.3,59.87281784709459,
3,2,0,1,2,2,1,1,0,0,1,1,1,0,0,0,61,61,61,,,,,,,,,,,,,,,,,,,,,,,,,,,,,,19,21,female,19,2022_May_10_1155,Partial repeat,2021.2.3,59.87281784709459,
2,5,0,1,2,3,1,2,1,0,0,0,0,0,0,0,62,62,62,0,0,0,0,,,,,,,339.68625120073557,None,340.1372619010508,None,341.13495200127363,None,s,1,0.5889202989637852,341.13495200127363,None,None,None,,,,,,,19,21,female,19,2022_May_10_1155,Partial repeat,2021.2.3,59.87281784709459,
2,5,0,1,2,3,1,2,1,0,0,0,0,0,0,0,62,62,62,1,0,1,0,,,,,,,,,341.7361409012228,None,342.6878023017198,None,l,1,0.7241107001900673,342.6878023017198,None,None,None,,,,,,,19,21,female,19,2022_May_10_1155,Partial repeat,2021.2.3,59.87281784709459,
2,5,0,1,2,3,1,2,1,0,0,0,0,0,0,0,62,62,62,,,,,,,,,,,,,,,,,,,,,,,,,,,,,,19,21,female,19,2022_May_10_1155,Partial repeat,2021.2.3,59.87281784709459,
1,4,0,1,2,3,1,2,0,1,0,0,0,0,0,0,63,63,63,0,0,0,0,,,,,,,343.4411884006113,None,343.74427740089595,None,344.52450680173934,None,l,1,0.5754065997898579,344.52450680173934,None,None,None,,,,,,,19,21,female,19,2022_May_10_1155,Partial repeat,2021.2.3,59.87281784709459,
1,4,0,1,2,3,1,2,0,1,0,0,0,0,0,0,63,63,63,1,0,1,0,,,,,,,,,345.10770870000124,None,345.82715200074017,None,s,1,0.576690599322319,345.82715200074017,None,None,None,,,,,,,19,21,female,19,2022_May_10_1155,Partial repeat,2021.2.3,59.87281784709459,
1,4,0,1,2,3,1,2,0,1,0,0,0,0,0,0,63,63,63,,,,,,,,,,,,,,,,,,,,,,,,,,,,,,19,21,female,19,2022_May_10_1155,Partial repeat,2021.2.3,59.87281784709459,
4,4,0,1,2,3,1,1,0,1,0,1,0,1,0,0,64,64,64,0,0,0,0,,,,,,,346.6910287011415,None,355.533874200657,None,356.4656275007874,None,l,1,1.722240699455142,356.4656275007874,None,None,None,,,,,,,19,21,female,19,2022_May_10_1155,Partial repeat,2021.2.3,59.87281784709459,
4,4,0,1,2,3,1,1,0,1,0,1,0,1,0,0,64,64,64,1,0,1,0,,,,,,,,,358.20610150136054,None,359.00292520038784,None,s,1,0.544947000220418,359.00292520038784,None,None,None,,,,,,,19,21,female,19,2022_May_10_1155,Partial repeat,2021.2.3,59.87281784709459,
4,4,0,1,2,3,1,1,0,1,0,1,0,1,0,0,64,64,64,,,,,,,,,,,,,,,,,,,,,,,,,,,,,,19,21,female,19,2022_May_10_1155,Partial repeat,2021.2.3,59.87281784709459,
4,4,0,1,2,2,2,2,1,0,1,1,0,1,0,0,65,65,65,0,0,0,0,,,,,,,359.57577840052545,None,360.5102348010987,None,361.2916784007102,None,s,1,1.168224399909377,361.2916784007102,None,None,None,,,,,,,19,21,female,19,2022_May_10_1155,Partial repeat,2021.2.3,59.87281784709459,
4,4,0,1,2,2,2,2,1,0,1,1,0,1,0,0,65,65,65,1,0,1,0,,,,,,,,,362.4678444005549,None,363.2956904005259,None,l,1,0.572256600484252,363.2956904005259,None,None,None,,,,,,,19,21,female,19,2022_May_10_1155,Partial repeat,2021.2.3,59.87281784709459,
4,4,0,1,2,2,2,2,1,0,1,1,0,1,0,0,65,65,65,,,,,,,,,,,,,,,,,,,,,,,,,,,,,,19,21,female,19,2022_May_10_1155,Partial repeat,2021.2.3,59.87281784709459,
4,4,0,1,3,3,1,1,0,1,1,1,0,1,0,0,66,66,66,0,0,0,0,,,,,,,363.88076760061085,None,364.3009285014123,None,365.1983239017427,None,l,1,0.533593200147152,365.1983239017427,None,None,None,,,,,,,19,21,female,19,2022_May_10_1155,Partial repeat,2021.2.3,59.87281784709459,
4,4,0,1,3,3,1,1,0,1,1,1,0,1,0,0,66,66,66,1,0,1,0,,,,,,,,,365.74059350043535,None,366.58410360105336,None,s,1,0.547766700387001,366.58410360105336,None,None,None,,,,,,,19,21,female,19,2022_May_10_1155,Partial repeat,2021.2.3,59.87281784709459,
4,4,0,1,3,3,1,1,0,1,1,1,0,1,0,0,66,66,66,,,,,,,,,,,,,,,,,,,,,,,,,,,,,,19,21,female,19,2022_May_10_1155,Partial repeat,2021.2.3,59.87281784709459,
4,4,0,1,3,2,2,1,0,1,0,0,0,1,0,0,67,67,67,0,0,0,0,,,,,,,367.14971880055964,None,367.44036220014095,None,368.3046690002084,None,l,1,0.80333730019629,368.3046690002084,None,None,None,,,,,,,19,21,female,19,2022_May_10_1155,Partial repeat,2021.2.3,59.87281784709459,
4,4,0,1,3,2,2,1,0,1,0,0,0,1,0,0,67,67,67,1,0,1,0,,,,,,,,,369.11896720156074,None,369.90739800035954,None,s,1,0.5525078997015953,369.90739800035954,None,None,None,,,,,,,19,21,female,19,2022_May_10_1155,Partial repeat,2021.2.3,59.87281784709459,
4,4,0,1,3,2,2,1,0,1,0,0,0,1,0,0,67,67,67,,,,,,,,,,,,,,,,,,,,,,,,,,,,,,19,21,female,19,2022_May_10_1155,Partial repeat,2021.2.3,59.87281784709459,
4,4,0,1,3,3,1,2,1,0,1,0,0,1,0,0,68,68,68,0,0,0,0,,,,,,,370.47136630117893,None,371.36467740125954,None,372.2616681009531,None,s,1,0.550331199541688,372.2616681009531,None,None,None,,,,,,,19,21,female,19,2022_May_10_1155,Partial repeat,2021.2.3,59.87281784709459,
4,4,0,1,3,3,1,2,1,0,1,0,0,1,0,0,68,68,68,1,0,1,0,,,,,,,,,372.8220688011497,None,373.73133940063417,None,l,1,0.5525806006044149,373.73133940063417,None,None,None,,,,,,,19,21,female,19,2022_May_10_1155,Partial repeat,2021.2.3,59.87281784709459,
4,4,0,1,3,3,1,2,1,0,1,0,0,1,0,0,68,68,68,,,,,,,,,,,,,,,,,,,,,,,,,,,,,,19,21,female,19,2022_May_10_1155,Partial repeat,2021.2.3,59.87281784709459,
4,4,0,1,2,2,1,1,1,1,1,1,1,1,0,0,69,69,69,0,0,0,0,,,,,,,374.2949753012508,None,374.95484420098364,None,375.7853265013546,None,s,1,1.7626933995634317,375.7853265013546,None,None,None,,,,,,,19,21,female,19,2022_May_10_1155,Partial repeat,2021.2.3,59.87281784709459,
4,4,0,1,2,2,1,1,1,1,1,1,1,1,0,0,69,69,69,1,0,1,0,,,,,,,,,377.5765659008175,None,378.3405609000474,None,s,1,0.47930070012807846,378.3405609000474,None,None,None,,,,,,,19,21,female,19,2022_May_10_1155,Partial repeat,2021.2.3,59.87281784709459,
4,4,0,1,2,2,1,1,1,1,1,1,1,1,0,0,69,69,69,,,,,,,,,,,,,,,,,,,,,,,,,,,,,,19,21,female,19,2022_May_10_1155,Partial repeat,2021.2.3,59.87281784709459,
4,4,0,1,2,3,2,1,1,1,0,0,1,1,0,0,70,70,70,0,0,0,0,,,,,,,378.8453972004354,None,379.26334600150585,None,380.04398220032454,None,s,1,0.5198731999844313,380.04398220032454,None,None,None,,,,,,,19,21,female,19,2022_May_10_1155,Partial repeat,2021.2.3,59.87281784709459,
4,4,0,1,2,3,2,1,1,1,0,0,1,1,0,0,70,70,70,1,0,1,0,,,,,,,,,380.5885713007301,None,381.4465874005109,None,s,1,0.3572792988270521,381.4465874005109,None,None,None,,,,,,,19,21,female,19,2022_May_10_1155,Partial repeat,2021.2.3,59.87281784709459,
4,4,0,1,2,3,2,1,1,1,0,0,1,1,0,0,70,70,70,,,,,,,,,,,,,,,,,,,,,,,,,,,,,,19,21,female,19,2022_May_10_1155,Partial repeat,2021.2.3,59.87281784709459,
4,4,0,1,3,2,1,2,0,1,0,0,0,1,0,0,71,71,71,0,0,0,0,,,,,,,381.8201745003462,None,382.2024324014783,None,383.0833315011114,None,l,1,0.6405833009630442,383.0833315011114,None,None,None,,,,,,,19,21,female,19,2022_May_10_1155,Partial repeat,2021.2.3,59.87281784709459,
4,4,0,1,3,2,1,2,0,1,0,0,0,1,0,0,71,71,71,1,0,1,0,,,,,,,,,383.7327895015478,None,384.5194149017334,None,s,1,0.4685389995574951,384.5194149017334,None,None,None,,,,,,,19,21,female,19,2022_May_10_1155,Partial repeat,2021.2.3,59.87281784709459,
4,4,0,1,3,2,1,2,0,1,0,0,0,1,0,0,71,71,71,,,,,,,,,,,,,,,,,,,,,,,,,,,,,,19,21,female,19,2022_May_10_1155,Partial repeat,2021.2.3,59.87281784709459,
4,4,0,1,3,2,1,1,1,1,0,1,1,1,0,0,72,72,72,0,0,0,0,,,,,,,385.0005528014153,None,385.3418791014701,None,386.12267890013754,None,s,1,0.6251795012503862,386.12267890013754,None,None,None,,,,,,,19,21,female,19,2022_May_10_1155,Partial repeat,2021.2.3,59.87281784709459,
4,4,0,1,3,2,1,1,1,1,0,1,1,1,0,0,72,72,72,1,0,1,0,,,,,,,,,386.769140701741,None,387.5081220008433,None,s,1,0.41576020047068596,387.5081220008433,None,None,None,,,,,,,19,21,female,19,2022_May_10_1155,Partial repeat,2021.2.3,59.87281784709459,
4,4,0,1,3,2,1,1,1,1,0,1,1,1,0,0,72,72,72,,,,,,,,,,,,,,,,,,,,,,,,,,,,,,19,21,female,19,2022_May_10_1155,Partial repeat,2021.2.3,59.87281784709459,
4,4,0,1,2,2,2,1,1,1,1,0,1,1,0,0,73,73,73,0,0,0,0,,,,,,,387.9463646002114,None,388.33103630132973,None,389.29498750157654,None,s,1,0.8128763008862734,389.29498750157654,None,None,None,,,,,,,19,21,female,19,2022_May_10_1155,Partial repeat,2021.2.3,59.87281784709459,
4,4,0,1,2,2,2,1,1,1,1,0,1,1,0,0,73,73,73,1,0,1,0,,,,,,,,,390.129309900105,None,390.8982512000948,None,s,1,0.35361089929938316,390.8982512000948,None,None,None,,,,,,,19,21,female,19,2022_May_10_1155,Partial repeat,2021.2.3,59.87281784709459,
4,4,0,1,2,2,2,1,1,1,1,0,1,1,0,0,73,73,73,,,,,,,,,,,,,,,,,,,,,,,,,,,,,,19,21,female,19,2022_May_10_1155,Partial repeat,2021.2.3,59.87281784709459,
4,4,0,1,3,2,1,2,0,0,0,0,1,1,0,0,74,74,74,0,0,0,0,,,,,,,391.2705909013748,None,391.6875560004264,None,392.4680217001587,None,l,1,0.47984050028026104,392.4680217001587,None,None,None,,,,,,,19,21,female,19,2022_May_10_1155,Partial repeat,2021.2.3,59.87281784709459,
4,4,0,1,3,2,1,2,0,0,0,0,1,1,0,0,74,74,74,1,0,1,0,,,,,,,,,392.967583199963,None,393.87082930095494,None,l,1,0.3730317000299692,393.87082930095494,None,None,None,,,,,,,19,21,female,19,2022_May_10_1155,Partial repeat,2021.2.3,59.87281784709459,
4,4,0,1,3,2,1,2,0,0,0,0,1,1,0,0,74,74,74,,,,,,,,,,,,,,,,,,,,,,,,,,,,,,19,21,female,19,2022_May_10_1155,Partial repeat,2021.2.3,59.87281784709459,
4,4,0,1,3,3,1,1,1,0,1,1,0,1,0,0,75,75,75,0,0,0,0,,,,,,,394.2648694012314,None,394.71009680069983,None,395.70773719996214,None,s,1,0.4400891996920109,395.70773719996214,None,None,None,,,,,,,19,21,female,19,2022_May_10_1155,Partial repeat,2021.2.3,59.87281784709459,
4,4,0,1,3,3,1,1,1,0,1,1,0,1,0,0,75,75,75,1,0,1,0,,,,,,,,,396.1618832014501,None,397.04359740018845,None,s,0,0.36826450005173683,397.04359740018845,None,397.43869950063527,None,,,,,,,19,21,female,19,2022_May_10_1155,Partial repeat,2021.2.3,59.87281784709459,
4,4,0,1,3,3,1,1,1,0,1,1,0,1,0,0,75,75,75,,,,,,,,,,,,,,,,,,,,,,,,,,,,,,19,21,female,19,2022_May_10_1155,Partial repeat,2021.2.3,59.87281784709459,
4,4,0,1,3,3,2,1,0,0,1,0,1,1,0,0,76,76,76,0,0,0,0,,,,,,,397.94979600049555,None,398.83479430153966,None,399.79897210001945,None,l,1,2.3329368997365236,399.79897210001945,None,None,None,,,,,,,19,21,female,19,2022_May_10_1155,Partial repeat,2021.2.3,59.87281784709459,
4,4,0,1,3,3,2,1,0,0,1,0,1,1,0,0,76,76,76,1,0,1,0,,,,,,,,,402.13997570052743,None,402.97184310108423,None,l,1,0.49602099880576134,402.97184310108423,None,None,None,,,,,,,19,21,female,19,2022_May_10_1155,Partial repeat,2021.2.3,59.87281784709459,
4,4,0,1,3,3,2,1,0,0,1,0,1,1,0,0,76,76,76,,,,,,,,,,,,,,,,,,,,,,,,,,,,,,19,21,female,19,2022_May_10_1155,Partial repeat,2021.2.3,59.87281784709459,
4,4,0,1,2,2,1,2,1,0,1,0,0,1,0,0,77,77,77,0,0,0,0,,,,,,,403.49381470121443,None,404.14514150097966,None,404.9756631013006,None,s,1,0.5001938994973898,404.9756631013006,None,None,None,,,,,,,19,21,female,19,2022_May_10_1155,Partial repeat,2021.2.3,59.87281784709459,
4,4,0,1,2,2,1,2,1,0,1,0,0,1,0,0,77,77,77,1,0,1,0,,,,,,,,,405.49435690045357,None,406.39493340067565,None,l,1,0.49691909924149513,406.39493340067565,None,None,None,,,,,,,19,21,female,19,2022_May_10_1155,Partial repeat,2021.2.3,59.87281784709459,
4,4,0,1,2,2,1,2,1,0,1,0,0,1,0,0,77,77,77,,,,,,,,,,,,,,,,,,,,,,,,,,,,,,19,21,female,19,2022_May_10_1155,Partial repeat,2021.2.3,59.87281784709459,
4,4,0,1,3,2,2,2,0,0,0,1,1,1,0,0,78,78,78,0,0,0,0,,,,,,,406.9152322001755,None,407.384758701548,None,408.34895350039005,None,l,1,0.7109136004000902,408.34895350039005,None,None,None,,,,,,,19,21,female,19,2022_May_10_1155,Partial repeat,2021.2.3,59.87281784709459,
4,4,0,1,3,2,2,2,0,0,0,1,1,1,0,0,78,78,78,1,0,1,0,,,,,,,,,409.07791030034423,None,409.88510160148144,None,l,1,0.4468673001974821,409.88510160148144,None,None,None,,,,,,,19,21,female,19,2022_May_10_1155,Partial repeat,2021.2.3,59.87281784709459,
4,4,0,1,3,2,2,2,0,0,0,1,1,1,0,0,78,78,78,,,,,,,,,,,,,,,,,,,,,,,,,,,,,,19,21,female,19,2022_May_10_1155,Partial repeat,2021.2.3,59.87281784709459,
4,4,0,1,3,2,1,1,0,0,0,1,1,1,0,0,79,79,79,0,0,0,0,,,,,,,410.3630710002035,None,411.1587174013257,None,411.88876030035317,None,l,1,0.5151137001812458,411.88876030035317,None,None,None,,,,,,,19,21,female,19,2022_May_10_1155,Partial repeat,2021.2.3,59.87281784709459,
4,4,0,1,3,2,1,1,0,0,0,1,1,1,0,0,79,79,79,1,0,1,0,,,,,,,,,412.4272023010999,None,413.3752610012889,None,l,1,0.38864680007100105,413.3752610012889,None,None,None,,,,,,,19,21,female,19,2022_May_10_1155,Partial repeat,2021.2.3,59.87281784709459,
4,4,0,1,3,2,1,1,0,0,0,1,1,1,0,0,79,79,79,,,,,,,,,,,,,,,,,,,,,,,,,,,,,,19,21,female,19,2022_May_10_1155,Partial repeat,2021.2.3,59.87281784709459,
4,4,0,1,2,2,2,1,0,0,1,0,1,1,0,0,80,80,80,0,0,0,0,,,,,,,413.7947880011052,None,415.45042690075934,None,416.4143875017762,None,l,1,0.5814707987010479,416.4143875017762,None,None,None,,,,,,,19,21,female,19,2022_May_10_1155,Partial repeat,2021.2.3,59.87281784709459,
4,4,0,1,2,2,2,1,0,0,1,0,1,1,0,0,80,80,80,1,0,1,0,,,,,,,,,417.01653620041907,None,417.98455600067973,None,l,1,0.3553073015064001,417.98455600067973,None,None,None,,,,,,,19,21,female,19,2022_May_10_1155,Partial repeat,2021.2.3,59.87281784709459,
4,4,0,1,2,2,2,1,0,0,1,0,1,1,0,0,80,80,80,,,,,,,,,,,,,,,,,,,,,,,,,,,,,,19,21,female,19,2022_May_10_1155,Partial repeat,2021.2.3,59.87281784709459,
4,4,0,1,2,2,2,2,0,1,1,1,0,1,0,0,81,81,81,0,0,0,0,,,,,,,418.35873039998114,None,419.1409283000976,None,420.0066536013037,None,l,1,0.3492428995668888,420.0066536013037,None,None,None,,,,,,,19,21,female,19,2022_May_10_1155,Partial repeat,2021.2.3,59.87281784709459,
4,4,0,1,2,2,2,2,0,1,1,1,0,1,0,0,81,81,81,1,0,1,0,,,,,,,,,420.37920390069485,None,421.107588801533,None,l,0,0.2882700003683567,421.107588801533,None,421.41687640175223,None,,,,,,,19,21,female,19,2022_May_10_1155,Partial repeat,2021.2.3,59.87281784709459,
4,4,0,1,2,2,2,2,0,1,1,1,0,1,0,0,81,81,81,,,,,,,,,,,,,,,,,,,,,,,,,,,,,,19,21,female,19,2022_May_10_1155,Partial repeat,2021.2.3,59.87281784709459,
4,4,0,1,2,3,1,1,1,1,0,1,1,1,0,0,82,82,82,0,0,0,0,,,,,,,421.9297702014446,None,422.5642821006477,None,423.52820840105414,None,s,1,0.8356547001749277,423.52820840105414,None,None,None,,,,,,,19,21,female,19,2022_May_10_1155,Partial repeat,2021.2.3,59.87281784709459,
4,4,0,1,2,3,1,1,1,1,0,1,1,1,0,0,82,82,82,1,0,1,0,,,,,,,,,424.38985540159047,None,425.2148753013462,None,s,1,0.35698629915714264,425.2148753013462,None,None,None,,,,,,,19,21,female,19,2022_May_10_1155,Partial repeat,2021.2.3,59.87281784709459,
4,4,0,1,2,3,1,1,1,1,0,1,1,1,0,0,82,82,82,,,,,,,,,,,,,,,,,,,,,,,,,,,,,,19,21,female,19,2022_May_10_1155,Partial repeat,2021.2.3,59.87281784709459,
4,4,0,1,3,2,2,1,0,0,0,0,1,1,0,0,83,83,83,0,0,0,0,,,,,,,425.58747750148177,None,427.6574842017144,None,428.47122890129685,None,l,1,0.5566725004464388,428.47122890129685,None,None,None,,,,,,,19,21,female,19,2022_May_10_1155,Partial repeat,2021.2.3,59.87281784709459,
4,4,0,1,3,2,2,1,0,0,0,0,1,1,0,0,83,83,83,1,0,1,0,,,,,,,,,429.0550810005516,None,429.85747660137713,None,l,1,0.8023915998637676,429.85747660137713,None,None,None,,,,,,,19,21,female,19,2022_May_10_1155,Partial repeat,2021.2.3,59.87281784709459,
4,4,0,1,3,2,2,1,0,0,0,0,1,1,0,0,83,83,83,,,,,,,,,,,,,,,,,,,,,,,,,,,,,,19,21,female,19,2022_May_10_1155,Partial repeat,2021.2.3,59.87281784709459,
4,4,0,1,3,2,1,2,1,0,0,0,0,1,0,0,84,84,84,0,0,0,0,,,,,,,430.67835370078683,None,431.097511600703,None,431.8946023005992,None,s,1,0.6052919998764992,431.8946023005992,None,None,None,,,,,,,19,21,female,19,2022_May_10_1155,Partial repeat,2021.2.3,59.87281784709459,
4,4,0,1,3,2,1,2,1,0,0,0,0,1,0,0,84,84,84,1,0,1,0,,,,,,,,,432.5207446999848,None,433.5311513002962,None,l,1,0.6167946998029947,433.5311513002962,None,None,None,,,,,,,19,21,female,19,2022_May_10_1155,Partial repeat,2021.2.3,59.87281784709459,
4,4,0,1,3,2,1,2,1,0,0,0,0,1,0,0,84,84,84,,,,,,,,,,,,,,,,,,,,,,,,,,,,,,19,21,female,19,2022_May_10_1155,Partial repeat,2021.2.3,59.87281784709459,
4,4,0,1,2,3,1,1,1,0,0,1,0,1,0,0,85,85,85,0,0,0,0,,,,,,,434.1604301016778,None,434.9216576013714,None,435.8187608011067,None,s,1,0.8810761999338865,435.8187608011067,None,None,None,,,,,,,19,21,female,19,2022_May_10_1155,Partial repeat,2021.2.3,59.87281784709459,
4,4,0,1,2,3,1,1,1,0,0,1,0,1,0,0,85,85,85,1,0,1,0,,,,,,,,,436.71670840121806,None,437.4723845012486,None,l,1,0.4754678998142481,437.4723845012486,None,None,None,,,,,,,19,21,female,19,2022_May_10_1155,Partial repeat,2021.2.3,59.87281784709459,
4,4,0,1,2,3,1,1,1,0,0,1,0,1,0,0,85,85,85,,,,,,,,,,,,,,,,,,,,,,,,,,,,,,19,21,female,19,2022_May_10_1155,Partial repeat,2021.2.3,59.87281784709459,
4,4,0,1,3,2,1,1,0,1,0,1,0,1,0,0,86,86,86,0,0,0,0,,,,,,,437.9726266004145,None,439.5806795004755,None,440.3612828999758,None,l,1,0.754601001739502,440.3612828999758,None,None,None,,,,,,,19,21,female,19,2022_May_10_1155,Partial repeat,2021.2.3,59.87281784709459,
4,4,0,1,3,2,1,1,0,1,0,1,0,1,0,0,86,86,86,1,0,1,0,,,,,,,,,441.131877200678,None,441.9308193009347,None,s,1,0.48907089978456497,441.9308193009347,None,None,None,,,,,,,19,21,female,19,2022_May_10_1155,Partial repeat,2021.2.3,59.87281784709459,
4,4,0,1,3,2,1,1,0,1,0,1,0,1,0,0,86,86,86,,,,,,,,,,,,,,,,,,,,,,,,,,,,,,19,21,female,19,2022_May_10_1155,Partial repeat,2021.2.3,59.87281784709459,
4,4,0,1,2,3,2,2,0,0,0,1,1,1,0,0,87,87,87,0,0,0,0,,,,,,,442.43797940015793,None,442.9539138004184,None,443.851206401363,None,l,1,0.6326487008482218,443.851206401363,None,None,None,,,,,,,19,21,female,19,2022_May_10_1155,Partial repeat,2021.2.3,59.87281784709459,
4,4,0,1,2,3,2,2,0,0,0,1,1,1,0,0,87,87,87,1,0,1,0,,,,,,,,,444.504482800141,None,445.33738640137017,None,l,1,0.8105143997818232,445.33738640137017,None,None,None,,,,,,,19,21,female,19,2022_May_10_1155,Partial repeat,2021.2.3,59.87281784709459,
4,4,0,1,2,3,2,2,0,0,0,1,1,1,0,0,87,87,87,,,,,,,,,,,,,,,,,,,,,,,,,,,,,,19,21,female,19,2022_May_10_1155,Partial repeat,2021.2.3,59.87281784709459,
4,4,0,1,2,2,1,1,0,0,1,1,1,1,0,0,88,88,88,0,0,0,0,,,,,,,446.1776110008359,None,446.6611390002072,None,447.42627270147204,None,l,1,0.7775799985975027,447.42627270147204,None,None,None,,,,,,,19,21,female,19,2022_May_10_1155,Partial repeat,2021.2.3,59.87281784709459,
4,4,0,1,2,2,1,1,0,0,1,1,1,1,0,0,88,88,88,1,0,1,0,,,,,,,,,448.2210084013641,None,448.97804730013013,None,l,1,0.4818064011633396,448.97804730013013,None,None,None,,,,,,,19,21,female,19,2022_May_10_1155,Partial repeat,2021.2.3,59.87281784709459,
4,4,0,1,2,2,1,1,0,0,1,1,1,1,0,0,88,88,88,,,,,,,,,,,,,,,,,,,,,,,,,,,,,,19,21,female,19,2022_May_10_1155,Partial repeat,2021.2.3,59.87281784709459,
4,4,0,1,3,3,1,2,0,0,1,0,1,1,0,0,89,89,89,0,0,0,0,,,,,,,449.4786239005625,None,449.98431610129774,None,450.84833240136504,None,l,1,0.6354904007166624,450.84833240136504,None,None,None,,,,,,,19,21,female,19,2022_May_10_1155,Partial repeat,2021.2.3,59.87281784709459,
4,4,0,1,3,3,1,2,0,0,1,0,1,1,0,0,89,89,89,1,0,1,0,,,,,,,,,451.51241550035775,None,452.334526700899,None,l,1,0.5173372998833656,452.334526700899,None,None,None,,,,,,,19,21,female,19,2022_May_10_1155,Partial repeat,2021.2.3,59.87281784709459,
4,4,0,1,3,3,1,2,0,0,1,0,1,1,0,0,89,89,89,,,,,,,,,,,,,,,,,,,,,,,,,,,,,,19,21,female,19,2022_May_10_1155,Partial repeat,2021.2.3,59.87281784709459,
4,4,0,1,3,2,2,1,1,0,0,0,0,1,0,0,90,90,90,0,0,0,0,,,,,,,452.8808949999511,None,454.7101737000048,None,455.6412705015391,None,s,1,0.6586298998445272,455.6412705015391,None,None,None,,,,,,,19,21,female,19,2022_May_10_1155,Partial repeat,2021.2.3,59.87281784709459,
4,4,0,1,3,2,2,1,1,0,0,0,0,1,0,0,90,90,90,1,0,1,0,,,,,,,,,456.3268605004996,None,457.17729600146413,None,l,1,0.46655810065567493,457.17729600146413,None,None,None,,,,,,,19,21,female,19,2022_May_10_1155,Partial repeat,2021.2.3,59.87281784709459,
4,4,0,1,3,2,2,1,1,0,0,0,0,1,0,0,90,90,90,,,,,,,,,,,,,,,,,,,,,,,,,,,,,,19,21,female,19,2022_May_10_1155,Partial repeat,2021.2.3,59.87281784709459,
4,4,0,1,2,3,2,1,1,0,0,0,0,1,0,0,91,91,91,0,0,0,0,,,,,,,457.65905120037496,None,460.43798270076513,None,461.3852014001459,None,s,1,2.610658299177885,461.3852014001459,None,None,None,,,,,,,19,21,female,19,2022_May_10_1155,Partial repeat,2021.2.3,59.87281784709459,
4,4,0,1,2,3,2,1,1,0,0,0,0,1,0,0,91,91,91,1,0,1,0,,,,,,,,,464.01654650084674,None,464.7420880999416,None,l,1,0.5018039010465145,464.7420880999416,None,None,None,,,,,,,19,21,female,19,2022_May_10_1155,Partial repeat,2021.2.3,59.87281784709459,
4,4,0,1,2,3,2,1,1,0,0,0,0,1,0,0,91,91,91,,,,,,,,,,,,,,,,,,,,,,,,,,,,,,19,21,female,19,2022_May_10_1155,Partial repeat,2021.2.3,59.87281784709459,
4,4,0,1,2,2,2,2,0,0,1,1,1,1,0,0,92,92,92,0,0,0,0,,,,,,,465.2620259001851,None,466.0823157001287,None,467.0298850014806,None,l,1,0.6219702996313572,467.0298850014806,None,None,None,,,,,,,19,21,female,19,2022_May_10_1155,Partial repeat,2021.2.3,59.87281784709459,
4,4,0,1,2,2,2,2,0,0,1,1,1,1,0,0,92,92,92,1,0,1,0,,,,,,,,,467.6754018012434,None,468.68357880041003,None,l,1,0.47231229953467846,468.68357880041003,None,None,None,,,,,,,19,21,female,19,2022_May_10_1155,Partial repeat,2021.2.3,59.87281784709459,
4,4,0,1,2,2,2,2,0,0,1,1,1,1,0,0,92,92,92,,,,,,,,,,,,,,,,,,,,,,,,,,,,,,19,21,female,19,2022_May_10_1155,Partial repeat,2021.2.3,59.87281784709459,
4,4,0,1,2,3,2,2,1,1,0,1,1,1,0,0,93,93,93,0,0,0,0,,,,,,,469.1874745003879,None,471.8101095017046,None,472.7410462014377,None,s,1,0.4948127996176481,472.7410462014377,None,None,None,,,,,,,19,21,female,19,2022_May_10_1155,Partial repeat,2021.2.3,59.87281784709459,
4,4,0,1,2,3,2,2,1,1,0,1,1,1,0,0,93,93,93,1,0,1,0,,,,,,,,,473.260032100603,None,474.06011700071394,None,s,1,0.3757681008428335,474.06011700071394,None,None,None,,,,,,,19,21,female,19,2022_May_10_1155,Partial repeat,2021.2.3,59.87281784709459,
4,4,0,1,2,3,2,2,1,1,0,1,1,1,0,0,93,93,93,,,,,,,,,,,,,,,,,,,,,,,,,,,,,,19,21,female,19,2022_May_10_1155,Partial repeat,2021.2.3,59.87281784709459,
4,4,0,1,2,2,2,1,0,1,1,0,0,1,0,0,94,94,94,0,0,0,0,,,,,,,474.4554580003023,None,474.89949270151556,None,475.63053740002215,None,l,1,0.621314400807023,475.63053740002215,None,None,None,,,,,,,19,21,female,19,2022_May_10_1155,Partial repeat,2021.2.3,59.87281784709459,
4,4,0,1,2,2,2,1,0,1,1,0,0,1,0,0,94,94,94,1,0,1,0,,,,,,,,,476.27493870072067,None,477.23297350108624,None,s,1,0.4188397992402315,477.23297350108624,None,None,None,,,,,,,19,21,female,19,2022_May_10_1155,Partial repeat,2021.2.3,59.87281784709459,
4,4,0,1,2,2,2,1,0,1,1,0,0,1,0,0,94,94,94,,,,,,,,,,,,,,,,,,,,,,,,,,,,,,19,21,female,19,2022_May_10_1155,Partial repeat,2021.2.3,59.87281784709459,
4,4,0,1,3,3,1,2,0,1,1,0,0,1,0,0,95,95,95,0,0,0,0,,,,,,,477.67190390080214,None,478.1056409999728,None,478.83606510050595,None,s,0,0.9917837996035814,478.83606510050595,None,479.839978300035,None,,,,,,,19,21,female,19,2022_May_10_1155,Partial repeat,2021.2.3,59.87281784709459,
4,4,0,1,3,3,1,2,0,1,1,0,0,1,0,0,95,95,95,1,0,1,0,,,,,,,,,480.34339780174196,None,481.15713060088456,None,s,1,1.006724400445819,481.15713060088456,None,None,None,,,,,,,19,21,female,19,2022_May_10_1155,Partial repeat,2021.2.3,59.87281784709459,
4,4,0,1,3,3,1,2,0,1,1,0,0,1,0,0,95,95,95,,,,,,,,,,,,,,,,,,,,,,,,,,,,,,19,21,female,19,2022_May_10_1155,Partial repeat,2021.2.3,59.87281784709459,
4,4,0,1,2,3,1,2,0,1,0,0,0,1,0,0,96,96,96,0,0,0,0,,,,,,,482.18822050094604,None,482.7647633012384,None,483.7453841008246,None,l,1,0.5305316001176834,483.7453841008246,None,None,None,,,,,,,19,21,female,19,2022_May_10_1155,Partial repeat,2021.2.3,59.87281784709459,
4,4,0,1,2,3,1,2,0,1,0,0,0,1,0,0,96,96,96,1,0,1,0,,,,,,,,,484.30252020061016,None,485.06478870101273,None,s,1,0.7950630001723766,485.06478870101273,None,None,None,,,,,,,19,21,female,19,2022_May_10_1155,Partial repeat,2021.2.3,59.87281784709459,
4,4,0,1,2,3,1,2,0,1,0,0,0,1,0,0,96,96,96,,,,,,,,,,,,,,,,,,,,,,,,,,,,,,19,21,female,19,2022_May_10_1155,Partial repeat,2021.2.3,59.87281784709459,
4,4,0,1,3,2,2,2,1,1,0,1,1,1,0,0,97,97,97,0,0,0,0,,,,,,,485.88346330076456,None,488.57607519999146,None,489.3064558003098,None,s,1,0.7213728986680508,489.3064558003098,None,None,None,,,,,,,19,21,female,19,2022_May_10_1155,Partial repeat,2021.2.3,59.87281784709459,
4,4,0,1,3,2,2,2,1,1,0,1,1,1,0,0,97,97,97,1,0,1,0,,,,,,,,,490.03629960119724,None,490.8259328007698,None,s,1,0.5299200005829334,490.8259328007698,None,None,None,,,,,,,19,21,female,19,2022_May_10_1155,Partial repeat,2021.2.3,59.87281784709459,
4,4,0,1,3,2,2,2,1,1,0,1,1,1,0,0,97,97,97,,,,,,,,,,,,,,,,,,,,,,,,,,,,,,19,21,female,19,2022_May_10_1155,Partial repeat,2021.2.3,59.87281784709459,
4,4,0,1,2,2,1,1,0,1,1,1,0,1,0,0,98,98,98,0,0,0,0,,,,,,,491.3717626016587,None,493.2183926012367,None,494.14922280050814,None,l,1,0.5746117997914553,494.14922280050814,None,None,None,,,,,,,19,21,female,19,2022_May_10_1155,Partial repeat,2021.2.3,59.87281784709459,
4,4,0,1,2,2,1,1,0,1,1,1,0,1,0,0,98,98,98,1,0,1,0,,,,,,,,,494.7506794016808,None,495.55181630142033,None,s,1,1.6760464999824762,495.55181630142033,None,None,None,,,,,,,19,21,female,19,2022_May_10_1155,Partial repeat,2021.2.3,59.87281784709459,
4,4,0,1,2,2,1,1,0,1,1,1,0,1,0,0,98,98,98,,,,,,,,,,,,,,,,,,,,,,,,,,,,,,19,21,female,19,2022_May_10_1155,Partial repeat,2021.2.3,59.87281784709459,
4,4,0,1,3,3,2,1,0,1,1,0,0,1,0,0,99,99,99,0,0,0,0,,,,,,,497.25126040168107,None,497.8440688010305,None,498.6744646001607,None,l,1,0.4333889000117779,498.6744646001607,None,None,None,,,,,,,19,21,female,19,2022_May_10_1155,Partial repeat,2021.2.3,59.87281784709459,
4,4,0,1,3,3,2,1,0,1,1,0,0,1,0,0,99,99,99,1,0,1,0,,,,,,,,,499.1292684003711,None,499.94403270073235,None,s,1,0.4757988005876541,499.94403270073235,None,None,None,,,,,,,19,21,female,19,2022_May_10_1155,Partial repeat,2021.2.3,59.87281784709459,
4,4,0,1,3,3,2,1,0,1,1,0,0,1,0,0,99,99,99,,,,,,,,,,,,,,,,,,,,,,,,,,,,,,19,21,female,19,2022_May_10_1155,Partial repeat,2021.2.3,59.87281784709459,
4,4,0,1,3,3,2,2,1,0,1,1,0,1,0,0,100,100,100,0,0,0,0,,,,,,,500.44461130164564,None,502.4196777008474,None,503.1509157009423,None,s,1,0.5409344993531704,503.1509157009423,None,None,None,,,,,,,19,21,female,19,2022_May_10_1155,Partial repeat,2021.2.3,59.87281784709459,
4,4,0,1,3,3,2,2,1,0,1,1,0,1,0,0,100,100,100,1,0,1,0,,,,,,,,,503.71803390048444,None,504.5869245007634,None,l,1,0.6649285014718771,504.5869245007634,None,None,None,,,,,,,19,21,female,19,2022_May_10_1155,Partial repeat,2021.2.3,59.87281784709459,
4,4,0,1,3,3,2,2,1,0,1,1,0,1,0,0,100,100,100,,,,,,,,,,,,,,,,,,,,,,,,,,,,,,19,21,female,19,2022_May_10_1155,Partial repeat,2021.2.3,59.87281784709459,
4,4,0,1,2,2,1,2,0,0,1,0,1,1,0,0,101,101,101,0,0,0,0,,,,,,,505.26995550096035,None,508.0805131010711,None,508.9448306001723,None,l,1,0.6510190013796091,508.9448306001723,None,None,None,,,,,,,19,21,female,19,2022_May_10_1155,Partial repeat,2021.2.3,59.87281784709459,
4,4,0,1,2,2,1,2,0,0,1,0,1,1,0,0,101,101,101,1,0,1,0,,,,,,,,,509.61369800008833,None,510.59802380017936,None,l,1,0.5418251007795334,510.59802380017936,None,None,None,,,,,,,19,21,female,19,2022_May_10_1155,Partial repeat,2021.2.3,59.87281784709459,
4,4,0,1,2,2,1,2,0,0,1,0,1,1,0,0,101,101,101,,,,,,,,,,,,,,,,,,,,,,,,,,,,,,19,21,female,19,2022_May_10_1155,Partial repeat,2021.2.3,59.87281784709459,
4,4,0,1,2,2,1,2,0,1,1,0,0,1,0,0,102,102,102,0,0,0,0,,,,,,,511.1664659008384,None,513.240680301562,None,514.2550451010466,None,l,1,0.5408021993935108,514.2550451010466,None,None,None,,,,,,,19,21,female,19,2022_May_10_1155,Partial repeat,2021.2.3,59.87281784709459,
4,4,0,1,2,2,1,2,0,1,1,0,0,1,0,0,102,102,102,1,0,1,0,,,,,,,,,514.8132597003132,None,515.8244877010584,None,s,1,0.555358400568366,515.8244877010584,None,None,None,,,,,,,19,21,female,19,2022_May_10_1155,Partial repeat,2021.2.3,59.87281784709459,
4,4,0,1,2,2,1,2,0,1,1,0,0,1,0,0,102,102,102,,,,,,,,,,,,,,,,,,,,,,,,,,,,,,19,21,female,19,2022_May_10_1155,Partial repeat,2021.2.3,59.87281784709459,
4,4,0,1,3,3,2,2,1,1,1,1,1,1,0,0,103,103,103,0,0,0,0,,,,,,,516.4068935010582,None,517.7995481006801,None,518.6800575014204,None,s,1,0.6517950985580683,518.6800575014204,None,None,None,,,,,,,19,21,female,19,2022_May_10_1155,Partial repeat,2021.2.3,59.87281784709459,
4,4,0,1,3,3,2,2,1,1,1,1,1,1,0,0,103,103,103,1,0,1,0,,,,,,,,,519.3469748012722,None,520.2668338008225,None,s,1,0.5850245989859104,520.2668338008225,None,None,None,,,,,,,19,21,female,19,2022_May_10_1155,Partial repeat,2021.2.3,59.87281784709459,
4,4,0,1,3,3,2,2,1,1,1,1,1,1,0,0,103,103,103,,,,,,,,,,,,,,,,,,,,,,,,,,,,,,19,21,female,19,2022_May_10_1155,Partial repeat,2021.2.3,59.87281784709459,
4,4,0,1,2,3,2,1,0,1,0,0,0,1,0,0,104,104,104,0,0,0,0,,,,,,,520.8744173999876,None,522.308362301439,None,523.2559549007565,None,l,1,0.6918821986764669,523.2559549007565,None,None,None,,,,,,,19,21,female,19,2022_May_10_1155,Partial repeat,2021.2.3,59.87281784709459,
4,4,0,1,2,3,2,1,0,1,0,0,0,1,0,0,104,104,104,1,0,1,0,,,,,,,,,523.9613148011267,None,524.9590812008828,None,s,1,0.5007607992738485,524.9590812008828,None,None,None,,,,,,,19,21,female,19,2022_May_10_1155,Partial repeat,2021.2.3,59.87281784709459,
4,4,0,1,2,3,2,1,0,1,0,0,0,1,0,0,104,104,104,,,,,,,,,,,,,,,,,,,,,,,,,,,,,,19,21,female,19,2022_May_10_1155,Partial repeat,2021.2.3,59.87281784709459,
4,4,0,1,3,3,1,1,1,1,1,1,1,1,0,0,105,105,105,0,0,0,0,,,,,,,525.477624701336,None,526.8672211002558,None,527.7479044999927,None,s,1,0.5839366000145674,527.7479044999927,None,None,None,,,,,,,19,21,female,19,2022_May_10_1155,Partial repeat,2021.2.3,59.87281784709459,
4,4,0,1,3,3,1,1,1,1,1,1,1,1,0,0,105,105,105,1,0,1,0,,,,,,,,,528.3448409009725,None,529.2005107011646,None,s,1,0.4034032002091408,529.2005107011646,None,None,None,,,,,,,19,21,female,19,2022_May_10_1155,Partial repeat,2021.2.3,59.87281784709459,
4,4,0,1,3,3,1,1,1,1,1,1,1,1,0,0,105,105,105,,,,,,,,,,,,,,,,,,,,,,,,,,,,,,19,21,female,19,2022_May_10_1155,Partial repeat,2021.2.3,59.87281784709459,
4,4,0,1,3,3,1,2,1,1,1,0,1,1,0,0,106,106,106,0,0,0,0,,,,,,,529.6158509012312,None,532.8622570000589,None,533.7761561013758,None,s,1,1.0036920011043549,533.7761561013758,None,None,None,,,,,,,19,21,female,19,2022_May_10_1155,Partial repeat,2021.2.3,59.87281784709459,
4,4,0,1,3,3,1,2,1,1,1,0,1,1,0,0,106,106,106,1,0,1,0,,,,,,,,,534.8061774000525,None,535.6134007014334,None,s,1,0.4704972989857197,535.6134007014334,None,None,None,,,,,,,19,21,female,19,2022_May_10_1155,Partial repeat,2021.2.3,59.87281784709459,
4,4,0,1,3,3,1,2,1,1,1,0,1,1,0,0,106,106,106,,,,,,,,,,,,,,,,,,,,,,,,,,,,,,19,21,female,19,2022_May_10_1155,Partial repeat,2021.2.3,59.87281784709459,
4,4,0,1,3,2,2,2,1,0,0,1,0,1,0,0,107,107,107,0,0,0,0,,,,,,,536.115136301145,None,538.52325040102,None,539.4207300003618,None,s,1,0.45510130003094673,539.4207300003618,None,None,None,,,,,,,19,21,female,19,2022_May_10_1155,Partial repeat,2021.2.3,59.87281784709459,
4,4,0,1,3,2,2,2,1,0,0,1,0,1,0,0,107,107,107,1,0,1,0,,,,,,,,,539.8900079000741,None,540.8733206000179,None,l,1,0.5065586008131504,540.8733206000179,None,None,None,,,,,,,19,21,female,19,2022_May_10_1155,Partial repeat,2021.2.3,59.87281784709459,
4,4,0,1,3,2,2,2,1,0,0,1,0,1,0,0,107,107,107,,,,,,,,,,,,,,,,,,,,,,,,,,,,,,19,21,female,19,2022_May_10_1155,Partial repeat,2021.2.3,59.87281784709459,
4,4,0,1,3,3,2,1,1,0,1,0,0,1,0,0,108,108,108,0,0,0,0,,,,,,,541.3944451007992,None,543.482904901728,None,544.4638852011412,None,s,1,0.5559639986604452,544.4638852011412,None,None,None,,,,,,,19,21,female,19,2022_May_10_1155,Partial repeat,2021.2.3,59.87281784709459,
4,4,0,1,3,3,2,1,1,0,1,0,0,1,0,0,108,108,108,1,0,1,0,,,,,,,,,545.0438289009035,None,545.8832668010145,None,l,1,0.4726534001529217,545.8832668010145,None,None,None,,,,,,,19,21,female,19,2022_May_10_1155,Partial repeat,2021.2.3,59.87281784709459,
4,4,0,1,3,3,2,1,1,0,1,0,0,1,0,0,108,108,108,,,,,,,,,,,,,,,,,,,,,,,,,,,,,,19,21,female,19,2022_May_10_1155,Partial repeat,2021.2.3,59.87281784709459,
4,4,0,1,3,2,1,1,1,0,0,1,0,1,0,0,109,109,109,0,0,0,0,,,,,,,546.3852315004915,None,547.0398013014346,None,547.7866592016071,None,s,1,0.5531794000416994,547.7866592016071,None,None,None,,,,,,,19,21,female,19,2022_May_10_1155,Partial repeat,2021.2.3,59.87281784709459,
4,4,0,1,3,2,1,1,1,0,0,1,0,1,0,0,109,109,109,1,0,1,0,,,,,,,,,548.3557327017188,None,549.2732652015984,None,l,1,0.46653129905462265,549.2732652015984,None,None,None,,,,,,,19,21,female,19,2022_May_10_1155,Partial repeat,2021.2.3,59.87281784709459,
4,4,0,1,3,2,1,1,1,0,0,1,0,1,0,0,109,109,109,,,,,,,,,,,,,,,,,,,,,,,,,,,,,,19,21,female,19,2022_May_10_1155,Partial repeat,2021.2.3,59.87281784709459,
4,4,0,1,2,3,2,1,0,0,0,0,1,1,0,0,110,110,110,0,0,0,0,,,,,,,549.7586252000183,None,551.6654952000827,None,552.6306608002633,None,l,1,1.6932338997721672,552.6306608002633,None,None,None,,,,,,,19,21,female,19,2022_May_10_1155,Partial repeat,2021.2.3,59.87281784709459,
4,4,0,1,2,3,2,1,0,0,0,0,1,1,0,0,110,110,110,1,0,1,0,,,,,,,,,554.352691501379,None,555.1680792011321,None,l,1,0.49976840056478977,555.1680792011321,None,None,None,,,,,,,19,21,female,19,2022_May_10_1155,Partial repeat,2021.2.3,59.87281784709459,
4,4,0,1,2,3,2,1,0,0,0,0,1,1,0,0,110,110,110,,,,,,,,,,,,,,,,,,,,,,,,,,,,,,19,21,female,19,2022_May_10_1155,Partial repeat,2021.2.3,59.87281784709459,
4,4,0,1,2,3,1,1,0,0,0,1,1,1,0,0,111,111,111,0,0,0,0,,,,,,,555.6919606011361,None,556.124170800671,None,557.0380433015525,None,l,1,0.4697965011000633,557.0380433015525,None,None,None,,,,,,,19,21,female,19,2022_May_10_1155,Partial repeat,2021.2.3,59.87281784709459,
4,4,0,1,2,3,1,1,0,0,0,1,1,1,0,0,111,111,111,1,0,1,0,,,,,,,,,557.5310524012893,None,558.40736570023,None,l,1,0.39654409885406494,558.40736570023,None,None,None,,,,,,,19,21,female,19,2022_May_10_1155,Partial repeat,2021.2.3,59.87281784709459,
4,4,0,1,2,3,1,1,0,0,0,1,1,1,0,0,111,111,111,,,,,,,,,,,,,,,,,,,,,,,,,,,,,,19,21,female,19,2022_May_10_1155,Partial repeat,2021.2.3,59.87281784709459,
4,4,0,1,3,3,2,1,1,1,1,0,1,1,0,0,112,112,112,0,0,0,0,,,,,,,558.8276073001325,None,560.2488180007786,None,561.2128845006227,None,s,1,0.43096440099179745,561.2128845006227,None,None,None,,,,,,,19,21,female,19,2022_May_10_1155,Partial repeat,2021.2.3,59.87281784709459,
4,4,0,1,3,3,2,1,1,1,1,0,1,1,0,0,112,112,112,1,0,1,0,,,,,,,,,561.6672005001456,None,562.3984122015536,None,s,1,0.453447999432683,562.3984122015536,None,None,None,,,,,,,19,21,female,19,2022_May_10_1155,Partial repeat,2021.2.3,59.87281784709459,
4,4,0,1,3,3,2,1,1,1,1,0,1,1,0,0,112,112,112,,,,,,,,,,,,,,,,,,,,,,,,,,,,,,19,21,female,19,2022_May_10_1155,Partial repeat,2021.2.3,59.87281784709459,
4,4,0,1,2,3,2,2,1,0,0,1,0,1,0,0,113,113,113,0,0,0,0,,,,,,,562.8808017000556,None,563.521900601685,None,564.3358159009367,None,s,1,0.6200714986771345,564.3358159009367,None,None,None,,,,,,,19,21,female,19,2022_May_10_1155,Partial repeat,2021.2.3,59.87281784709459,
4,4,0,1,2,3,2,2,1,0,0,1,0,1,0,0,113,113,113,1,0,1,0,,,,,,,,,564.9828864000738,None,565.7885783016682,None,l,1,0.4152660984545946,565.7885783016682,None,None,None,,,,,,,19,21,female,19,2022_May_10_1155,Partial repeat,2021.2.3,59.87281784709459,
4,4,0,1,2,3,2,2,1,0,0,1,0,1,0,0,113,113,113,,,,,,,,,,,,,,,,,,,,,,,,,,,,,,19,21,female,19,2022_May_10_1155,Partial repeat,2021.2.3,59.87281784709459,
4,4,0,1,2,2,2,1,1,0,1,0,0,1,0,0,114,114,114,0,0,0,0,,,,,,,566.227752700448,None,566.8783332016319,None,567.6757253017277,None,s,1,0.5681440997868776,567.6757253017277,None,None,None,,,,,,,19,21,female,19,2022_May_10_1155,Partial repeat,2021.2.3,59.87281784709459,
4,4,0,1,2,2,2,1,1,0,1,0,0,1,0,0,114,114,114,1,0,1,0,,,,,,,,,568.2553600016981,None,569.2450738009065,None,l,1,0.41481739841401577,569.2450738009065,None,None,None,,,,,,,19,21,female,19,2022_May_10_1155,Partial repeat,2021.2.3,59.87281784709459,
4,4,0,1,2,2,2,1,1,0,1,0,0,1,0,0,114,114,114,,,,,,,,,,,,,,,,,,,,,,,,,,,,,,19,21,female,19,2022_May_10_1155,Partial repeat,2021.2.3,59.87281784709459,
4,4,0,1,2,3,1,2,0,0,0,0,1,1,0,0,115,115,115,0,0,0,0,,,,,,,569.6811571009457,None,570.168154200539,None,571.0154254008085,None,l,1,1.0444106999784708,571.0154254008085,None,None,None,,,,,,,19,21,female,19,2022_May_10_1155,Partial repeat,2021.2.3,59.87281784709459,
4,4,0,1,2,3,1,2,0,0,0,0,1,1,0,0,115,115,115,1,0,1,0,,,,,,,,,572.0802164003253,None,573.0025828015059,None,l,1,0.44925250113010406,573.0025828015059,None,None,None,,,,,,,19,21,female,19,2022_May_10_1155,Partial repeat,2021.2.3,59.87281784709459,
4,4,0,1,2,3,1,2,0,0,0,0,1,1,0,0,115,115,115,,,,,,,,,,,,,,,,,,,,,,,,,,,,,,19,21,female,19,2022_May_10_1155,Partial repeat,2021.2.3,59.87281784709459,
4,4,0,1,3,3,1,1,0,0,1,1,1,1,0,0,116,116,116,0,0,0,0,,,,,,,573.4787042010576,None,574.2259289007634,None,575.226008400321,None,l,1,0.5058190990239382,575.226008400321,None,None,None,,,,,,,19,21,female,19,2022_May_10_1155,Partial repeat,2021.2.3,59.87281784709459,
4,4,0,1,3,3,1,1,0,0,1,1,1,1,0,0,116,116,116,1,0,1,0,,,,,,,,,575.7494955006987,None,576.6595003008842,None,l,1,0.5443456992506981,576.6595003008842,None,None,None,,,,,,,19,21,female,19,2022_May_10_1155,Partial repeat,2021.2.3,59.87281784709459,
4,4,0,1,3,3,1,1,0,0,1,1,1,1,0,0,116,116,116,,,,,,,,,,,,,,,,,,,,,,,,,,,,,,19,21,female,19,2022_May_10_1155,Partial repeat,2021.2.3,59.87281784709459,
4,4,0,1,3,3,2,2,0,1,1,1,0,1,0,0,117,117,117,0,0,0,0,,,,,,,577.2208543010056,None,577.6490825004876,None,578.4966848008335,None,l,1,0.45915399864315987,578.4966848008335,None,None,None,,,,,,,19,21,female,19,2022_May_10_1155,Partial repeat,2021.2.3,59.87281784709459,
4,4,0,1,3,3,2,2,0,1,1,1,0,1,0,0,117,117,117,1,0,1,0,,,,,,,,,578.9731205012649,None,579.9838165007532,None,s,1,0.524022601544857,579.9838165007532,None,None,None,,,,,,,19,21,female,19,2022_May_10_1155,Partial repeat,2021.2.3,59.87281784709459,
4,4,0,1,3,3,2,2,0,1,1,1,0,1,0,0,117,117,117,,,,,,,,,,,,,,,,,,,,,,,,,,,,,,19,21,female,19,2022_May_10_1155,Partial repeat,2021.2.3,59.87281784709459,
4,4,0,1,2,2,1,1,1,0,1,1,0,1,0,0,118,118,118,0,0,0,0,,,,,,,580.5276005007327,None,582.4587493017316,None,583.4227736014873,None,s,1,0.6611454989761114,583.4227736014873,None,None,None,,,,,,,19,21,female,19,2022_May_10_1155,Partial repeat,2021.2.3,59.87281784709459,
4,4,0,1,2,2,1,1,1,0,1,1,0,1,0,0,118,118,118,1,0,1,0,,,,,,,,,584.0939032007009,None,584.8590330015868,None,l,1,0.4647959992289543,584.8590330015868,None,None,None,,,,,,,19,21,female,19,2022_May_10_1155,Partial repeat,2021.2.3,59.87281784709459,
4,4,0,1,2,2,1,1,1,0,1,1,0,1,0,0,118,118,118,,,,,,,,,,,,,,,,,,,,,,,,,,,,,,19,21,female,19,2022_May_10_1155,Partial repeat,2021.2.3,59.87281784709459,
4,4,0,1,2,2,1,2,1,1,1,0,1,1,0,0,119,119,119,0,0,0,0,,,,,,,585.3382480014116,None,585.8653654009104,None,586.8797552008182,None,s,1,1.0120834987610579,586.8797552008182,None,None,None,,,,,,,19,21,female,19,2022_May_10_1155,Partial repeat,2021.2.3,59.87281784709459,
4,4,0,1,2,2,1,2,1,1,1,0,1,1,0,0,119,119,119,1,0,1,0,,,,,,,,,587.9108902011067,None,588.8845881000161,None,s,1,0.6152270007878542,588.8845881000161,None,None,None,,,,,,,19,21,female,19,2022_May_10_1155,Partial repeat,2021.2.3,59.87281784709459,
4,4,0,1,2,2,1,2,1,1,1,0,1,1,0,0,119,119,119,,,,,,,,,,,,,,,,,,,,,,,,,,,,,,19,21,female,19,2022_May_10_1155,Partial repeat,2021.2.3,59.87281784709459,
4,4,0,1,2,3,1,2,1,0,0,0,0,1,0,0,120,120,120,0,0,0,0,,,,,,,589.5144287012517,None,590.5076825004071,None,591.4887109007686,None,s,1,0.6271263994276524,591.4887109007686,None,None,None,,,,,,,19,21,female,19,2022_May_10_1155,Partial repeat,2021.2.3,59.87281784709459,
4,4,0,1,2,3,1,2,1,0,0,0,0,1,0,0,120,120,120,1,0,1,0,,,,,,,,,592.1323825009167,None,593.0080270003527,None,l,1,0.47581129893660545,593.0080270003527,None,None,None,,,,,,,19,21,female,19,2022_May_10_1155,Partial repeat,2021.2.3,59.87281784709459,
4,4,0,1,2,3,1,2,1,0,0,0,0,1,0,0,120,120,120,,,,,,,,,,,,,,,,,,,,,,,,,,,,,,19,21,female,19,2022_May_10_1155,Partial repeat,2021.2.3,59.87281784709459,
4,4,0,1,2,2,2,2,1,1,1,1,1,1,0,0,121,121,121,0,0,0,0,,,,,,,593.5094358008355,None,593.9977932013571,None,594.9785314016044,None,s,1,0.577275300398469,594.9785314016044,None,None,None,,,,,,,19,21,female,19,2022_May_10_1155,Partial repeat,2021.2.3,59.87281784709459,
4,4,0,1,2,2,2,2,1,1,1,1,1,1,0,0,121,121,121,1,0,1,0,,,,,,,,,595.5845992006361,None,596.3311178013682,None,s,1,0.4007243998348713,596.3311178013682,None,None,None,,,,,,,19,21,female,19,2022_May_10_1155,Partial repeat,2021.2.3,59.87281784709459,
4,4,0,1,2,2,2,2,1,1,1,1,1,1,0,0,121,121,121,,,,,,,,,,,,,,,,,,,,,,,,,,,,,,19,21,female,19,2022_May_10_1155,Partial repeat,2021.2.3,59.87281784709459,
4,4,0,1,3,2,1,2,1,1,0,0,1,1,0,0,122,122,122,0,0,0,0,,,,,,,596.7475337013602,None,598.6569006014615,None,599.6375252008438,None,s,1,0.5903079006820917,599.6375252008438,None,None,None,,,,,,,19,21,female,19,2022_May_10_1155,Partial repeat,2021.2.3,59.87281784709459,
4,4,0,1,3,2,1,2,1,1,0,0,1,1,0,0,122,122,122,1,0,1,0,,,,,,,,,600.2407578006387,None,601.007000900805,None,s,1,0.4049497991800308,601.007000900805,None,None,None,,,,,,,19,21,female,19,2022_May_10_1155,Partial repeat,2021.2.3,59.87281784709459,
4,4,0,1,3,2,1,2,1,1,0,0,1,1,0,0,122,122,122,,,,,,,,,,,,,,,,,,,,,,,,,,,,,,19,21,female,19,2022_May_10_1155,Partial repeat,2021.2.3,59.87281784709459,
4,4,0,1,2,3,1,2,1,1,0,0,1,1,0,0,123,123,123,0,0,0,0,,,,,,,601.4248758014292,None,603.7835618015379,None,604.5809468012303,None,s,1,0.4389222990721464,604.5809468012303,None,None,None,,,,,,,19,21,female,19,2022_May_10_1155,Partial repeat,2021.2.3,59.87281784709459,
4,4,0,1,2,3,1,2,1,1,0,0,1,1,0,0,123,123,123,1,0,1,0,,,,,,,,,605.0398939009756,None,605.8495825007558,None,s,1,0.3782252985984087,605.8495825007558,None,None,None,,,,,,,19,21,female,19,2022_May_10_1155,Partial repeat,2021.2.3,59.87281784709459,
4,4,0,1,2,3,1,2,1,1,0,0,1,1,0,0,123,123,123,,,,,,,,,,,,,,,,,,,,,,,,,,,,,,19,21,female,19,2022_May_10_1155,Partial repeat,2021.2.3,59.87281784709459,
4,4,0,1,3,2,2,2,0,1,0,1,0,1,0,0,124,124,124,0,0,0,0,,,,,,,606.2454654015601,None,608.3922122009099,None,609.1561030000448,None,l,1,0.679737800732255,609.1561030000448,None,None,None,,,,,,,19,21,female,19,2022_May_10_1155,Partial repeat,2021.2.3,59.87281784709459,
4,4,0,1,3,2,2,2,0,1,0,1,0,1,0,0,124,124,124,1,0,1,0,,,,,,,,,609.8634201008826,None,610.8763066008687,None,s,1,0.4475950989872217,610.8763066008687,None,None,None,,,,,,,19,21,female,19,2022_May_10_1155,Partial repeat,2021.2.3,59.87281784709459,
4,4,0,1,3,2,2,2,0,1,0,1,0,1,0,0,124,124,124,,,,,,,,,,,,,,,,,,,,,,,,,,,,,,19,21,female,19,2022_May_10_1155,Partial repeat,2021.2.3,59.87281784709459,
4,4,0,1,2,3,2,2,0,1,0,1,0,1,0,0,125,125,125,0,0,0,0,,,,,,,611.3368556015193,None,612.2500566001981,None,612.9970987010747,None,l,1,0.7827618010342121,612.9970987010747,None,None,None,,,,,,,19,21,female,19,2022_May_10_1155,Partial repeat,2021.2.3,59.87281784709459,
4,4,0,1,2,3,2,2,0,1,0,1,0,1,0,0,125,125,125,1,0,1,0,,,,,,,,,613.7883503008634,None,614.6345516014844,None,s,1,0.42536069825291634,614.6345516014844,None,None,None,,,,,,,19,21,female,19,2022_May_10_1155,Partial repeat,2021.2.3,59.87281784709459,
4,4,0,1,2,3,2,2,0,1,0,1,0,1,0,0,125,125,125,,,,,,,,,,,,,,,,,,,,,,,,,,,,,,19,21,female,19,2022_May_10_1155,Partial repeat,2021.2.3,59.87281784709459,
4,4,0,1,3,2,2,1,1,1,0,0,1,1,0,0,126,126,126,0,0,0,0,,,,,,,615.0913365017623,None,615.6399349011481,None,616.403821900487,None,s,1,1.05614859983325,616.403821900487,None,None,None,,,,,,,19,21,female,19,2022_May_10_1155,Partial repeat,2021.2.3,59.87281784709459,
4,4,0,1,3,2,2,1,1,1,0,0,1,1,0,0,126,126,126,1,0,1,0,,,,,,,,,617.4696605000645,None,618.4911746010184,None,s,1,0.44067100062966347,618.4911746010184,None,None,None,,,,,,,19,21,female,19,2022_May_10_1155,Partial repeat,2021.2.3,59.87281784709459,
4,4,0,1,3,2,2,1,1,1,0,0,1,1,0,0,126,126,126,,,,,,,,,,,,,,,,,,,,,,,,,,,,,,19,21,female,19,2022_May_10_1155,Partial repeat,2021.2.3,59.87281784709459,
4,4,0,1,3,3,2,2,0,0,1,1,1,1,0,0,127,127,127,0,0,0,0,,,,,,,618.9471227005124,None,619.9650443010032,None,620.879058400169,None,l,1,0.5088520999997854,620.879058400169,None,None,None,,,,,,,19,21,female,19,2022_May_10_1155,Partial repeat,2021.2.3,59.87281784709459,
4,4,0,1,3,3,2,2,0,0,1,1,1,1,0,0,127,127,127,1,0,1,0,,,,,,,,,621.4174990002066,None,622.4154681004584,None,l,1,0.5964740011841059,622.4154681004584,None,None,None,,,,,,,19,21,female,19,2022_May_10_1155,Partial repeat,2021.2.3,59.87281784709459,
4,4,0,1,3,3,2,2,0,0,1,1,1,1,0,0,127,127,127,,,,,,,,,,,,,,,,,,,,,,,,,,,,,,19,21,female,19,2022_May_10_1155,Partial repeat,2021.2.3,59.87281784709459,
1,5,0,1,3,3,2,1,1,0,1,0,0,0,0,0,128,128,128,0,0,0,0,,,,,,,629.8989559002221,None,630.8361385017633,None,631.8504713010043,None,s,1,0.953354999423027,631.8504713010043,None,None,None,,,,,,,19,21,female,19,2022_May_10_1155,Partial repeat,2021.2.3,59.87281784709459,
1,5,0,1,3,3,2,1,1,0,1,0,0,0,0,0,128,128,128,1,0,1,0,,,,,,,,,632.8242967016995,None,633.6203256007284,None,l,1,0.5195004008710384,633.6203256007284,None,None,None,,,,,,,19,21,female,19,2022_May_10_1155,Partial repeat,2021.2.3,59.87281784709459,
1,5,0,1,3,3,2,1,1,0,1,0,0,0,0,0,128,128,128,,,,,,,,,,,,,,,,,,,,,,,,,,,,,,19,21,female,19,2022_May_10_1155,Partial repeat,2021.2.3,59.87281784709459,
4,4,0,1,3,2,2,2,0,0,0,1,1,0,0,0,129,129,129,0,0,0,0,,,,,,,634.162382800132,None,635.3282534014434,None,636.1419286001474,None,l,1,0.5979593992233276,636.1419286001474,None,None,None,,,,,,,19,21,female,19,2022_May_10_1155,Partial repeat,2021.2.3,59.87281784709459,
4,4,0,1,3,2,2,2,0,0,0,1,1,0,0,0,129,129,129,1,0,1,0,,,,,,,,,636.768005201593,None,637.5949645005167,None,l,1,0.5289043989032507,637.5949645005167,None,None,None,,,,,,,19,21,female,19,2022_May_10_1155,Partial repeat,2021.2.3,59.87281784709459,
4,4,0,1,3,2,2,2,0,0,0,1,1,0,0,0,129,129,129,,,,,,,,,,,,,,,,,,,,,,,,,,,,,,19,21,female,19,2022_May_10_1155,Partial repeat,2021.2.3,59.87281784709459,
6,1,0,1,2,2,2,2,1,0,1,1,0,0,0,0,130,130,130,0,0,0,0,,,,,,,638.1404621005058,None,638.5678874012083,None,639.5151832010597,None,s,1,0.6726855002343655,639.5151832010597,None,None,None,,,,,,,19,21,female,19,2022_May_10_1155,Partial repeat,2021.2.3,59.87281784709459,
6,1,0,1,2,2,2,2,1,0,1,1,0,0,0,0,130,130,130,1,0,1,0,,,,,,,,,640.2041961010545,None,640.934653101489,None,l,1,0.6291716005653143,640.934653101489,None,None,None,,,,,,,19,21,female,19,2022_May_10_1155,Partial repeat,2021.2.3,59.87281784709459,
6,1,0,1,2,2,2,2,1,0,1,1,0,0,0,0,130,130,130,,,,,,,,,,,,,,,,,,,,,,,,,,,,,,19,21,female,19,2022_May_10_1155,Partial repeat,2021.2.3,59.87281784709459,
2,4,0,1,3,3,1,2,0,1,1,0,0,0,0,0,131,131,131,0,0,0,0,,,,,,,641.5848545003682,None,641.974526701495,None,642.8552155010402,None,l,1,0.5646187998354435,642.8552155010402,None,None,None,,,,,,,19,21,female,19,2022_May_10_1155,Partial repeat,2021.2.3,59.87281784709459,
2,4,0,1,3,3,1,2,0,1,1,0,0,0,0,0,131,131,131,1,0,1,0,,,,,,,,,643.4382742010057,None,644.1742493007332,None,s,1,0.48558950051665306,644.1742493007332,None,None,None,,,,,,,19,21,female,19,2022_May_10_1155,Partial repeat,2021.2.3,59.87281784709459,
2,4,0,1,3,3,1,2,0,1,1,0,0,0,0,0,131,131,131,,,,,,,,,,,,,,,,,,,,,,,,,,,,,,19,21,female,19,2022_May_10_1155,Partial repeat,2021.2.3,59.87281784709459,
3,3,0,1,3,3,1,2,0,0,1,0,1,0,0,0,132,132,132,0,0,0,0,,,,,,,644.675086600706,None,645.1473514009267,None,645.8780239000916,None,l,1,0.49380259960889816,645.8780239000916,None,None,None,,,,,,,19,21,female,19,2022_May_10_1155,Partial repeat,2021.2.3,59.87281784709459,
3,3,0,1,3,3,1,2,0,0,1,0,1,0,0,0,132,132,132,1,0,1,0,,,,,,,,,646.3899166006595,None,647.2801846005023,None,l,1,0.6516504995524883,647.2801846005023,None,None,None,,,,,,,19,21,female,19,2022_May_10_1155,Partial repeat,2021.2.3,59.87281784709459,
3,3,0,1,3,3,1,2,0,0,1,0,1,0,0,0,132,132,132,,,,,,,,,,,,,,,,,,,,,,,,,,,,,,19,21,female,19,2022_May_10_1155,Partial repeat,2021.2.3,59.87281784709459,
8,7,0,1,3,2,2,1,0,0,0,0,1,0,0,0,133,133,133,0,0,0,0,,,,,,,647.9524351004511,None,648.4537992011756,None,649.451110901311,None,l,1,0.5367761999368668,649.451110901311,None,None,None,,,,,,,19,21,female,19,2022_May_10_1155,Partial repeat,2021.2.3,59.87281784709459,
8,7,0,1,3,2,2,1,0,0,0,0,1,0,0,0,133,133,133,1,0,1,0,,,,,,,,,650.0082542002201,None,650.9042545016855,None,l,1,0.5156385991722345,650.9042545016855,None,None,None,,,,,,,19,21,female,19,2022_May_10_1155,Partial repeat,2021.2.3,59.87281784709459,
8,7,0,1,3,2,2,1,0,0,0,0,1,0,0,0,133,133,133,,,,,,,,,,,,,,,,,,,,,,,,,,,,,,19,21,female,19,2022_May_10_1155,Partial repeat,2021.2.3,59.87281784709459,
8,8,0,1,2,3,2,1,1,0,0,0,0,0,0,0,134,134,134,0,0,0,0,,,,,,,651.4310949016362,None,651.9940438009799,None,652.7750845011324,None,s,1,0.4767780005931854,652.7750845011324,None,None,None,,,,,,,19,21,female,19,2022_May_10_1155,Partial repeat,2021.2.3,59.87281784709459,
8,8,0,1,2,3,2,1,1,0,0,0,0,0,0,0,134,134,134,1,0,1,0,,,,,,,,,653.2650024015456,None,654.2605792004615,None,l,1,0.5912810005247593,654.2605792004615,None,None,None,,,,,,,19,21,female,19,2022_May_10_1155,Partial repeat,2021.2.3,59.87281784709459,
8,8,0,1,2,3,2,1,1,0,0,0,0,0,0,0,134,134,134,,,,,,,,,,,,,,,,,,,,,,,,,,,,,,19,21,female,19,2022_May_10_1155,Partial repeat,2021.2.3,59.87281784709459,
5,5,0,1,2,2,2,2,0,1,1,1,0,0,0,0,135,135,135,0,0,0,0,,,,,,,654.8711740002036,None,655.3171708006412,None,656.0476536005735,None,l,1,0.676213700324297,656.0476536005735,None,None,None,,,,,,,19,21,female,19,2022_May_10_1155,Partial repeat,2021.2.3,59.87281784709459,
5,5,0,1,2,2,2,2,0,1,1,1,0,0,0,0,135,135,135,1,0,1,0,,,,,,,,,656.7345583010465,None,657.5668442007154,None,s,1,0.700967600569129,657.5668442007154,None,None,None,,,,,,,19,21,female,19,2022_May_10_1155,Partial repeat,2021.2.3,59.87281784709459,
5,5,0,1,2,2,2,2,0,1,1,1,0,0,0,0,135,135,135,,,,,,,,,,,,,,,,,,,,,,,,,,,,,,19,21,female,19,2022_May_10_1155,Partial repeat,2021.2.3,59.87281784709459,
1,4,0,1,3,2,1,1,0,1,0,1,0,0,0,0,136,136,136,0,0,0,0,,,,,,,658.282793501392,None,660.1599011011422,None,660.8902165014297,None,l,1,0.5776169989258051,660.8902165014297,None,None,None,,,,,,,19,21,female,19,2022_May_10_1155,Partial repeat,2021.2.3,59.87281784709459,
1,4,0,1,3,2,1,1,0,1,0,1,0,0,0,0,136,136,136,1,0,1,0,,,,,,,,,661.4914291016757,None,662.37619770132,None,s,1,0.5396325998008251,662.37619770132,None,None,None,,,,,,,19,21,female,19,2022_May_10_1155,Partial repeat,2021.2.3,59.87281784709459,
1,4,0,1,3,2,1,1,0,1,0,1,0,0,0,0,136,136,136,,,,,,,,,,,,,,,,,,,,,,,,,,,,,,19,21,female,19,2022_May_10_1155,Partial repeat,2021.2.3,59.87281784709459,
3,7,0,1,2,3,1,1,0,0,0,1,1,0,0,0,137,137,137,0,0,0,0,,,,,,,662.9390219002962,None,663.4162571001798,None,664.2634548004717,None,l,1,0.8283559996634722,664.2634548004717,None,None,None,,,,,,,19,21,female,19,2022_May_10_1155,Partial repeat,2021.2.3,59.87281784709459,
3,7,0,1,2,3,1,1,0,0,0,1,1,0,0,0,137,137,137,1,0,1,0,,,,,,,,,665.1001502014697,None,665.9835463017225,None,l,1,0.5083906017243862,665.9835463017225,None,None,None,,,,,,,19,21,female,19,2022_May_10_1155,Partial repeat,2021.2.3,59.87281784709459,
3,7,0,1,2,3,1,1,0,0,0,1,1,0,0,0,137,137,137,,,,,,,,,,,,,,,,,,,,,,,,,,,,,,19,21,female,19,2022_May_10_1155,Partial repeat,2021.2.3,59.87281784709459,
3,4,0,1,2,3,2,1,0,1,0,0,0,0,0,0,138,138,138,0,0,0,0,,,,,,,666.5051198005676,None,666.8729955013841,None,667.6199045013636,None,l,1,0.607922799885273,667.6199045013636,None,None,None,,,,,,,19,21,female,19,2022_May_10_1155,Partial repeat,2021.2.3,59.87281784709459,
3,4,0,1,2,3,2,1,0,1,0,0,0,0,0,0,138,138,138,1,0,1,0,,,,,,,,,668.2462204005569,None,669.0395967010409,None,s,1,0.5562936998903751,669.0395967010409,None,None,None,,,,,,,19,21,female,19,2022_May_10_1155,Partial repeat,2021.2.3,59.87281784709459,
3,4,0,1,2,3,2,1,0,1,0,0,0,0,0,0,138,138,138,,,,,,,,,,,,,,,,,,,,,,,,,,,,,,19,21,female,19,2022_May_10_1155,Partial repeat,2021.2.3,59.87281784709459,
7,7,0,1,2,3,1,2,0,1,0,0,0,0,0,0,139,139,139,0,0,0,0,,,,,,,669.6262387000024,None,670.1125721000135,None,670.9930544011295,None,l,1,0.5467429999262094,670.9930544011295,None,None,None,,,,,,,19,21,female,19,2022_May_10_1155,Partial repeat,2021.2.3,59.87281784709459,
7,7,0,1,2,3,1,2,0,1,0,0,0,0,0,0,139,139,139,1,0,1,0,,,,,,,,,671.5545283015817,None,672.4127840008587,None,s,1,0.6230765990912914,672.4127840008587,None,None,None,,,,,,,19,21,female,19,2022_May_10_1155,Partial repeat,2021.2.3,59.87281784709459,
7,7,0,1,2,3,1,2,0,1,0,0,0,0,0,0,139,139,139,,,,,,,,,,,,,,,,,,,,,,,,,,,,,,19,21,female,19,2022_May_10_1155,Partial repeat,2021.2.3,59.87281784709459,
5,1,0,1,2,2,1,2,0,0,1,0,1,0,0,0,140,140,140,0,0,0,0,,,,,,,673.0615124013275,None,673.5358368009329,None,674.4669559001923,None,s,0,0.6168668996542692,674.4669559001923,None,675.0963589008898,None,,,,,,,19,21,female,19,2022_May_10_1155,Partial repeat,2021.2.3,59.87281784709459,
5,1,0,1,2,2,1,2,0,0,1,0,1,0,0,0,140,140,140,1,0,1,0,,,,,,,,,675.6066560000181,None,676.4535435009748,None,l,1,0.7022836003452539,676.4535435009748,None,None,None,,,,,,,19,21,female,19,2022_May_10_1155,Partial repeat,2021.2.3,59.87281784709459,
5,1,0,1,2,2,1,2,0,0,1,0,1,0,0,0,140,140,140,,,,,,,,,,,,,,,,,,,,,,,,,,,,,,19,21,female,19,2022_May_10_1155,Partial repeat,2021.2.3,59.87281784709459,
7,8,0,1,2,2,1,2,0,1,1,0,0,0,0,0,141,141,141,0,0,0,0,,,,,,,677.1843090001494,None,677.577134700492,None,678.4911838006228,None,l,1,0.4887514989823103,678.4911838006228,None,None,None,,,,,,,19,21,female,19,2022_May_10_1155,Partial repeat,2021.2.3,59.87281784709459,
7,8,0,1,2,2,1,2,0,1,1,0,0,0,0,0,141,141,141,1,0,1,0,,,,,,,,,678.9884397014976,None,679.726859100163,None,s,1,0.5009243991225958,679.726859100163,None,None,None,,,,,,,19,21,female,19,2022_May_10_1155,Partial repeat,2021.2.3,59.87281784709459,
7,8,0,1,2,2,1,2,0,1,1,0,0,0,0,0,141,141,141,,,,,,,,,,,,,,,,,,,,,,,,,,,,,,19,21,female,19,2022_May_10_1155,Partial repeat,2021.2.3,59.87281784709459,
2,8,0,1,3,3,2,2,0,1,1,1,0,0,0,0,142,142,142,0,0,0,0,,,,,,,680.250710900873,None,683.5554438009858,None,684.3027661014348,None,l,1,0.9810574017465115,684.3027661014348,None,None,None,,,,,,,19,21,female,19,2022_May_10_1155,Partial repeat,2021.2.3,59.87281784709459,
2,8,0,1,3,3,2,2,0,1,1,1,0,0,0,0,142,142,142,1,0,1,0,,,,,,,,,685.3015328999609,None,686.0392929017544,None,s,1,0.9325362984091043,686.0392929017544,None,None,None,,,,,,,19,21,female,19,2022_May_10_1155,Partial repeat,2021.2.3,59.87281784709459,
2,8,0,1,3,3,2,2,0,1,1,1,0,0,0,0,142,142,142,,,,,,,,,,,,,,,,,,,,,,,,,,,,,,19,21,female,19,2022_May_10_1155,Partial repeat,2021.2.3,59.87281784709459,
6,3,0,1,2,2,1,2,1,1,1,0,1,0,0,0,143,143,143,0,0,0,0,,,,,,,686.9980960004032,None,687.663378501311,None,688.5438814014196,None,s,1,0.7558990996330976,688.5438814014196,None,None,None,,,,,,,19,21,female,19,2022_May_10_1155,Partial repeat,2021.2.3,59.87281784709459,
6,3,0,1,2,2,1,2,1,1,1,0,1,0,0,0,143,143,143,1,0,1,0,,,,,,,,,689.3161007016897,None,690.0467856004834,None,s,1,0.6051086001098156,690.0467856004834,None,None,None,,,,,,,19,21,female,19,2022_May_10_1155,Partial repeat,2021.2.3,59.87281784709459,
6,3,0,1,2,2,1,2,1,1,1,0,1,0,0,0,143,143,143,,,,,,,,,,,,,,,,,,,,,,,,,,,,,,19,21,female,19,2022_May_10_1155,Partial repeat,2021.2.3,59.87281784709459,
8,4,0,1,2,2,2,2,1,1,1,1,1,0,0,0,144,144,144,0,0,0,0,,,,,,,690.6732670012861,None,691.1201422009617,None,692.1007948014885,None,s,1,1.4790292996913195,692.1007948014885,None,None,None,,,,,,,19,21,female,19,2022_May_10_1155,Partial repeat,2021.2.3,59.87281784709459,
8,4,0,1,2,2,2,2,1,1,1,1,1,0,0,0,144,144,144,1,0,1,0,,,,,,,,,693.5931327007711,None,694.6057044006884,None,s,1,0.5100986994802952,694.6057044006884,None,None,None,,,,,,,19,21,female,19,2022_May_10_1155,Partial repeat,2021.2.3,59.87281784709459,
8,4,0,1,2,2,2,2,1,1,1,1,1,0,0,0,144,144,144,,,,,,,,,,,,,,,,,,,,,,,,,,,,,,19,21,female,19,2022_May_10_1155,Partial repeat,2021.2.3,59.87281784709459,
1,1,0,1,3,3,2,1,0,1,1,0,0,0,0,0,145,145,145,0,0,0,0,,,,,,,695.1264400016516,None,695.5788403004408,None,696.5437605008483,None,l,1,1.172105100005865,696.5437605008483,None,None,None,,,,,,,19,21,female,19,2022_May_10_1155,Partial repeat,2021.2.3,59.87281784709459,
1,1,0,1,3,3,2,1,0,1,1,0,0,0,0,0,145,145,145,1,0,1,0,,,,,,,,,697.7239702008665,None,698.563633101061,None,l,0,0.6164538990706205,698.563633101061,None,699.1897555012256,None,,,,,,,19,21,female,19,2022_May_10_1155,Partial repeat,2021.2.3,59.87281784709459,
1,1,0,1,3,3,2,1,0,1,1,0,0,0,0,0,145,145,145,,,,,,,,,,,,,,,,,,,,,,,,,,,,,,19,21,female,19,2022_May_10_1155,Partial repeat,2021.2.3,59.87281784709459,
6,4,0,1,2,2,1,1,0,0,1,1,1,0,0,0,146,146,146,0,0,0,0,,,,,,,699.7035125009716,None,700.3547892011702,None,701.1684449017048,None,l,1,0.6113895997405052,701.1684449017048,None,None,None,,,,,,,19,21,female,19,2022_May_10_1155,Partial repeat,2021.2.3,59.87281784709459,
6,4,0,1,2,2,1,1,0,0,1,1,1,0,0,0,146,146,146,1,0,1,0,,,,,,,,,701.8004603013396,None,702.5378728006035,None,l,1,0.6019582990556955,702.5378728006035,None,None,None,,,,,,,19,21,female,19,2022_May_10_1155,Partial repeat,2021.2.3,59.87281784709459,
6,4,0,1,2,2,1,1,0,0,1,1,1,0,0,0,146,146,146,,,,,,,,,,,,,,,,,,,,,,,,,,,,,,19,21,female,19,2022_May_10_1155,Partial repeat,2021.2.3,59.87281784709459,
1,3,0,1,3,3,2,1,0,0,1,0,1,0,0,0,147,147,147,0,0,0,0,,,,,,,703.1687959004194,None,703.711331801489,None,704.7087006010115,None,l,1,0.5431587994098663,704.7087006010115,None,None,None,,,,,,,19,21,female,19,2022_May_10_1155,Partial repeat,2021.2.3,59.87281784709459,
1,3,0,1,3,3,2,1,0,0,1,0,1,0,0,0,147,147,147,1,0,1,0,,,,,,,,,705.2684986013919,None,706.2448470015079,None,l,1,0.5350302997976542,706.2448470015079,None,None,None,,,,,,,19,21,female,19,2022_May_10_1155,Partial repeat,2021.2.3,59.87281784709459,
1,3,0,1,3,3,2,1,0,0,1,0,1,0,0,0,147,147,147,,,,,,,,,,,,,,,,,,,,,,,,,,,,,,19,21,female,19,2022_May_10_1155,Partial repeat,2021.2.3,59.87281784709459,
4,6,0,1,3,2,1,2,0,1,0,0,0,0,0,0,148,148,148,0,0,0,0,,,,,,,706.8094724006951,None,707.8693964015692,None,708.7510623000562,None,l,1,0.48488969914615154,708.7510623000562,None,None,None,,,,,,,19,21,female,19,2022_May_10_1155,Partial repeat,2021.2.3,59.87281784709459,
4,6,0,1,3,2,1,2,0,1,0,0,0,0,0,0,148,148,148,1,0,1,0,,,,,,,,,709.2626854013652,None,709.9859792999923,None,l,0,0.5538026988506317,709.9859792999923,None,710.5480791013688,None,,,,,,,19,21,female,19,2022_May_10_1155,Partial repeat,2021.2.3,59.87281784709459,
4,6,0,1,3,2,1,2,0,1,0,0,0,0,0,0,148,148,148,,,,,,,,,,,,,,,,,,,,,,,,,,,,,,19,21,female,19,2022_May_10_1155,Partial repeat,2021.2.3,59.87281784709459,
4,2,0,1,2,2,1,2,1,0,1,0,0,0,0,0,149,149,149,0,0,0,0,,,,,,,711.0589985009283,None,711.8938786014915,None,712.6741977017373,None,s,1,0.513629600405693,712.6741977017373,None,None,None,,,,,,,19,21,female,19,2022_May_10_1155,Partial repeat,2021.2.3,59.87281784709459,
4,2,0,1,2,2,1,2,1,0,1,0,0,0,0,0,149,149,149,1,0,1,0,,,,,,,,,713.2124869003892,None,713.9433322008699,None,l,1,0.5804997012019157,713.9433322008699,None,None,None,,,,,,,19,21,female,19,2022_May_10_1155,Partial repeat,2021.2.3,59.87281784709459,
4,2,0,1,2,2,1,2,1,0,1,0,0,0,0,0,149,149,149,,,,,,,,,,,,,,,,,,,,,,,,,,,,,,19,21,female,19,2022_May_10_1155,Partial repeat,2021.2.3,59.87281784709459,
3,6,0,1,2,3,2,2,0,1,0,1,0,0,0,0,150,150,150,0,0,0,0,,,,,,,714.5452275015414,None,718.7405025009066,None,719.6544851008803,None,l,1,0.6453389003872871,719.6544851008803,None,None,None,,,,,,,19,21,female,19,2022_May_10_1155,Partial repeat,2021.2.3,59.87281784709459,
3,6,0,1,2,3,2,2,0,1,0,1,0,0,0,0,150,150,150,1,0,1,0,,,,,,,,,720.3187595009804,None,721.2754864003509,None,s,1,0.5764173995703459,721.2754864003509,None,None,None,,,,,,,19,21,female,19,2022_May_10_1155,Partial repeat,2021.2.3,59.87281784709459,
3,6,0,1,2,3,2,2,0,1,0,1,0,0,0,0,150,150,150,,,,,,,,,,,,,,,,,,,,,,,,,,,,,,19,21,female,19,2022_May_10_1155,Partial repeat,2021.2.3,59.87281784709459,
