prime_tar_pos,probe_tar_pos,dimension,tar_color,prime_dist_color,probe_dist_color,prime_dist_shape,probe_dist_shape,prime_tar_dot_pos,probe_tar_dot_pos,col_rep,shape_rep,resp_rep,pos_fixed,sparse,MainLoop.thisRepN,MainLoop.thisTrialN,MainLoop.thisN,MainLoop.thisIndex,PrimeProbe.thisRepN,PrimeProbe.thisTrialN,PrimeProbe.thisN,PrimeProbe.thisIndex,Instruction.started,Instruction.stopped,instruction_key.keys,instruction_key.rt,instruction_key.started,instruction_key.stopped,PairStartText.started,PairStartText.stopped,FixCross.started,FixCross.stopped,SearchFixCross.started,SearchFixCross.stopped,key_resp.keys,key_resp.corr,key_resp.rt,key_resp.started,key_resp.stopped,feedback_text.started,feedback_text.stopped,text_finish.started,text_finish.stopped,finish_key.keys,finish_key.rt,finish_key.started,finish_key.stopped,participant,age,gender,group,date,expName,psychopyVersion,frameRate,
,,,,,,,,,,,,,,,,,,,,,,,435.5085282996297,None,space,44.16520039923489,435.5085282996297,None,,,,,,,,,,,,,,,,,,,,1,28,female,1,2022_May_05_0904,Partial repeat,2021.2.3,59.85916356976178,
4,5,0,1,3,2,1,1,1,1,0,1,1,0,0,0,0,0,0,0,0,0,0,,,,,,,479.8140550982207,None,482.8059737998992,None,483.77265069819987,None,s,1,12.005056099966168,483.77265069819987,None,None,None,,,,,,,1,28,female,1,2022_May_05_0904,Partial repeat,2021.2.3,59.85916356976178,
4,5,0,1,3,2,1,1,1,1,0,1,1,0,0,0,0,0,0,1,0,1,0,,,,,,,,,495.80471499823034,None,496.5285510998219,None,s,1,2.249226400628686,496.5285510998219,None,None,None,,,,,,,1,28,female,1,2022_May_05_0904,Partial repeat,2021.2.3,59.85916356976178,
4,5,0,1,3,2,1,1,1,1,0,1,1,0,0,0,0,0,0,,,,,,,,,,,,,,,,,,,,,,,,,,,,,,1,28,female,1,2022_May_05_0904,Partial repeat,2021.2.3,59.85916356976178,
5,1,0,1,3,2,1,2,0,0,0,0,1,0,0,0,1,1,1,0,0,0,0,,,,,,,498.80303729884326,None,500.1397946998477,None,500.9705765992403,None,s,0,0.7191556990146637,500.9705765992403,None,501.7171667981893,None,,,,,,,1,28,female,1,2022_May_05_0904,Partial repeat,2021.2.3,59.85916356976178,
5,1,0,1,3,2,1,2,0,0,0,0,1,0,0,0,1,1,1,1,0,1,0,,,,,,,,,502.22697739861906,None,503.1742411982268,None,s,0,1.4274992998689413,503.1742411982268,None,504.623554199934,None,,,,,,,1,28,female,1,2022_May_05_0904,Partial repeat,2021.2.3,59.85916356976178,
5,1,0,1,3,2,1,2,0,0,0,0,1,0,0,0,1,1,1,,,,,,,,,,,,,,,,,,,,,,,,,,,,,,1,28,female,1,2022_May_05_0904,Partial repeat,2021.2.3,59.85916356976178,
5,5,0,1,2,2,1,2,0,0,1,0,1,0,0,0,2,2,2,0,0,0,0,,,,,,,505.132918599993,None,506.0176420994103,None,507.03210639953613,None,s,0,2.8895602002739906,507.03210639953613,None,509.94508129917085,None,,,,,,,1,28,female,1,2022_May_05_0904,Partial repeat,2021.2.3,59.85916356976178,
5,5,0,1,2,2,1,2,0,0,1,0,1,0,0,0,2,2,2,1,0,1,0,,,,,,,,,510.4598848000169,None,511.45790949836373,None,s,0,20.087872801348567,511.45790949836373,None,531.5546016991138,None,,,,,,,1,28,female,1,2022_May_05_0904,Partial repeat,2021.2.3,59.85916356976178,
5,5,0,1,2,2,1,2,0,0,1,0,1,0,0,0,2,2,2,,,,,,,,,,,,,,,,,,,,,,,,,,,,,,1,28,female,1,2022_May_05_0904,Partial repeat,2021.2.3,59.85916356976178,
6,2,0,1,3,3,1,2,1,1,1,0,1,0,0,0,3,3,3,0,0,0,0,,,,,,,532.068354498595,None,535.8423259984702,None,536.5899315997958,None,s,1,1.323735799640417,536.5899315997958,None,None,None,,,,,,,1,28,female,1,2022_May_05_0904,Partial repeat,2021.2.3,59.85916356976178,
6,2,0,1,3,3,1,2,1,1,1,0,1,0,0,0,3,3,3,1,0,1,0,,,,,,,,,537.9274177998304,None,538.8110542986542,None,s,1,0.8466710988432169,538.8110542986542,None,None,None,,,,,,,1,28,female,1,2022_May_05_0904,Partial repeat,2021.2.3,59.85916356976178,
6,2,0,1,3,3,1,2,1,1,1,0,1,0,0,0,3,3,3,,,,,,,,,,,,,,,,,,,,,,,,,,,,,,1,28,female,1,2022_May_05_0904,Partial repeat,2021.2.3,59.85916356976178,
5,6,0,1,2,3,2,2,1,0,0,1,0,0,0,0,4,4,4,0,0,0,0,,,,,,,539.6692604999989,None,540.5182924997061,None,541.5160481985658,None,s,1,0.725654998794198,541.5160481985658,None,None,None,,,,,,,1,28,female,1,2022_May_05_0904,Partial repeat,2021.2.3,59.85916356976178,
5,6,0,1,2,3,2,2,1,0,0,1,0,0,0,0,4,4,4,1,0,1,0,,,,,,,,,542.2614807989448,None,543.1024221982807,None,l,1,9.971219200640917,543.1024221982807,None,None,None,,,,,,,1,28,female,1,2022_May_05_0904,Partial repeat,2021.2.3,59.85916356976178,
5,6,0,1,2,3,2,2,1,0,0,1,0,0,0,0,4,4,4,,,,,,,,,,,,,,,,,,,,,,,,,,,,,,1,28,female,1,2022_May_05_0904,Partial repeat,2021.2.3,59.85916356976178,
4,3,0,1,3,2,2,1,1,0,0,0,0,0,0,0,5,5,5,0,0,0,0,,,,,,,553.0936574991792,None,561.7761123999953,None,562.506443399936,None,s,1,0.9752358999103308,562.506443399936,None,None,None,,,,,,,1,28,female,1,2022_May_05_0904,Partial repeat,2021.2.3,59.85916356976178,
4,3,0,1,3,2,2,1,1,0,0,0,0,0,0,0,5,5,5,1,0,1,0,,,,,,,,,563.5094887986779,None,564.4109093993902,None,l,1,0.6147061996161938,564.4109093993902,None,None,None,,,,,,,1,28,female,1,2022_May_05_0904,Partial repeat,2021.2.3,59.85916356976178,
4,3,0,1,3,2,2,1,1,0,0,0,0,0,0,0,5,5,5,,,,,,,,,,,,,,,,,,,,,,,,,,,,,,1,28,female,1,2022_May_05_0904,Partial repeat,2021.2.3,59.85916356976178,
2,5,0,1,3,3,1,1,1,1,1,1,1,0,0,0,6,6,6,0,0,0,0,,,,,,,565.0367774982005,None,566.4855541996658,None,567.2991864997894,None,s,1,0.7744861003011465,567.2991864997894,None,None,None,,,,,,,1,28,female,1,2022_May_05_0904,Partial repeat,2021.2.3,59.85916356976178,
2,5,0,1,3,3,1,1,1,1,1,1,1,0,0,0,6,6,6,1,0,1,0,,,,,,,,,568.0875684991479,None,568.8528899997473,None,s,1,0.6207465007901192,568.8528899997473,None,None,None,,,,,,,1,28,female,1,2022_May_05_0904,Partial repeat,2021.2.3,59.85916356976178,
2,5,0,1,3,3,1,1,1,1,1,1,1,0,0,0,6,6,6,,,,,,,,,,,,,,,,,,,,,,,,,,,,,,1,28,female,1,2022_May_05_0904,Partial repeat,2021.2.3,59.85916356976178,
5,4,0,1,3,2,2,1,0,0,0,0,1,0,0,0,7,7,7,0,0,0,0,,,,,,,569.501287298277,None,570.2929102983326,None,571.0564915984869,None,l,1,0.48125880025327206,571.0564915984869,None,None,None,,,,,,,1,28,female,1,2022_May_05_0904,Partial repeat,2021.2.3,59.85916356976178,
5,4,0,1,3,2,2,1,0,0,0,0,1,0,0,0,7,7,7,1,0,1,0,,,,,,,,,571.5515278000385,None,572.3255098983645,None,l,1,0.8522551991045475,572.3255098983645,None,None,None,,,,,,,1,28,female,1,2022_May_05_0904,Partial repeat,2021.2.3,59.85916356976178,
5,4,0,1,3,2,2,1,0,0,0,0,1,0,0,0,7,7,7,,,,,,,,,,,,,,,,,,,,,,,,,,,,,,1,28,female,1,2022_May_05_0904,Partial repeat,2021.2.3,59.85916356976178,
1,8,0,1,3,3,2,1,1,1,1,0,1,0,0,0,8,8,8,0,0,0,0,,,,,,,573.2058140989393,None,574.918366799131,None,575.6488232985139,None,s,1,0.776877598837018,575.6488232985139,None,None,None,,,,,,,1,28,female,1,2022_May_05_0904,Partial repeat,2021.2.3,59.85916356976178,
1,8,0,1,3,3,2,1,1,1,1,0,1,0,0,0,8,8,8,1,0,1,0,,,,,,,,,576.4378733988851,None,577.3694954998791,None,s,1,0.7041327990591526,577.3694954998791,None,None,None,,,,,,,1,28,female,1,2022_May_05_0904,Partial repeat,2021.2.3,59.85916356976178,
1,8,0,1,3,3,2,1,1,1,1,0,1,0,0,0,8,8,8,,,,,,,,,,,,,,,,,,,,,,,,,,,,,,1,28,female,1,2022_May_05_0904,Partial repeat,2021.2.3,59.85916356976178,
1,1,0,1,3,2,1,1,1,0,0,1,0,0,0,0,9,9,9,0,0,0,0,,,,,,,578.1005990989506,None,580.5460592992604,None,581.2930806986988,None,s,1,0.5645886994898319,581.2930806986988,None,None,None,,,,,,,1,28,female,1,2022_May_05_0904,Partial repeat,2021.2.3,59.85916356976178,
1,1,0,1,3,2,1,1,1,0,0,1,0,0,0,0,9,9,9,1,0,1,0,,,,,,,,,581.8728906996548,None,582.7297106999904,None,l,1,0.5679370015859604,582.7297106999904,None,None,None,,,,,,,1,28,female,1,2022_May_05_0904,Partial repeat,2021.2.3,59.85916356976178,
1,1,0,1,3,2,1,1,1,0,0,1,0,0,0,0,9,9,9,,,,,,,,,,,,,,,,,,,,,,,,,,,,,,1,28,female,1,2022_May_05_0904,Partial repeat,2021.2.3,59.85916356976178,
4,1,0,1,3,3,2,1,0,0,1,0,1,0,0,0,10,10,10,0,0,0,0,,,,,,,583.3144904989749,None,584.0196091998369,None,584.9502696990967,None,l,1,0.6833611000329256,584.9502696990967,None,None,None,,,,,,,1,28,female,1,2022_May_05_0904,Partial repeat,2021.2.3,59.85916356976178,
4,1,0,1,3,3,2,1,0,0,1,0,1,0,0,0,10,10,10,1,0,1,0,,,,,,,,,585.6576956994832,None,586.4533399995416,None,l,1,0.5723940003663301,586.4533399995416,None,None,None,,,,,,,1,28,female,1,2022_May_05_0904,Partial repeat,2021.2.3,59.85916356976178,
4,1,0,1,3,3,2,1,0,0,1,0,1,0,0,0,10,10,10,,,,,,,,,,,,,,,,,,,,,,,,,,,,,,1,28,female,1,2022_May_05_0904,Partial repeat,2021.2.3,59.85916356976178,
3,6,0,1,2,3,2,2,0,0,0,1,1,0,0,0,11,11,11,0,0,0,0,,,,,,,587.052837498486,None,587.6099813990295,None,588.5905864983797,None,l,1,0.5150870997458696,588.5905864983797,None,None,None,,,,,,,1,28,female,1,2022_May_05_0904,Partial repeat,2021.2.3,59.85916356976178,
3,6,0,1,2,3,2,2,0,0,0,1,1,0,0,0,11,11,11,1,0,1,0,,,,,,,,,589.1275066994131,None,590.0607493985444,None,l,1,0.7008284013718367,590.0607493985444,None,None,None,,,,,,,1,28,female,1,2022_May_05_0904,Partial repeat,2021.2.3,59.85916356976178,
3,6,0,1,2,3,2,2,0,0,0,1,1,0,0,0,11,11,11,,,,,,,,,,,,,,,,,,,,,,,,,,,,,,1,28,female,1,2022_May_05_0904,Partial repeat,2021.2.3,59.85916356976178,
1,5,0,1,2,3,2,2,1,1,0,1,1,0,0,0,12,12,12,0,0,0,0,,,,,,,590.7911167982966,None,591.6678487993777,None,592.5482620988041,None,s,1,0.7814870998263359,592.5482620988041,None,None,None,,,,,,,1,28,female,1,2022_May_05_0904,Partial repeat,2021.2.3,59.85916356976178,
1,5,0,1,2,3,2,2,1,1,0,1,1,0,0,0,12,12,12,1,0,1,0,,,,,,,,,593.3553612995893,None,594.3349672984332,None,s,1,0.6106381006538868,594.3349672984332,None,None,None,,,,,,,1,28,female,1,2022_May_05_0904,Partial repeat,2021.2.3,59.85916356976178,
1,5,0,1,2,3,2,2,1,1,0,1,1,0,0,0,12,12,12,,,,,,,,,,,,,,,,,,,,,,,,,,,,,,1,28,female,1,2022_May_05_0904,Partial repeat,2021.2.3,59.85916356976178,
4,2,0,1,2,3,1,2,1,1,0,0,1,0,0,0,13,13,13,0,0,0,0,,,,,,,594.9613413996994,None,595.4916985984892,None,596.4057799987495,None,s,1,0.6759406998753548,596.4057799987495,None,None,None,,,,,,,1,28,female,1,2022_May_05_0904,Partial repeat,2021.2.3,59.85916356976178,
4,2,0,1,2,3,1,2,1,1,0,0,1,0,0,0,13,13,13,1,0,1,0,,,,,,,,,597.1082530990243,None,598.1258472986519,None,s,1,0.6918011009693146,598.1258472986519,None,None,None,,,,,,,1,28,female,1,2022_May_05_0904,Partial repeat,2021.2.3,59.85916356976178,
4,2,0,1,2,3,1,2,1,1,0,0,1,0,0,0,13,13,13,,,,,,,,,,,,,,,,,,,,,,,,,,,,,,1,28,female,1,2022_May_05_0904,Partial repeat,2021.2.3,59.85916356976178,
6,5,0,1,2,3,1,2,1,0,0,0,0,0,0,0,14,14,14,0,0,0,0,,,,,,,598.8326657991856,None,599.4661095999181,None,600.4645534995943,None,s,1,0.841083200648427,600.4645534995943,None,None,None,,,,,,,1,28,female,1,2022_May_05_0904,Partial repeat,2021.2.3,59.85916356976178,
6,5,0,1,2,3,1,2,1,0,0,0,0,0,0,0,14,14,14,1,0,1,0,,,,,,,,,601.3173009995371,None,602.2005998995155,None,l,1,0.47310169972479343,602.2005998995155,None,None,None,,,,,,,1,28,female,1,2022_May_05_0904,Partial repeat,2021.2.3,59.85916356976178,
6,5,0,1,2,3,1,2,1,0,0,0,0,0,0,0,14,14,14,,,,,,,,,,,,,,,,,,,,,,,,,,,,,,1,28,female,1,2022_May_05_0904,Partial repeat,2021.2.3,59.85916356976178,
5,2,0,1,2,2,1,2,0,1,1,0,0,0,0,0,15,15,15,0,0,0,0,,,,,,,602.6989220995456,None,603.2734891995788,None,604.0210616998374,None,l,1,0.5886494982987642,604.0210616998374,None,None,None,,,,,,,1,28,female,1,2022_May_05_0904,Partial repeat,2021.2.3,59.85916356976178,
5,2,0,1,2,2,1,2,0,1,1,0,0,0,0,0,15,15,15,1,0,1,0,,,,,,,,,604.6379469987005,None,605.4741333983839,None,s,1,0.6475160997360945,605.4741333983839,None,None,None,,,,,,,1,28,female,1,2022_May_05_0904,Partial repeat,2021.2.3,59.85916356976178,
5,2,0,1,2,2,1,2,0,1,1,0,0,0,0,0,15,15,15,,,,,,,,,,,,,,,,,,,,,,,,,,,,,,1,28,female,1,2022_May_05_0904,Partial repeat,2021.2.3,59.85916356976178,
2,2,0,1,2,2,1,2,1,1,1,0,1,0,0,0,16,16,16,0,0,0,0,,,,,,,606.1432797983289,None,606.7806110996753,None,607.5775964986533,None,s,1,0.6640824992209673,607.5775964986533,None,None,None,,,,,,,1,28,female,1,2022_May_05_0904,Partial repeat,2021.2.3,59.85916356976178,
2,2,0,1,2,2,1,2,1,1,1,0,1,0,0,0,16,16,16,1,0,1,0,,,,,,,,,608.2613657992333,None,609.1810653991997,None,s,1,0.6605831999331713,609.1810653991997,None,None,None,,,,,,,1,28,female,1,2022_May_05_0904,Partial repeat,2021.2.3,59.85916356976178,
2,2,0,1,2,2,1,2,1,1,1,0,1,0,0,0,16,16,16,,,,,,,,,,,,,,,,,,,,,,,,,,,,,,1,28,female,1,2022_May_05_0904,Partial repeat,2021.2.3,59.85916356976178,
7,8,0,1,2,2,2,2,0,1,1,1,0,0,0,0,17,17,17,0,0,0,0,,,,,,,609.8681582994759,None,610.5042442996055,None,611.4850711990148,None,l,1,0.7006201017647982,611.4850711990148,None,None,None,,,,,,,1,28,female,1,2022_May_05_0904,Partial repeat,2021.2.3,59.85916356976178,
7,8,0,1,2,2,2,2,0,1,1,1,0,0,0,0,17,17,17,1,0,1,0,,,,,,,,,612.2082950994372,None,613.0881665982306,None,s,1,1.1375098004937172,613.0881665982306,None,None,None,,,,,,,1,28,female,1,2022_May_05_0904,Partial repeat,2021.2.3,59.85916356976178,
7,8,0,1,2,2,2,2,0,1,1,1,0,0,0,0,17,17,17,,,,,,,,,,,,,,,,,,,,,,,,,,,,,,1,28,female,1,2022_May_05_0904,Partial repeat,2021.2.3,59.85916356976178,
6,7,0,1,2,3,2,1,0,0,0,0,1,0,0,0,18,18,18,0,0,0,0,,,,,,,614.24183639884,None,615.7313377000391,None,616.5952653996646,None,l,1,0.6064649000763893,616.5952653996646,None,None,None,,,,,,,1,28,female,1,2022_May_05_0904,Partial repeat,2021.2.3,59.85916356976178,
6,7,0,1,2,3,2,1,0,0,0,0,1,0,0,0,18,18,18,1,0,1,0,,,,,,,,,617.2121650986373,None,618.0647110994905,None,l,1,1.3129145987331867,618.0647110994905,None,None,None,,,,,,,1,28,female,1,2022_May_05_0904,Partial repeat,2021.2.3,59.85916356976178,
6,7,0,1,2,3,2,1,0,0,0,0,1,0,0,0,18,18,18,,,,,,,,,,,,,,,,,,,,,,,,,,,,,,1,28,female,1,2022_May_05_0904,Partial repeat,2021.2.3,59.85916356976178,
6,3,0,1,3,3,1,1,0,0,1,1,1,0,0,0,19,19,19,0,0,0,0,,,,,,,619.4082677997649,None,620.0227805990726,None,620.7700525987893,None,l,1,0.455621100962162,620.7700525987893,None,None,None,,,,,,,1,28,female,1,2022_May_05_0904,Partial repeat,2021.2.3,59.85916356976178,
6,3,0,1,3,3,1,1,0,0,1,1,1,0,0,0,19,19,19,1,0,1,0,,,,,,,,,621.2418857999146,None,622.05572719872,None,l,1,0.5539563000202179,622.05572719872,None,None,None,,,,,,,1,28,female,1,2022_May_05_0904,Partial repeat,2021.2.3,59.85916356976178,
6,3,0,1,3,3,1,1,0,0,1,1,1,0,0,0,19,19,19,,,,,,,,,,,,,,,,,,,,,,,,,,,,,,1,28,female,1,2022_May_05_0904,Partial repeat,2021.2.3,59.85916356976178,
7,4,0,1,3,2,2,1,1,1,0,0,1,0,0,0,20,20,20,0,0,0,0,,,,,,,622.6374506987631,None,623.696599598974,None,624.5445184987038,None,s,1,0.5771565996110439,624.5445184987038,None,None,None,,,,,,,1,28,female,1,2022_May_05_0904,Partial repeat,2021.2.3,59.85916356976178,
7,4,0,1,3,2,2,1,1,1,0,0,1,0,0,0,20,20,20,1,0,1,0,,,,,,,,,625.1450500991195,None,626.1133782994002,None,l,0,0.5602470003068447,626.1133782994002,None,626.6924930997193,None,,,,,,,1,28,female,1,2022_May_05_0904,Partial repeat,2021.2.3,59.85916356976178,
7,4,0,1,3,2,2,1,1,1,0,0,1,0,0,0,20,20,20,,,,,,,,,,,,,,,,,,,,,,,,,,,,,,1,28,female,1,2022_May_05_0904,Partial repeat,2021.2.3,59.85916356976178,
2,1,0,1,3,2,1,1,0,1,0,1,0,0,0,0,21,21,21,0,0,0,0,,,,,,,627.203437499702,None,627.8212613984942,None,628.7021205984056,None,l,1,0.5955984015017748,628.7021205984056,None,None,None,,,,,,,1,28,female,1,2022_May_05_0904,Partial repeat,2021.2.3,59.85916356976178,
2,1,0,1,3,2,1,1,0,1,0,1,0,0,0,0,21,21,21,1,0,1,0,,,,,,,,,629.323477499187,None,630.1714182998985,None,s,1,0.6942531000822783,630.1714182998985,None,None,None,,,,,,,1,28,female,1,2022_May_05_0904,Partial repeat,2021.2.3,59.85916356976178,
2,1,0,1,3,2,1,1,0,1,0,1,0,0,0,0,21,21,21,,,,,,,,,,,,,,,,,,,,,,,,,,,,,,1,28,female,1,2022_May_05_0904,Partial repeat,2021.2.3,59.85916356976178,
6,1,0,1,2,3,1,2,0,0,0,0,1,0,0,0,22,22,22,0,0,0,0,,,,,,,630.8800954986364,None,631.5453671999276,None,632.3275636993349,None,l,1,0.5461384989321232,632.3275636993349,None,None,None,,,,,,,1,28,female,1,2022_May_05_0904,Partial repeat,2021.2.3,59.85916356976178,
6,1,0,1,2,3,1,2,0,0,0,0,1,0,0,0,22,22,22,1,0,1,0,,,,,,,,,632.8900513984263,None,633.6782347988337,None,l,1,0.6674265004694462,633.6782347988337,None,None,None,,,,,,,1,28,female,1,2022_May_05_0904,Partial repeat,2021.2.3,59.85916356976178,
6,1,0,1,2,3,1,2,0,0,0,0,1,0,0,0,22,22,22,,,,,,,,,,,,,,,,,,,,,,,,,,,,,,1,28,female,1,2022_May_05_0904,Partial repeat,2021.2.3,59.85916356976178,
5,3,0,1,2,3,1,2,0,1,0,0,0,0,0,0,23,23,23,0,0,0,0,,,,,,,634.3641423992813,None,635.0021687988192,None,635.8160927984864,None,l,1,0.5855197999626398,635.8160927984864,None,None,None,,,,,,,1,28,female,1,2022_May_05_0904,Partial repeat,2021.2.3,59.85916356976178,
5,3,0,1,2,3,1,2,0,1,0,0,0,0,0,0,23,23,23,1,0,1,0,,,,,,,,,636.4106595981866,None,637.4188631996512,None,s,1,0.6788107007741928,637.4188631996512,None,None,None,,,,,,,1,28,female,1,2022_May_05_0904,Partial repeat,2021.2.3,59.85916356976178,
5,3,0,1,2,3,1,2,0,1,0,0,0,0,0,0,23,23,23,,,,,,,,,,,,,,,,,,,,,,,,,,,,,,1,28,female,1,2022_May_05_0904,Partial repeat,2021.2.3,59.85916356976178,
3,2,0,1,3,3,1,2,0,1,1,0,0,0,0,0,24,24,24,0,0,0,0,,,,,,,638.1245985999703,None,638.7093423996121,None,639.4559992998838,None,l,1,0.5216013006865978,639.4559992998838,None,None,None,,,,,,,1,28,female,1,2022_May_05_0904,Partial repeat,2021.2.3,59.85916356976178,
3,2,0,1,3,3,1,2,0,1,1,0,0,0,0,0,24,24,24,1,0,1,0,,,,,,,,,639.9937411993742,None,640.7759488988668,None,s,1,0.6496793013066053,640.7759488988668,None,None,None,,,,,,,1,28,female,1,2022_May_05_0904,Partial repeat,2021.2.3,59.85916356976178,
3,2,0,1,3,3,1,2,0,1,1,0,0,0,0,0,24,24,24,,,,,,,,,,,,,,,,,,,,,,,,,,,,,,1,28,female,1,2022_May_05_0904,Partial repeat,2021.2.3,59.85916356976178,
8,2,0,1,2,3,1,1,1,1,0,1,1,0,0,0,25,25,25,0,0,0,0,,,,,,,641.446206798777,None,642.0491828992963,None,643.0637798998505,None,s,1,0.6098261009901762,643.0637798998505,None,None,None,,,,,,,1,28,female,1,2022_May_05_0904,Partial repeat,2021.2.3,59.85916356976178,
8,2,0,1,2,3,1,1,1,1,0,1,1,0,0,0,25,25,25,1,0,1,0,,,,,,,,,643.6830103993416,None,644.6674640998244,None,s,1,0.6782507002353668,644.6674640998244,None,None,None,,,,,,,1,28,female,1,2022_May_05_0904,Partial repeat,2021.2.3,59.85916356976178,
8,2,0,1,2,3,1,1,1,1,0,1,1,0,0,0,25,25,25,,,,,,,,,,,,,,,,,,,,,,,,,,,,,,1,28,female,1,2022_May_05_0904,Partial repeat,2021.2.3,59.85916356976178,
3,8,0,1,2,3,2,1,0,1,0,0,0,0,0,0,26,26,26,0,0,0,0,,,,,,,645.373036198318,None,646.3072200994939,None,647.2878934983164,None,l,1,0.5777286011725664,647.2878934983164,None,None,None,,,,,,,1,28,female,1,2022_May_05_0904,Partial repeat,2021.2.3,59.85916356976178,
3,8,0,1,2,3,2,1,0,1,0,0,0,0,0,0,26,26,26,1,0,1,0,,,,,,,,,647.885207599029,None,648.7754647992551,None,s,1,0.5382128991186619,648.7754647992551,None,None,None,,,,,,,1,28,female,1,2022_May_05_0904,Partial repeat,2021.2.3,59.85916356976178,
3,8,0,1,2,3,2,1,0,1,0,0,0,0,0,0,26,26,26,,,,,,,,,,,,,,,,,,,,,,,,,,,,,,1,28,female,1,2022_May_05_0904,Partial repeat,2021.2.3,59.85916356976178,
6,4,0,1,3,3,1,1,0,1,1,1,0,0,0,0,27,27,27,0,0,0,0,,,,,,,649.3379996996373,None,649.9479420986027,None,650.8619361985475,None,s,0,0.5557631012052298,650.8619361985475,None,651.4414275996387,None,,,,,,,1,28,female,1,2022_May_05_0904,Partial repeat,2021.2.3,59.85916356976178,
6,4,0,1,3,3,1,1,0,1,1,1,0,0,0,0,27,27,27,1,0,1,0,,,,,,,,,651.9518209993839,None,652.7485672999173,None,s,1,0.8129808008670807,652.7485672999173,None,None,None,,,,,,,1,28,female,1,2022_May_05_0904,Partial repeat,2021.2.3,59.85916356976178,
6,4,0,1,3,3,1,1,0,1,1,1,0,0,0,0,27,27,27,,,,,,,,,,,,,,,,,,,,,,,,,,,,,,1,28,female,1,2022_May_05_0904,Partial repeat,2021.2.3,59.85916356976178,
1,3,0,1,2,3,1,1,0,0,0,1,1,0,0,0,28,28,28,0,0,0,0,,,,,,,653.5819803997874,None,654.656796598807,None,655.3873807992786,None,l,1,0.5822267010807991,655.3873807992786,None,None,None,,,,,,,1,28,female,1,2022_May_05_0904,Partial repeat,2021.2.3,59.85916356976178,
1,3,0,1,2,3,1,1,0,0,0,1,1,0,0,0,28,28,28,1,0,1,0,,,,,,,,,655.9859336987138,None,656.8068773988634,None,l,1,0.5787391010671854,656.8068773988634,None,None,None,,,,,,,1,28,female,1,2022_May_05_0904,Partial repeat,2021.2.3,59.85916356976178,
1,3,0,1,2,3,1,1,0,0,0,1,1,0,0,0,28,28,28,,,,,,,,,,,,,,,,,,,,,,,,,,,,,,1,28,female,1,2022_May_05_0904,Partial repeat,2021.2.3,59.85916356976178,
1,7,0,1,2,3,2,2,0,1,0,1,0,0,0,0,29,29,29,0,0,0,0,,,,,,,657.4090989995748,None,658.798464698717,None,659.595989799127,None,l,1,0.5895923990756273,659.595989799127,None,None,None,,,,,,,1,28,female,1,2022_May_05_0904,Partial repeat,2021.2.3,59.85916356976178,
1,7,0,1,2,3,2,2,0,1,0,1,0,0,0,0,29,29,29,1,0,1,0,,,,,,,,,660.193760599941,None,661.0650370996445,None,s,1,0.6805346999317408,661.0650370996445,None,None,None,,,,,,,1,28,female,1,2022_May_05_0904,Partial repeat,2021.2.3,59.85916356976178,
1,7,0,1,2,3,2,2,0,1,0,1,0,0,0,0,29,29,29,,,,,,,,,,,,,,,,,,,,,,,,,,,,,,1,28,female,1,2022_May_05_0904,Partial repeat,2021.2.3,59.85916356976178,
6,6,0,1,2,2,2,2,1,1,1,1,1,0,0,0,30,30,30,0,0,0,0,,,,,,,661.7753719985485,None,662.4553111996502,None,663.4027914982289,None,s,1,0.5908215995877981,663.4027914982289,None,None,None,,,,,,,1,28,female,1,2022_May_05_0904,Partial repeat,2021.2.3,59.85916356976178,
6,6,0,1,2,2,2,2,1,1,1,1,1,0,0,0,30,30,30,1,0,1,0,,,,,,,,,664.0027874987572,None,664.8226763997227,None,s,1,0.5710476990789175,664.8226763997227,None,None,None,,,,,,,1,28,female,1,2022_May_05_0904,Partial repeat,2021.2.3,59.85916356976178,
6,6,0,1,2,2,2,2,1,1,1,1,1,0,0,0,30,30,30,,,,,,,,,,,,,,,,,,,,,,,,,,,,,,1,28,female,1,2022_May_05_0904,Partial repeat,2021.2.3,59.85916356976178,
1,2,0,1,3,3,2,2,1,1,1,1,1,0,0,0,31,31,31,0,0,0,0,,,,,,,665.4056286998093,None,666.3629575986415,None,667.2272957991809,None,s,1,0.6222930010408163,667.2272957991809,None,None,None,,,,,,,1,28,female,1,2022_May_05_0904,Partial repeat,2021.2.3,59.85916356976178,
1,2,0,1,3,3,2,2,1,1,1,1,1,0,0,0,31,31,31,1,0,1,0,,,,,,,,,667.872264098376,None,668.5960984993726,None,s,1,0.5494630001485348,668.5960984993726,None,None,None,,,,,,,1,28,female,1,2022_May_05_0904,Partial repeat,2021.2.3,59.85916356976178,
1,2,0,1,3,3,2,2,1,1,1,1,1,0,0,0,31,31,31,,,,,,,,,,,,,,,,,,,,,,,,,,,,,,1,28,female,1,2022_May_05_0904,Partial repeat,2021.2.3,59.85916356976178,
5,7,0,1,2,2,2,1,1,1,1,0,1,0,0,0,32,32,32,0,0,0,0,,,,,,,669.1566477995366,None,670.4040502998978,None,671.368211299181,None,s,1,0.6253713015466928,671.368211299181,None,None,None,,,,,,,1,28,female,1,2022_May_05_0904,Partial repeat,2021.2.3,59.85916356976178,
5,7,0,1,2,2,2,1,1,1,1,0,1,0,0,0,32,32,32,1,0,1,0,,,,,,,,,672.0096884984523,None,672.7546801995486,None,s,1,0.6148972995579243,672.7546801995486,None,None,None,,,,,,,1,28,female,1,2022_May_05_0904,Partial repeat,2021.2.3,59.85916356976178,
5,7,0,1,2,2,2,1,1,1,1,0,1,0,0,0,32,32,32,,,,,,,,,,,,,,,,,,,,,,,,,,,,,,1,28,female,1,2022_May_05_0904,Partial repeat,2021.2.3,59.85916356976178,
7,5,0,1,3,2,2,2,1,1,0,1,1,0,0,0,33,33,33,0,0,0,0,,,,,,,673.3970691990107,None,674.1446950994432,None,674.9924921989441,None,s,1,0.5370394010096788,674.9924921989441,None,None,None,,,,,,,1,28,female,1,2022_May_05_0904,Partial repeat,2021.2.3,59.85916356976178,
7,5,0,1,3,2,2,2,1,1,0,1,1,0,0,0,33,33,33,1,0,1,0,,,,,,,,,675.5487649999559,None,676.3119307998568,None,s,1,0.5936881005764008,676.3119307998568,None,None,None,,,,,,,1,28,female,1,2022_May_05_0904,Partial repeat,2021.2.3,59.85916356976178,
7,5,0,1,3,2,2,2,1,1,0,1,1,0,0,0,33,33,33,,,,,,,,,,,,,,,,,,,,,,,,,,,,,,1,28,female,1,2022_May_05_0904,Partial repeat,2021.2.3,59.85916356976178,
8,3,0,1,2,2,1,1,1,0,1,1,0,0,0,0,34,34,34,0,0,0,0,,,,,,,676.917553698644,None,677.5847249999642,None,678.3163774982095,None,s,1,0.6292138006538153,678.3163774982095,None,None,None,,,,,,,1,28,female,1,2022_May_05_0904,Partial repeat,2021.2.3,59.85916356976178,
8,3,0,1,2,2,1,1,1,0,1,1,0,0,0,0,34,34,34,1,0,1,0,,,,,,,,,678.9612025991082,None,679.817974999547,None,l,1,0.5036061014980078,679.817974999547,None,None,None,,,,,,,1,28,female,1,2022_May_05_0904,Partial repeat,2021.2.3,59.85916356976178,
8,3,0,1,2,2,1,1,1,0,1,1,0,0,0,0,34,34,34,,,,,,,,,,,,,,,,,,,,,,,,,,,,,,1,28,female,1,2022_May_05_0904,Partial repeat,2021.2.3,59.85916356976178,
2,7,0,1,3,2,2,2,0,1,0,1,0,0,0,0,35,35,35,0,0,0,0,,,,,,,680.3373734988272,None,681.0581574998796,None,681.922474399209,None,l,1,0.5750491991639137,681.922474399209,None,None,None,,,,,,,1,28,female,1,2022_May_05_0904,Partial repeat,2021.2.3,59.85916356976178,
2,7,0,1,3,2,2,2,0,1,0,1,0,0,0,0,35,35,35,1,0,1,0,,,,,,,,,682.5235984995961,None,683.4246472995728,None,s,1,0.4169011991471052,683.4246472995728,None,None,None,,,,,,,1,28,female,1,2022_May_05_0904,Partial repeat,2021.2.3,59.85916356976178,
2,7,0,1,3,2,2,2,0,1,0,1,0,0,0,0,35,35,35,,,,,,,,,,,,,,,,,,,,,,,,,,,,,,1,28,female,1,2022_May_05_0904,Partial repeat,2021.2.3,59.85916356976178,
4,7,0,1,3,3,2,2,1,0,1,1,0,0,0,0,36,36,36,0,0,0,0,,,,,,,683.8567662984133,None,684.3812737986445,None,685.3120244983584,None,s,1,0.8495850004255772,685.3120244983584,None,None,None,,,,,,,1,28,female,1,2022_May_05_0904,Partial repeat,2021.2.3,59.85916356976178,
4,7,0,1,3,3,2,2,1,0,1,1,0,0,0,0,36,36,36,1,0,1,0,,,,,,,,,686.1850394997746,None,687.1992105990648,None,l,1,0.5783527009189129,687.1992105990648,None,None,None,,,,,,,1,28,female,1,2022_May_05_0904,Partial repeat,2021.2.3,59.85916356976178,
4,7,0,1,3,3,2,2,1,0,1,1,0,0,0,0,36,36,36,,,,,,,,,,,,,,,,,,,,,,,,,,,,,,1,28,female,1,2022_May_05_0904,Partial repeat,2021.2.3,59.85916356976178,
7,7,0,1,3,2,2,2,1,0,0,1,0,0,0,0,37,37,37,0,0,0,0,,,,,,,687.8032562993467,None,688.8733025994152,None,689.7877571992576,None,s,1,0.5818147007375956,689.7877571992576,None,None,None,,,,,,,1,28,female,1,2022_May_05_0904,Partial repeat,2021.2.3,59.85916356976178,
7,7,0,1,3,2,2,2,1,0,0,1,0,0,0,0,37,37,37,1,0,1,0,,,,,,,,,690.3896658997983,None,691.2904377989471,None,l,1,0.5590998996049166,691.2904377989471,None,None,None,,,,,,,1,28,female,1,2022_May_05_0904,Partial repeat,2021.2.3,59.85916356976178,
7,7,0,1,3,2,2,2,1,0,0,1,0,0,0,0,37,37,37,,,,,,,,,,,,,,,,,,,,,,,,,,,,,,1,28,female,1,2022_May_05_0904,Partial repeat,2021.2.3,59.85916356976178,
7,2,0,1,2,3,1,1,0,1,0,1,0,0,0,0,38,38,38,0,0,0,0,,,,,,,691.8710880987346,None,693.6325998995453,None,694.5476959999651,None,l,1,0.6778857000172138,694.5476959999651,None,None,None,,,,,,,1,28,female,1,2022_May_05_0904,Partial repeat,2021.2.3,59.85916356976178,
7,2,0,1,2,3,1,1,0,1,0,1,0,0,0,0,38,38,38,1,0,1,0,,,,,,,,,695.2490297984332,None,696.1830920986831,None,s,1,0.6184797994792461,696.1830920986831,None,None,None,,,,,,,1,28,female,1,2022_May_05_0904,Partial repeat,2021.2.3,59.85916356976178,
7,2,0,1,2,3,1,1,0,1,0,1,0,0,0,0,38,38,38,,,,,,,,,,,,,,,,,,,,,,,,,,,,,,1,28,female,1,2022_May_05_0904,Partial repeat,2021.2.3,59.85916356976178,
2,6,0,1,3,3,1,2,0,0,1,0,1,0,0,0,39,39,39,0,0,0,0,,,,,,,696.8283910993487,None,697.60699239932,None,698.4376177992672,None,l,1,0.5399722009897232,698.4376177992672,None,None,None,,,,,,,1,28,female,1,2022_May_05_0904,Partial repeat,2021.2.3,59.85916356976178,
2,6,0,1,3,3,1,2,0,0,1,0,1,0,0,0,39,39,39,1,0,1,0,,,,,,,,,698.994154099375,None,699.940724298358,None,l,1,0.6688318010419607,699.940724298358,None,None,None,,,,,,,1,28,female,1,2022_May_05_0904,Partial repeat,2021.2.3,59.85916356976178,
2,6,0,1,3,3,1,2,0,0,1,0,1,0,0,0,39,39,39,,,,,,,,,,,,,,,,,,,,,,,,,,,,,,1,28,female,1,2022_May_05_0904,Partial repeat,2021.2.3,59.85916356976178,
1,4,0,1,2,2,1,1,0,0,1,1,1,0,0,0,40,40,40,0,0,0,0,,,,,,,700.6339965984225,None,701.3142107985914,None,702.3280997984111,None,l,1,0.5374475996941328,702.3280997984111,None,None,None,,,,,,,1,28,female,1,2022_May_05_0904,Partial repeat,2021.2.3,59.85916356976178,
1,4,0,1,2,2,1,1,0,0,1,1,1,0,0,0,40,40,40,1,0,1,0,,,,,,,,,702.8854941986501,None,703.681483598426,None,l,1,0.6000577006489038,703.681483598426,None,None,None,,,,,,,1,28,female,1,2022_May_05_0904,Partial repeat,2021.2.3,59.85916356976178,
1,4,0,1,2,2,1,1,0,0,1,1,1,0,0,0,40,40,40,,,,,,,,,,,,,,,,,,,,,,,,,,,,,,1,28,female,1,2022_May_05_0904,Partial repeat,2021.2.3,59.85916356976178,
2,3,0,1,2,2,2,2,1,0,1,1,0,0,0,0,41,41,41,0,0,0,0,,,,,,,704.3021267987788,None,704.9712897986174,None,705.7180965989828,None,s,1,0.6674715001136065,705.7180965989828,None,None,None,,,,,,,1,28,female,1,2022_May_05_0904,Partial repeat,2021.2.3,59.85916356976178,
2,3,0,1,2,2,2,2,1,0,1,1,0,0,0,0,41,41,41,1,0,1,0,,,,,,,,,706.4056947994977,None,707.2045521996915,None,l,1,0.581012299284339,707.2045521996915,None,None,None,,,,,,,1,28,female,1,2022_May_05_0904,Partial repeat,2021.2.3,59.85916356976178,
2,3,0,1,2,2,2,2,1,0,1,1,0,0,0,0,41,41,41,,,,,,,,,,,,,,,,,,,,,,,,,,,,,,1,28,female,1,2022_May_05_0904,Partial repeat,2021.2.3,59.85916356976178,
5,8,0,1,3,2,2,2,0,0,0,1,1,0,0,0,42,42,42,0,0,0,0,,,,,,,707.8067368995398,None,708.3779229987413,None,709.3586160000414,None,l,1,0.6269584000110626,709.3586160000414,None,None,None,,,,,,,1,28,female,1,2022_May_05_0904,Partial repeat,2021.2.3,59.85916356976178,
5,8,0,1,3,2,2,2,0,0,0,1,1,0,0,0,42,42,42,1,0,1,0,,,,,,,,,709.9984076991677,None,710.7782012987882,None,l,1,0.5514211002737284,710.7782012987882,None,None,None,,,,,,,1,28,female,1,2022_May_05_0904,Partial repeat,2021.2.3,59.85916356976178,
5,8,0,1,3,2,2,2,0,0,0,1,1,0,0,0,42,42,42,,,,,,,,,,,,,,,,,,,,,,,,,,,,,,1,28,female,1,2022_May_05_0904,Partial repeat,2021.2.3,59.85916356976178,
7,3,0,1,2,3,1,1,1,0,0,1,0,0,0,0,43,43,43,0,0,0,0,,,,,,,711.3583808988333,None,712.001687599346,None,712.7655241992325,None,s,1,0.6040320005267859,712.7655241992325,None,None,None,,,,,,,1,28,female,1,2022_May_05_0904,Partial repeat,2021.2.3,59.85916356976178,
7,3,0,1,2,3,1,1,1,0,0,1,0,0,0,0,43,43,43,1,0,1,0,,,,,,,,,713.3846357986331,None,714.2021484989673,None,l,1,0.5675974003970623,714.2021484989673,None,None,None,,,,,,,1,28,female,1,2022_May_05_0904,Partial repeat,2021.2.3,59.85916356976178,
7,3,0,1,2,3,1,1,1,0,0,1,0,0,0,0,43,43,43,,,,,,,,,,,,,,,,,,,,,,,,,,,,,,1,28,female,1,2022_May_05_0904,Partial repeat,2021.2.3,59.85916356976178,
8,5,0,1,3,3,2,2,0,1,1,1,0,0,0,0,44,44,44,0,0,0,0,,,,,,,714.7825181987137,None,715.3748956993222,None,716.1891103982925,None,l,1,0.6204677000641823,716.1891103982925,None,None,None,,,,,,,1,28,female,1,2022_May_05_0904,Partial repeat,2021.2.3,59.85916356976178,
8,5,0,1,3,3,2,2,0,1,1,1,0,0,0,0,44,44,44,1,0,1,0,,,,,,,,,716.8283063992858,None,717.825771600008,None,s,1,0.48780530132353306,717.825771600008,None,None,None,,,,,,,1,28,female,1,2022_May_05_0904,Partial repeat,2021.2.3,59.85916356976178,
8,5,0,1,3,3,2,2,0,1,1,1,0,0,0,0,44,44,44,,,,,,,,,,,,,,,,,,,,,,,,,,,,,,1,28,female,1,2022_May_05_0904,Partial repeat,2021.2.3,59.85916356976178,
8,6,0,1,2,2,2,1,0,1,1,0,0,0,0,0,45,45,45,0,0,0,0,,,,,,,718.3416220992804,None,718.8650159984827,None,719.8126691989601,None,l,1,0.5249978993088007,719.8126691989601,None,None,None,,,,,,,1,28,female,1,2022_May_05_0904,Partial repeat,2021.2.3,59.85916356976178,
8,6,0,1,2,2,2,1,0,1,1,0,0,0,0,0,45,45,45,1,0,1,0,,,,,,,,,720.3481557983905,None,721.1492246985435,None,s,1,0.47633999958634377,721.1492246985435,None,None,None,,,,,,,1,28,female,1,2022_May_05_0904,Partial repeat,2021.2.3,59.85916356976178,
8,6,0,1,2,2,2,1,0,1,1,0,0,0,0,0,45,45,45,,,,,,,,,,,,,,,,,,,,,,,,,,,,,,1,28,female,1,2022_May_05_0904,Partial repeat,2021.2.3,59.85916356976178,
4,6,0,1,3,2,1,2,0,1,0,0,0,0,0,0,46,46,46,0,0,0,0,,,,,,,721.6472095996141,None,722.1213412992656,None,722.9352760985494,None,l,1,0.538289200514555,722.9352760985494,None,None,None,,,,,,,1,28,female,1,2022_May_05_0904,Partial repeat,2021.2.3,59.85916356976178,
4,6,0,1,3,2,1,2,0,1,0,0,0,0,0,0,46,46,46,1,0,1,0,,,,,,,,,723.4918740987778,None,724.4714759998024,None,s,1,0.578150600194931,724.4714759998024,None,None,None,,,,,,,1,28,female,1,2022_May_05_0904,Partial repeat,2021.2.3,59.85916356976178,
4,6,0,1,3,2,1,2,0,1,0,0,0,0,0,0,46,46,46,,,,,,,,,,,,,,,,,,,,,,,,,,,,,,1,28,female,1,2022_May_05_0904,Partial repeat,2021.2.3,59.85916356976178,
3,1,0,1,2,2,1,1,1,1,1,1,1,0,0,0,47,47,47,0,0,0,0,,,,,,,725.0731296986341,None,725.5446845982224,None,726.5588276982307,None,s,1,0.6508780010044575,726.5588276982307,None,None,None,,,,,,,1,28,female,1,2022_May_05_0904,Partial repeat,2021.2.3,59.85916356976178,
3,1,0,1,2,2,1,1,1,1,1,1,1,0,0,0,47,47,47,1,0,1,0,,,,,,,,,727.220355598256,None,727.9779972992837,None,s,1,0.6075618993490934,727.9779972992837,None,None,None,,,,,,,1,28,female,1,2022_May_05_0904,Partial repeat,2021.2.3,59.85916356976178,
3,1,0,1,2,2,1,1,1,1,1,1,1,0,0,0,47,47,47,,,,,,,,,,,,,,,,,,,,,,,,,,,,,,1,28,female,1,2022_May_05_0904,Partial repeat,2021.2.3,59.85916356976178,
4,8,0,1,3,3,2,1,0,1,1,0,0,0,0,0,48,48,48,0,0,0,0,,,,,,,728.6047588996589,None,729.1517364997417,None,729.8657063990831,None,l,1,0.5278722997754812,729.8657063990831,None,None,None,,,,,,,1,28,female,1,2022_May_05_0904,Partial repeat,2021.2.3,59.85916356976178,
4,8,0,1,3,3,2,1,0,1,1,0,0,0,0,0,48,48,48,1,0,1,0,,,,,,,,,730.40132159926,None,731.2851336989552,None,s,1,0.4524319991469383,731.2851336989552,None,None,None,,,,,,,1,28,female,1,2022_May_05_0904,Partial repeat,2021.2.3,59.85916356976178,
4,8,0,1,3,3,2,1,0,1,1,0,0,0,0,0,48,48,48,,,,,,,,,,,,,,,,,,,,,,,,,,,,,,1,28,female,1,2022_May_05_0904,Partial repeat,2021.2.3,59.85916356976178,
8,8,0,1,2,2,2,1,0,0,1,0,1,0,0,0,49,49,49,0,0,0,0,,,,,,,731.7622483000159,None,732.2076490987092,None,733.054556299001,None,l,1,0.5470556989312172,733.054556299001,None,None,None,,,,,,,1,28,female,1,2022_May_05_0904,Partial repeat,2021.2.3,59.85916356976178,
8,8,0,1,2,2,2,1,0,0,1,0,1,0,0,0,49,49,49,1,0,1,0,,,,,,,,,733.6101462990046,None,734.6243379991502,None,l,1,0.4412722010165453,734.6243379991502,None,None,None,,,,,,,1,28,female,1,2022_May_05_0904,Partial repeat,2021.2.3,59.85916356976178,
8,8,0,1,2,2,2,1,0,0,1,0,1,0,0,0,49,49,49,,,,,,,,,,,,,,,,,,,,,,,,,,,,,,1,28,female,1,2022_May_05_0904,Partial repeat,2021.2.3,59.85916356976178,
3,4,0,1,2,2,1,1,0,1,1,1,0,0,0,0,50,50,50,0,0,0,0,,,,,,,735.0803137999028,None,735.564182298258,None,736.4619408994913,None,l,1,0.5636411011219025,736.4619408994913,None,None,None,,,,,,,1,28,female,1,2022_May_05_0904,Partial repeat,2021.2.3,59.85916356976178,
3,4,0,1,2,2,1,1,0,1,1,1,0,0,0,0,50,50,50,1,0,1,0,,,,,,,,,737.0400958992541,None,737.8810216989368,None,s,1,0.5925468001514673,737.8810216989368,None,None,None,,,,,,,1,28,female,1,2022_May_05_0904,Partial repeat,2021.2.3,59.85916356976178,
3,4,0,1,2,2,1,1,0,1,1,1,0,0,0,0,50,50,50,,,,,,,,,,,,,,,,,,,,,,,,,,,,,,1,28,female,1,2022_May_05_0904,Partial repeat,2021.2.3,59.85916356976178,
8,4,0,1,3,3,1,2,1,0,1,0,0,0,0,0,51,51,51,0,0,0,0,,,,,,,738.4896957986057,None,738.9040290992707,None,739.6519545000046,None,s,1,0.5416346006095409,739.6519545000046,None,None,None,,,,,,,1,28,female,1,2022_May_05_0904,Partial repeat,2021.2.3,59.85916356976178,
8,4,0,1,3,3,1,2,1,0,1,0,0,0,0,0,51,51,51,1,0,1,0,,,,,,,,,740.2088838983327,None,741.1877262983471,None,l,1,0.4699082002043724,741.1877262983471,None,None,None,,,,,,,1,28,female,1,2022_May_05_0904,Partial repeat,2021.2.3,59.85916356976178,
8,4,0,1,3,3,1,2,1,0,1,0,0,0,0,0,51,51,51,,,,,,,,,,,,,,,,,,,,,,,,,,,,,,1,28,female,1,2022_May_05_0904,Partial repeat,2021.2.3,59.85916356976178,
6,8,0,1,3,3,2,2,0,0,1,1,1,0,0,0,52,52,52,0,0,0,0,,,,,,,741.6863893996924,None,742.177047399804,None,743.041115898639,None,l,1,0.6644580997526646,743.041115898639,None,None,None,,,,,,,1,28,female,1,2022_May_05_0904,Partial repeat,2021.2.3,59.85916356976178,
6,8,0,1,3,3,2,2,0,0,1,1,1,0,0,0,52,52,52,1,0,1,0,,,,,,,,,743.722009498626,None,744.5441244989634,None,l,1,0.5854550991207361,744.5441244989634,None,None,None,,,,,,,1,28,female,1,2022_May_05_0904,Partial repeat,2021.2.3,59.85916356976178,
6,8,0,1,3,3,2,2,0,0,1,1,1,0,0,0,52,52,52,,,,,,,,,,,,,,,,,,,,,,,,,,,,,,1,28,female,1,2022_May_05_0904,Partial repeat,2021.2.3,59.85916356976178,
7,1,0,1,3,2,1,2,1,1,0,0,1,0,0,0,53,53,53,0,0,0,0,,,,,,,745.1516854986548,None,745.6671302989125,None,746.4139933995903,None,s,1,0.419683501124382,746.4139933995903,None,None,None,,,,,,,1,28,female,1,2022_May_05_0904,Partial repeat,2021.2.3,59.85916356976178,
7,1,0,1,3,2,1,2,1,1,0,0,1,0,0,0,53,53,53,1,0,1,0,,,,,,,,,746.843897299841,None,747.6169170998037,None,s,1,0.6327390000224113,747.6169170998037,None,None,None,,,,,,,1,28,female,1,2022_May_05_0904,Partial repeat,2021.2.3,59.85916356976178,
7,1,0,1,3,2,1,2,1,1,0,0,1,0,0,0,53,53,53,,,,,,,,,,,,,,,,,,,,,,,,,,,,,,1,28,female,1,2022_May_05_0904,Partial repeat,2021.2.3,59.85916356976178,
1,6,0,1,2,2,2,1,1,0,1,0,0,0,0,0,54,54,54,0,0,0,0,,,,,,,748.2802218999714,None,748.8065951988101,None,749.7370563987643,None,s,1,0.5364832989871502,749.7370563987643,None,None,None,,,,,,,1,28,female,1,2022_May_05_0904,Partial repeat,2021.2.3,59.85916356976178,
1,6,0,1,2,2,2,1,1,0,1,0,0,0,0,0,54,54,54,1,0,1,0,,,,,,,,,750.2934792991728,None,751.1063819993287,None,l,1,0.615166200324893,751.1063819993287,None,None,None,,,,,,,1,28,female,1,2022_May_05_0904,Partial repeat,2021.2.3,59.85916356976178,
1,6,0,1,2,2,2,1,1,0,1,0,0,0,0,0,54,54,54,,,,,,,,,,,,,,,,,,,,,,,,,,,,,,1,28,female,1,2022_May_05_0904,Partial repeat,2021.2.3,59.85916356976178,
4,4,0,1,2,2,2,2,0,0,1,1,1,0,0,0,55,55,55,0,0,0,0,,,,,,,751.7479132991284,None,752.1630965992808,None,753.0941939987242,None,l,1,0.5633734986186028,753.0941939987242,None,None,None,,,,,,,1,28,female,1,2022_May_05_0904,Partial repeat,2021.2.3,59.85916356976178,
4,4,0,1,2,2,2,2,0,0,1,1,1,0,0,0,55,55,55,1,0,1,0,,,,,,,,,753.6724032983184,None,754.4467865992337,None,l,1,0.4748426992446184,754.4467865992337,None,None,None,,,,,,,1,28,female,1,2022_May_05_0904,Partial repeat,2021.2.3,59.85916356976178,
4,4,0,1,2,2,2,2,0,0,1,1,1,0,0,0,55,55,55,,,,,,,,,,,,,,,,,,,,,,,,,,,,,,1,28,female,1,2022_May_05_0904,Partial repeat,2021.2.3,59.85916356976178,
8,7,0,1,2,3,2,1,1,1,0,0,1,0,0,0,56,56,56,0,0,0,0,,,,,,,754.9425267986953,None,755.3860630989075,None,756.3175740987062,None,s,1,0.5799742992967367,756.3175740987062,None,None,None,,,,,,,1,28,female,1,2022_May_05_0904,Partial repeat,2021.2.3,59.85916356976178,
8,7,0,1,2,3,2,1,1,1,0,0,1,0,0,0,56,56,56,1,0,1,0,,,,,,,,,756.9186601992697,None,757.9377558995038,None,s,1,0.6157339010387659,757.9377558995038,None,None,None,,,,,,,1,28,female,1,2022_May_05_0904,Partial repeat,2021.2.3,59.85916356976178,
8,7,0,1,2,3,2,1,1,1,0,0,1,0,0,0,56,56,56,,,,,,,,,,,,,,,,,,,,,,,,,,,,,,1,28,female,1,2022_May_05_0904,Partial repeat,2021.2.3,59.85916356976178,
2,4,0,1,2,3,2,1,1,0,0,0,0,0,0,0,57,57,57,0,0,0,0,,,,,,,758.5816426984966,None,759.0265233982354,None,759.8911313991994,None,s,1,0.6944366991519928,759.8911313991994,None,None,None,,,,,,,1,28,female,1,2022_May_05_0904,Partial repeat,2021.2.3,59.85916356976178,
2,4,0,1,2,3,2,1,1,0,0,0,0,0,0,0,57,57,57,1,0,1,0,,,,,,,,,760.5999454986304,None,761.4767049998045,None,l,1,0.5090283993631601,761.4767049998045,None,None,None,,,,,,,1,28,female,1,2022_May_05_0904,Partial repeat,2021.2.3,59.85916356976178,
2,4,0,1,2,3,2,1,1,0,0,0,0,0,0,0,57,57,57,,,,,,,,,,,,,,,,,,,,,,,,,,,,,,1,28,female,1,2022_May_05_0904,Partial repeat,2021.2.3,59.85916356976178,
3,5,0,1,3,3,1,1,1,0,1,1,0,0,0,0,58,58,58,0,0,0,0,,,,,,,761.9989104997367,None,762.500141998753,None,763.2803007997572,None,s,1,0.6412797011435032,763.2803007997572,None,None,None,,,,,,,1,28,female,1,2022_May_05_0904,Partial repeat,2021.2.3,59.85916356976178,
3,5,0,1,3,3,1,1,1,0,1,1,0,0,0,0,58,58,58,1,0,1,0,,,,,,,,,763.9427453000098,None,764.6663917992264,None,l,1,0.57521309889853,764.6663917992264,None,None,None,,,,,,,1,28,female,1,2022_May_05_0904,Partial repeat,2021.2.3,59.85916356976178,
3,5,0,1,3,3,1,1,1,0,1,1,0,0,0,0,58,58,58,,,,,,,,,,,,,,,,,,,,,,,,,,,,,,1,28,female,1,2022_May_05_0904,Partial repeat,2021.2.3,59.85916356976178,
3,3,0,1,3,2,1,2,1,0,0,0,0,0,0,0,59,59,59,0,0,0,0,,,,,,,765.2675162982196,None,765.7231258992106,None,766.4871301986277,None,s,1,0.650586599484086,766.4871301986277,None,None,None,,,,,,,1,28,female,1,2022_May_05_0904,Partial repeat,2021.2.3,59.85916356976178,
3,3,0,1,3,2,1,2,1,0,0,0,0,0,0,0,59,59,59,1,0,1,0,,,,,,,,,767.1487075984478,None,768.0730589982122,None,l,1,0.4885227009654045,768.0730589982122,None,None,None,,,,,,,1,28,female,1,2022_May_05_0904,Partial repeat,2021.2.3,59.85916356976178,
3,3,0,1,3,2,1,2,1,0,0,0,0,0,0,0,59,59,59,,,,,,,,,,,,,,,,,,,,,,,,,,,,,,1,28,female,1,2022_May_05_0904,Partial repeat,2021.2.3,59.85916356976178,
8,1,0,1,3,3,2,1,1,0,1,0,0,0,0,0,60,60,60,0,0,0,0,,,,,,,768.5915919989347,None,769.0295628998429,None,769.9102595988661,None,s,1,0.5073240995407104,769.9102595988661,None,None,None,,,,,,,1,28,female,1,2022_May_05_0904,Partial repeat,2021.2.3,59.85916356976178,
8,1,0,1,3,3,2,1,1,0,1,0,0,0,0,0,60,60,60,1,0,1,0,,,,,,,,,770.4455794990063,None,771.3962938990444,None,l,1,0.3973111994564533,771.3962938990444,None,None,None,,,,,,,1,28,female,1,2022_May_05_0904,Partial repeat,2021.2.3,59.85916356976178,
8,1,0,1,3,3,2,1,1,0,1,0,0,0,0,0,60,60,60,,,,,,,,,,,,,,,,,,,,,,,,,,,,,,1,28,female,1,2022_May_05_0904,Partial repeat,2021.2.3,59.85916356976178,
3,7,0,1,3,2,1,1,0,0,0,1,1,0,0,0,61,61,61,0,0,0,0,,,,,,,771.8097014985979,None,772.2357997987419,None,773.2338781990111,None,l,1,0.5837221015244722,773.2338781990111,None,None,None,,,,,,,1,28,female,1,2022_May_05_0904,Partial repeat,2021.2.3,59.85916356976178,
3,7,0,1,3,2,1,1,0,0,0,1,1,0,0,0,61,61,61,1,0,1,0,,,,,,,,,773.83601869829,None,774.6538401991129,None,l,1,0.7397541999816895,774.6538401991129,None,None,None,,,,,,,1,28,female,1,2022_May_05_0904,Partial repeat,2021.2.3,59.85916356976178,
3,7,0,1,3,2,1,1,0,0,0,1,1,0,0,0,61,61,61,,,,,,,,,,,,,,,,,,,,,,,,,,,,,,1,28,female,1,2022_May_05_0904,Partial repeat,2021.2.3,59.85916356976178,
7,6,0,1,2,2,1,2,1,0,1,0,0,0,0,0,62,62,62,0,0,0,0,,,,,,,775.4042313992977,None,775.8594850990921,None,776.6065678987652,None,s,1,0.45103149861097336,776.6065678987652,None,None,None,,,,,,,1,28,female,1,2022_May_05_0904,Partial repeat,2021.2.3,59.85916356976178,
7,6,0,1,2,2,1,2,1,0,1,0,0,0,0,0,62,62,62,1,0,1,0,,,,,,,,,777.0836082994938,None,777.8757845982909,None,l,1,0.5498497989028692,777.8757845982909,None,None,None,,,,,,,1,28,female,1,2022_May_05_0904,Partial repeat,2021.2.3,59.85916356976178,
7,6,0,1,2,2,1,2,1,0,1,0,0,0,0,0,62,62,62,,,,,,,,,,,,,,,,,,,,,,,,,,,,,,1,28,female,1,2022_May_05_0904,Partial repeat,2021.2.3,59.85916356976178,
2,8,0,1,3,2,2,1,0,1,0,0,0,0,0,0,63,63,63,0,0,0,0,,,,,,,778.4566512983292,None,779.2661323994398,None,779.996578598395,None,l,1,0.9490694012492895,779.996578598395,None,None,None,,,,,,,1,28,female,1,2022_May_05_0904,Partial repeat,2021.2.3,59.85916356976178,
2,8,0,1,3,2,2,1,0,1,0,0,0,0,0,0,63,63,63,1,0,1,0,,,,,,,,,780.9705956988037,None,781.9503169991076,None,s,1,0.43524669855833054,781.9503169991076,None,None,None,,,,,,,1,28,female,1,2022_May_05_0904,Partial repeat,2021.2.3,59.85916356976178,
2,8,0,1,3,2,2,1,0,1,0,0,0,0,0,0,63,63,63,,,,,,,,,,,,,,,,,,,,,,,,,,,,,,1,28,female,1,2022_May_05_0904,Partial repeat,2021.2.3,59.85916356976178,
8,8,0,1,3,2,1,2,0,0,0,0,1,1,0,0,64,64,64,0,0,0,0,,,,,,,782.7599624991417,None,783.8416677992791,None,784.7899504993111,None,l,1,0.5317624006420374,784.7899504993111,None,None,None,,,,,,,1,28,female,1,2022_May_05_0904,Partial repeat,2021.2.3,59.85916356976178,
8,8,0,1,3,2,1,2,0,0,0,0,1,1,0,0,64,64,64,1,0,1,0,,,,,,,,,785.3317550998181,None,786.3254913985729,None,l,1,0.48411909863352776,786.3254913985729,None,None,None,,,,,,,1,28,female,1,2022_May_05_0904,Partial repeat,2021.2.3,59.85916356976178,
8,8,0,1,3,2,1,2,0,0,0,0,1,1,0,0,64,64,64,,,,,,,,,,,,,,,,,,,,,,,,,,,,,,1,28,female,1,2022_May_05_0904,Partial repeat,2021.2.3,59.85916356976178,
8,8,0,1,3,2,2,1,1,1,0,0,1,1,0,0,65,65,65,0,0,0,0,,,,,,,786.8245587982237,None,787.2650378998369,None,788.1790380999446,None,l,0,0.47860380075871944,788.1790380999446,None,788.6732687987387,None,,,,,,,1,28,female,1,2022_May_05_0904,Partial repeat,2021.2.3,59.85916356976178,
8,8,0,1,3,2,2,1,1,1,0,0,1,1,0,0,65,65,65,1,0,1,0,,,,,,,,,789.1852588988841,None,790.0994203984737,None,s,1,0.46211880072951317,790.0994203984737,None,None,None,,,,,,,1,28,female,1,2022_May_05_0904,Partial repeat,2021.2.3,59.85916356976178,
8,8,0,1,3,2,2,1,1,1,0,0,1,1,0,0,65,65,65,,,,,,,,,,,,,,,,,,,,,,,,,,,,,,1,28,female,1,2022_May_05_0904,Partial repeat,2021.2.3,59.85916356976178,
8,8,0,1,3,3,2,1,1,0,1,0,0,1,0,0,66,66,66,0,0,0,0,,,,,,,790.5776981990784,None,790.9555450994521,None,791.7199302986264,None,s,1,0.5776646994054317,791.7199302986264,None,None,None,,,,,,,1,28,female,1,2022_May_05_0904,Partial repeat,2021.2.3,59.85916356976178,
8,8,0,1,3,3,2,1,1,0,1,0,0,1,0,0,66,66,66,1,0,1,0,,,,,,,,,792.3238144982606,None,793.1388319991529,None,l,1,0.41474590077996254,793.1388319991529,None,None,None,,,,,,,1,28,female,1,2022_May_05_0904,Partial repeat,2021.2.3,59.85916356976178,
8,8,0,1,3,3,2,1,1,0,1,0,0,1,0,0,66,66,66,,,,,,,,,,,,,,,,,,,,,,,,,,,,,,1,28,female,1,2022_May_05_0904,Partial repeat,2021.2.3,59.85916356976178,
8,8,0,1,3,3,1,2,1,0,1,0,0,1,0,0,67,67,67,0,0,0,0,,,,,,,793.5754591990262,None,794.01135869883,None,794.7918430995196,None,s,1,0.6017107982188463,794.7918430995196,None,None,None,,,,,,,1,28,female,1,2022_May_05_0904,Partial repeat,2021.2.3,59.85916356976178,
8,8,0,1,3,3,1,2,1,0,1,0,0,1,0,0,67,67,67,1,0,1,0,,,,,,,,,795.419350899756,None,796.2444811984897,None,l,1,0.9411562997847795,796.2444811984897,None,None,None,,,,,,,1,28,female,1,2022_May_05_0904,Partial repeat,2021.2.3,59.85916356976178,
8,8,0,1,3,3,1,2,1,0,1,0,0,1,0,0,67,67,67,,,,,,,,,,,,,,,,,,,,,,,,,,,,,,1,28,female,1,2022_May_05_0904,Partial repeat,2021.2.3,59.85916356976178,
8,8,0,1,2,2,2,1,1,1,1,0,1,1,0,0,68,68,68,0,0,0,0,,,,,,,797.2095657996833,None,798.1695760991424,None,799.116997199133,None,s,1,0.4765496999025345,799.116997199133,None,None,None,,,,,,,1,28,female,1,2022_May_05_0904,Partial repeat,2021.2.3,59.85916356976178,
8,8,0,1,2,2,2,1,1,1,1,0,1,1,0,0,68,68,68,1,0,1,0,,,,,,,,,799.6136825997382,None,800.5031288992614,None,l,0,0.5544524006545544,800.5031288992614,None,801.0859785992652,None,,,,,,,1,28,female,1,2022_May_05_0904,Partial repeat,2021.2.3,59.85916356976178,
8,8,0,1,2,2,2,1,1,1,1,0,1,1,0,0,68,68,68,,,,,,,,,,,,,,,,,,,,,,,,,,,,,,1,28,female,1,2022_May_05_0904,Partial repeat,2021.2.3,59.85916356976178,
8,8,0,1,3,2,1,2,1,1,0,0,1,1,0,0,69,69,69,0,0,0,0,,,,,,,801.592913499102,None,802.594834798947,None,803.3585688993335,None,s,1,0.5871139001101255,803.3585688993335,None,None,None,,,,,,,1,28,female,1,2022_May_05_0904,Partial repeat,2021.2.3,59.85916356976178,
8,8,0,1,3,2,1,2,1,1,0,0,1,1,0,0,69,69,69,1,0,1,0,,,,,,,,,803.9575755987316,None,804.7279739994556,None,s,1,0.5136588010936975,804.7279739994556,None,None,None,,,,,,,1,28,female,1,2022_May_05_0904,Partial repeat,2021.2.3,59.85916356976178,
8,8,0,1,3,2,1,2,1,1,0,0,1,1,0,0,69,69,69,,,,,,,,,,,,,,,,,,,,,,,,,,,,,,1,28,female,1,2022_May_05_0904,Partial repeat,2021.2.3,59.85916356976178,
8,8,0,1,2,3,2,2,1,1,0,1,1,1,0,0,70,70,70,0,0,0,0,,,,,,,805.2702642995864,None,805.8010450992733,None,806.6323624998331,None,s,1,0.6492221988737583,806.6323624998331,None,None,None,,,,,,,1,28,female,1,2022_May_05_0904,Partial repeat,2021.2.3,59.85916356976178,
8,8,0,1,2,3,2,2,1,1,0,1,1,1,0,0,70,70,70,1,0,1,0,,,,,,,,,807.3013393990695,None,808.1856399998069,None,s,1,0.46393450163304806,808.1856399998069,None,None,None,,,,,,,1,28,female,1,2022_May_05_0904,Partial repeat,2021.2.3,59.85916356976178,
8,8,0,1,2,3,2,2,1,1,0,1,1,1,0,0,70,70,70,,,,,,,,,,,,,,,,,,,,,,,,,,,,,,1,28,female,1,2022_May_05_0904,Partial repeat,2021.2.3,59.85916356976178,
8,8,0,1,3,2,2,2,0,0,0,1,1,1,0,0,71,71,71,0,0,0,0,,,,,,,808.6603139992803,None,809.1409037988633,None,810.1218067985028,None,l,1,0.5358178988099098,810.1218067985028,None,None,None,,,,,,,1,28,female,1,2022_May_05_0904,Partial repeat,2021.2.3,59.85916356976178,
8,8,0,1,3,2,2,2,0,0,0,1,1,1,0,0,71,71,71,1,0,1,0,,,,,,,,,810.6761995982379,None,811.6081055998802,None,l,1,0.585521899163723,811.6081055998802,None,None,None,,,,,,,1,28,female,1,2022_May_05_0904,Partial repeat,2021.2.3,59.85916356976178,
8,8,0,1,3,2,2,2,0,0,0,1,1,1,0,0,71,71,71,,,,,,,,,,,,,,,,,,,,,,,,,,,,,,1,28,female,1,2022_May_05_0904,Partial repeat,2021.2.3,59.85916356976178,
8,8,0,1,3,2,1,1,1,0,0,1,0,1,0,0,72,72,72,0,0,0,0,,,,,,,812.2192616984248,None,812.614321898669,None,813.3611580990255,None,s,1,0.5283873993903399,813.3611580990255,None,None,None,,,,,,,1,28,female,1,2022_May_05_0904,Partial repeat,2021.2.3,59.85916356976178,
8,8,0,1,3,2,1,1,1,0,0,1,0,1,0,0,72,72,72,1,0,1,0,,,,,,,,,813.9153799992055,None,814.8976488988847,None,l,1,0.6078984998166561,814.8976488988847,None,None,None,,,,,,,1,28,female,1,2022_May_05_0904,Partial repeat,2021.2.3,59.85916356976178,
8,8,0,1,3,2,1,1,1,0,0,1,0,1,0,0,72,72,72,,,,,,,,,,,,,,,,,,,,,,,,,,,,,,1,28,female,1,2022_May_05_0904,Partial repeat,2021.2.3,59.85916356976178,
8,8,0,1,3,3,1,2,0,0,1,0,1,1,0,0,73,73,73,0,0,0,0,,,,,,,815.5218627993017,None,816.004247199744,None,816.8685726989061,None,l,1,0.6531697995960712,816.8685726989061,None,None,None,,,,,,,1,28,female,1,2022_May_05_0904,Partial repeat,2021.2.3,59.85916356976178,
8,8,0,1,3,3,1,2,0,0,1,0,1,1,0,0,73,73,73,1,0,1,0,,,,,,,,,817.5320779997855,None,818.3211138993502,None,l,1,0.5524517986923456,818.3211138993502,None,None,None,,,,,,,1,28,female,1,2022_May_05_0904,Partial repeat,2021.2.3,59.85916356976178,
8,8,0,1,3,3,1,2,0,0,1,0,1,1,0,0,73,73,73,,,,,,,,,,,,,,,,,,,,,,,,,,,,,,1,28,female,1,2022_May_05_0904,Partial repeat,2021.2.3,59.85916356976178,
8,8,0,1,3,3,2,1,0,1,1,0,0,1,0,0,74,74,74,0,0,0,0,,,,,,,818.884739799425,None,819.2271795999259,None,820.0749596990645,None,l,1,0.686557499691844,820.0749596990645,None,None,None,,,,,,,1,28,female,1,2022_May_05_0904,Partial repeat,2021.2.3,59.85916356976178,
8,8,0,1,3,3,2,1,0,1,1,0,0,1,0,0,74,74,74,1,0,1,0,,,,,,,,,820.7781158983707,None,821.6775396987796,None,s,1,0.7240395005792379,821.6775396987796,None,None,None,,,,,,,1,28,female,1,2022_May_05_0904,Partial repeat,2021.2.3,59.85916356976178,
8,8,0,1,3,3,2,1,0,1,1,0,0,1,0,0,74,74,74,,,,,,,,,,,,,,,,,,,,,,,,,,,,,,1,28,female,1,2022_May_05_0904,Partial repeat,2021.2.3,59.85916356976178,
8,8,0,1,2,2,2,2,0,0,1,1,1,1,0,0,75,75,75,0,0,0,0,,,,,,,822.4298073984683,None,822.8509022984654,None,823.6977753993124,None,l,1,1.295764498412609,823.6977753993124,None,None,None,,,,,,,1,28,female,1,2022_May_05_0904,Partial repeat,2021.2.3,59.85916356976178,
8,8,0,1,2,2,2,2,0,0,1,1,1,1,0,0,75,75,75,1,0,1,0,,,,,,,,,825.0166022982448,None,826.0026829987764,None,l,1,0.5029348004609346,826.0026829987764,None,None,None,,,,,,,1,28,female,1,2022_May_05_0904,Partial repeat,2021.2.3,59.85916356976178,
8,8,0,1,2,2,2,2,0,0,1,1,1,1,0,0,75,75,75,,,,,,,,,,,,,,,,,,,,,,,,,,,,,,1,28,female,1,2022_May_05_0904,Partial repeat,2021.2.3,59.85916356976178,
8,8,0,1,2,3,1,1,1,1,0,1,1,1,0,0,76,76,76,0,0,0,0,,,,,,,826.523889599368,None,826.8754177987576,None,827.7560537997633,None,s,1,0.5414802003651857,827.7560537997633,None,None,None,,,,,,,1,28,female,1,2022_May_05_0904,Partial repeat,2021.2.3,59.85916356976178,
8,8,0,1,2,3,1,1,1,1,0,1,1,1,0,0,76,76,76,1,0,1,0,,,,,,,,,828.3108278997242,None,829.2754920981824,None,s,1,0.4780448991805315,829.2754920981824,None,None,None,,,,,,,1,28,female,1,2022_May_05_0904,Partial repeat,2021.2.3,59.85916356976178,
8,8,0,1,2,3,1,1,1,1,0,1,1,1,0,0,76,76,76,,,,,,,,,,,,,,,,,,,,,,,,,,,,,,1,28,female,1,2022_May_05_0904,Partial repeat,2021.2.3,59.85916356976178,
8,8,0,1,2,3,2,1,0,0,0,0,1,1,0,0,77,77,77,0,0,0,0,,,,,,,829.776504598558,None,830.2152708992362,None,830.9786410983652,None,l,1,0.5670611001551151,830.9786410983652,None,None,None,,,,,,,1,28,female,1,2022_May_05_0904,Partial repeat,2021.2.3,59.85916356976178,
8,8,0,1,2,3,2,1,0,0,0,0,1,1,0,0,77,77,77,1,0,1,0,,,,,,,,,831.5567669998854,None,832.2812804989517,None,l,1,0.4562857002019882,832.2812804989517,None,None,None,,,,,,,1,28,female,1,2022_May_05_0904,Partial repeat,2021.2.3,59.85916356976178,
8,8,0,1,2,3,2,1,0,0,0,0,1,1,0,0,77,77,77,,,,,,,,,,,,,,,,,,,,,,,,,,,,,,1,28,female,1,2022_May_05_0904,Partial repeat,2021.2.3,59.85916356976178,
8,8,0,1,3,3,2,2,1,0,1,1,0,1,0,0,78,78,78,0,0,0,0,,,,,,,832.7606208994985,None,833.2544739991426,None,834.1851621996611,None,s,1,0.6884058006107807,834.1851621996611,None,None,None,,,,,,,1,28,female,1,2022_May_05_0904,Partial repeat,2021.2.3,59.85916356976178,
8,8,0,1,3,3,2,2,1,0,1,1,0,1,0,0,78,78,78,1,0,1,0,,,,,,,,,834.8908499982208,None,835.7046685982496,None,l,1,0.4809003006666899,835.7046685982496,None,None,None,,,,,,,1,28,female,1,2022_May_05_0904,Partial repeat,2021.2.3,59.85916356976178,
8,8,0,1,3,3,2,2,1,0,1,1,0,1,0,0,78,78,78,,,,,,,,,,,,,,,,,,,,,,,,,,,,,,1,28,female,1,2022_May_05_0904,Partial repeat,2021.2.3,59.85916356976178,
8,8,0,1,2,3,2,1,0,1,0,0,0,1,0,0,79,79,79,0,0,0,0,,,,,,,836.2018511984497,None,836.611003799364,None,837.4416223987937,None,s,0,0.4879960995167494,837.4416223987937,None,837.939448799938,None,,,,,,,1,28,female,1,2022_May_05_0904,Partial repeat,2021.2.3,59.85916356976178,
8,8,0,1,2,3,2,1,0,1,0,0,0,1,0,0,79,79,79,1,0,1,0,,,,,,,,,838.4479298982769,None,839.3619327992201,None,s,1,0.6236035004258156,839.3619327992201,None,None,None,,,,,,,1,28,female,1,2022_May_05_0904,Partial repeat,2021.2.3,59.85916356976178,
8,8,0,1,2,3,2,1,0,1,0,0,0,1,0,0,79,79,79,,,,,,,,,,,,,,,,,,,,,,,,,,,,,,1,28,female,1,2022_May_05_0904,Partial repeat,2021.2.3,59.85916356976178,
8,8,0,1,2,2,1,1,1,1,1,1,1,1,0,0,80,80,80,0,0,0,0,,,,,,,840.0072529986501,None,840.4518410991877,None,841.2655505985022,None,s,1,0.7360697016119957,841.2655505985022,None,None,None,,,,,,,1,28,female,1,2022_May_05_0904,Partial repeat,2021.2.3,59.85916356976178,
8,8,0,1,2,2,1,1,1,1,1,1,1,1,0,0,80,80,80,1,0,1,0,,,,,,,,,842.0094512999058,None,842.9199985992163,None,s,1,0.5455451998859644,842.9199985992163,None,None,None,,,,,,,1,28,female,1,2022_May_05_0904,Partial repeat,2021.2.3,59.85916356976178,
8,8,0,1,2,2,1,1,1,1,1,1,1,1,0,0,80,80,80,,,,,,,,,,,,,,,,,,,,,,,,,,,,,,1,28,female,1,2022_May_05_0904,Partial repeat,2021.2.3,59.85916356976178,
8,8,0,1,3,3,1,2,0,1,1,0,0,1,0,0,81,81,81,0,0,0,0,,,,,,,843.4840561989695,None,843.941912099719,None,844.8728122990578,None,l,1,0.5288015995174646,844.8728122990578,None,None,None,,,,,,,1,28,female,1,2022_May_05_0904,Partial repeat,2021.2.3,59.85916356976178,
8,8,0,1,3,3,1,2,0,1,1,0,0,1,0,0,81,81,81,1,0,1,0,,,,,,,,,845.427614999935,None,846.3252855986357,None,s,1,0.4843450002372265,846.3252855986357,None,None,None,,,,,,,1,28,female,1,2022_May_05_0904,Partial repeat,2021.2.3,59.85916356976178,
8,8,0,1,3,3,1,2,0,1,1,0,0,1,0,0,81,81,81,,,,,,,,,,,,,,,,,,,,,,,,,,,,,,1,28,female,1,2022_May_05_0904,Partial repeat,2021.2.3,59.85916356976178,
8,8,0,1,2,3,2,2,1,0,0,1,0,1,0,0,82,82,82,0,0,0,0,,,,,,,846.8221520986408,None,847.2817508988082,None,848.1454588994384,None,s,1,0.48818990029394627,848.1454588994384,None,None,None,,,,,,,1,28,female,1,2022_May_05_0904,Partial repeat,2021.2.3,59.85916356976178,
8,8,0,1,2,3,2,2,1,0,0,1,0,1,0,0,82,82,82,1,0,1,0,,,,,,,,,848.6589364986867,None,849.5992552991956,None,l,1,0.5303432997316122,849.5992552991956,None,None,None,,,,,,,1,28,female,1,2022_May_05_0904,Partial repeat,2021.2.3,59.85916356976178,
8,8,0,1,2,3,2,2,1,0,0,1,0,1,0,0,82,82,82,,,,,,,,,,,,,,,,,,,,,,,,,,,,,,1,28,female,1,2022_May_05_0904,Partial repeat,2021.2.3,59.85916356976178,
8,8,0,1,3,3,2,1,0,0,1,0,1,1,0,0,83,83,83,0,0,0,0,,,,,,,850.1608967985958,None,850.5548000987619,None,851.4351479988545,None,l,1,0.790378499776125,851.4351479988545,None,None,None,,,,,,,1,28,female,1,2022_May_05_0904,Partial repeat,2021.2.3,59.85916356976178,
8,8,0,1,3,3,2,1,0,0,1,0,1,1,0,0,83,83,83,1,0,1,0,,,,,,,,,852.2438234984875,None,853.2055684998631,None,l,1,0.5481022987514734,853.2055684998631,None,None,None,,,,,,,1,28,female,1,2022_May_05_0904,Partial repeat,2021.2.3,59.85916356976178,
8,8,0,1,3,3,2,1,0,0,1,0,1,1,0,0,83,83,83,,,,,,,,,,,,,,,,,,,,,,,,,,,,,,1,28,female,1,2022_May_05_0904,Partial repeat,2021.2.3,59.85916356976178,
8,8,0,1,2,3,2,1,1,1,0,0,1,1,0,0,84,84,84,0,0,0,0,,,,,,,853.7655294984579,None,854.128410698846,None,855.1092415992171,None,s,1,0.868316899985075,855.1092415992171,None,None,None,,,,,,,1,28,female,1,2022_May_05_0904,Partial repeat,2021.2.3,59.85916356976178,
8,8,0,1,2,3,2,1,1,1,0,0,1,1,0,0,84,84,84,1,0,1,0,,,,,,,,,855.9997206982225,None,856.7290362995118,None,s,1,0.4805072993040085,856.7290362995118,None,None,None,,,,,,,1,28,female,1,2022_May_05_0904,Partial repeat,2021.2.3,59.85916356976178,
8,8,0,1,2,3,2,1,1,1,0,0,1,1,0,0,84,84,84,,,,,,,,,,,,,,,,,,,,,,,,,,,,,,1,28,female,1,2022_May_05_0904,Partial repeat,2021.2.3,59.85916356976178,
8,8,0,1,2,2,1,1,1,0,1,1,0,1,0,0,85,85,85,0,0,0,0,,,,,,,857.2251382991672,None,858.0193731989712,None,858.9508298989385,None,s,1,0.4907278995960951,858.9508298989385,None,None,None,,,,,,,1,28,female,1,2022_May_05_0904,Partial repeat,2021.2.3,59.85916356976178,
8,8,0,1,2,2,1,1,1,0,1,1,0,1,0,0,85,85,85,1,0,1,0,,,,,,,,,859.4668040983379,None,860.4026454985142,None,l,1,0.47087099961936474,860.4026454985142,None,None,None,,,,,,,1,28,female,1,2022_May_05_0904,Partial repeat,2021.2.3,59.85916356976178,
8,8,0,1,2,2,1,1,1,0,1,1,0,1,0,0,85,85,85,,,,,,,,,,,,,,,,,,,,,,,,,,,,,,1,28,female,1,2022_May_05_0904,Partial repeat,2021.2.3,59.85916356976178,
8,8,0,1,3,3,1,1,0,0,1,1,1,1,0,0,86,86,86,0,0,0,0,,,,,,,860.8980735987425,None,861.2422704994678,None,862.2062191981822,None,l,1,0.49926890060305595,862.2062191981822,None,None,None,,,,,,,1,28,female,1,2022_May_05_0904,Partial repeat,2021.2.3,59.85916356976178,
8,8,0,1,3,3,1,1,0,0,1,1,1,1,0,0,86,86,86,1,0,1,0,,,,,,,,,862.7220016997308,None,863.5588911995292,None,l,1,0.52265689894557,863.5588911995292,None,None,None,,,,,,,1,28,female,1,2022_May_05_0904,Partial repeat,2021.2.3,59.85916356976178,
8,8,0,1,3,3,1,1,0,0,1,1,1,1,0,0,86,86,86,,,,,,,,,,,,,,,,,,,,,,,,,,,,,,1,28,female,1,2022_May_05_0904,Partial repeat,2021.2.3,59.85916356976178,
8,8,0,1,2,2,1,2,1,1,1,0,1,1,0,0,87,87,87,0,0,0,0,,,,,,,864.0983564984053,None,864.4986051991582,None,865.2286820989102,None,s,1,0.5968399997800589,865.2286820989102,None,None,None,,,,,,,1,28,female,1,2022_May_05_0904,Partial repeat,2021.2.3,59.85916356976178,
8,8,0,1,2,2,1,2,1,1,1,0,1,1,0,0,87,87,87,1,0,1,0,,,,,,,,,865.8515517991036,None,866.782083299011,None,s,1,0.5394122004508972,866.782083299011,None,None,None,,,,,,,1,28,female,1,2022_May_05_0904,Partial repeat,2021.2.3,59.85916356976178,
8,8,0,1,2,2,1,2,1,1,1,0,1,1,0,0,87,87,87,,,,,,,,,,,,,,,,,,,,,,,,,,,,,,1,28,female,1,2022_May_05_0904,Partial repeat,2021.2.3,59.85916356976178,
8,8,0,1,2,2,2,2,1,0,1,1,0,1,0,0,88,88,88,0,0,0,0,,,,,,,867.3459971994162,None,867.7715483997017,None,868.5696584992111,None,s,1,0.6559602003544569,868.5696584992111,None,None,None,,,,,,,1,28,female,1,2022_May_05_0904,Partial repeat,2021.2.3,59.85916356976178,
8,8,0,1,2,2,2,2,1,0,1,1,0,1,0,0,88,88,88,1,0,1,0,,,,,,,,,869.2399121988565,None,870.2550285998732,None,l,1,0.5304796993732452,870.2550285998732,None,None,None,,,,,,,1,28,female,1,2022_May_05_0904,Partial repeat,2021.2.3,59.85916356976178,
8,8,0,1,2,2,2,2,1,0,1,1,0,1,0,0,88,88,88,,,,,,,,,,,,,,,,,,,,,,,,,,,,,,1,28,female,1,2022_May_05_0904,Partial repeat,2021.2.3,59.85916356976178,
8,8,0,1,2,3,1,2,0,0,0,0,1,1,0,0,89,89,89,0,0,0,0,,,,,,,870.8006047997624,None,871.5623121988028,None,872.3093658983707,None,l,1,0.7322273012250662,872.3093658983707,None,None,None,,,,,,,1,28,female,1,2022_May_05_0904,Partial repeat,2021.2.3,59.85916356976178,
8,8,0,1,2,3,1,2,0,0,0,0,1,1,0,0,89,89,89,1,0,1,0,,,,,,,,,873.0583630986512,None,873.7790507990867,None,l,1,0.5024957004934549,873.7790507990867,None,None,None,,,,,,,1,28,female,1,2022_May_05_0904,Partial repeat,2021.2.3,59.85916356976178,
8,8,0,1,2,3,1,2,0,0,0,0,1,1,0,0,89,89,89,,,,,,,,,,,,,,,,,,,,,,,,,,,,,,1,28,female,1,2022_May_05_0904,Partial repeat,2021.2.3,59.85916356976178,
8,8,0,1,2,3,2,2,0,0,0,1,1,1,0,0,90,90,90,0,0,0,0,,,,,,,874.3000784981996,None,874.7518296986818,None,875.6491230987012,None,l,1,0.8483878001570702,875.6491230987012,None,None,None,,,,,,,1,28,female,1,2022_May_05_0904,Partial repeat,2021.2.3,59.85916356976178,
8,8,0,1,2,3,2,2,0,0,0,1,1,1,0,0,90,90,90,1,0,1,0,,,,,,,,,876.5236083995551,None,877.3189145997167,None,l,1,0.4266745988279581,877.3189145997167,None,None,None,,,,,,,1,28,female,1,2022_May_05_0904,Partial repeat,2021.2.3,59.85916356976178,
8,8,0,1,2,3,2,2,0,0,0,1,1,1,0,0,90,90,90,,,,,,,,,,,,,,,,,,,,,,,,,,,,,,1,28,female,1,2022_May_05_0904,Partial repeat,2021.2.3,59.85916356976178,
8,8,0,1,2,3,1,2,1,0,0,0,0,1,0,0,91,91,91,0,0,0,0,,,,,,,877.7745535988361,None,878.1250792983919,None,878.9723498988897,None,s,1,0.5411937981843948,878.9723498988897,None,None,None,,,,,,,1,28,female,1,2022_May_05_0904,Partial repeat,2021.2.3,59.85916356976178,
8,8,0,1,2,3,1,2,1,0,0,0,0,1,0,0,91,91,91,1,0,1,0,,,,,,,,,879.5317178983241,None,880.4420818984509,None,l,1,0.4793922994285822,880.4420818984509,None,None,None,,,,,,,1,28,female,1,2022_May_05_0904,Partial repeat,2021.2.3,59.85916356976178,
8,8,0,1,2,3,1,2,1,0,0,0,0,1,0,0,91,91,91,,,,,,,,,,,,,,,,,,,,,,,,,,,,,,1,28,female,1,2022_May_05_0904,Partial repeat,2021.2.3,59.85916356976178,
8,8,0,1,3,2,2,1,0,0,0,0,1,1,0,0,92,92,92,0,0,0,0,,,,,,,880.946556199342,None,881.3813738990575,None,882.2284416984767,None,l,1,0.6050971001386642,882.2284416984767,None,None,None,,,,,,,1,28,female,1,2022_May_05_0904,Partial repeat,2021.2.3,59.85916356976178,
8,8,0,1,3,2,2,1,0,0,0,0,1,1,0,0,92,92,92,1,0,1,0,,,,,,,,,882.8476283997297,None,883.5985383000225,None,l,1,0.5710195992141962,883.5985383000225,None,None,None,,,,,,,1,28,female,1,2022_May_05_0904,Partial repeat,2021.2.3,59.85916356976178,
8,8,0,1,3,2,2,1,0,0,0,0,1,1,0,0,92,92,92,,,,,,,,,,,,,,,,,,,,,,,,,,,,,,1,28,female,1,2022_May_05_0904,Partial repeat,2021.2.3,59.85916356976178,
8,8,0,1,3,2,1,1,0,0,0,1,1,1,0,0,93,93,93,0,0,0,0,,,,,,,884.1850566994399,None,884.5208715982735,None,885.3010545987636,None,l,1,0.6204505991190672,885.3010545987636,None,None,None,,,,,,,1,28,female,1,2022_May_05_0904,Partial repeat,2021.2.3,59.85916356976178,
8,8,0,1,3,2,1,1,0,0,0,1,1,1,0,0,93,93,93,1,0,1,0,,,,,,,,,885.9457229990512,None,886.8376146983355,None,l,1,0.4599386006593704,886.8376146983355,None,None,None,,,,,,,1,28,female,1,2022_May_05_0904,Partial repeat,2021.2.3,59.85916356976178,
8,8,0,1,3,2,1,1,0,0,0,1,1,1,0,0,93,93,93,,,,,,,,,,,,,,,,,,,,,,,,,,,,,,1,28,female,1,2022_May_05_0904,Partial repeat,2021.2.3,59.85916356976178,
8,8,0,1,3,3,2,1,1,1,1,0,1,1,0,0,94,94,94,0,0,0,0,,,,,,,887.3239438999444,None,887.6766953989863,None,888.457197798416,None,s,1,0.7042615003883839,888.457197798416,None,None,None,,,,,,,1,28,female,1,2022_May_05_0904,Partial repeat,2021.2.3,59.85916356976178,
8,8,0,1,3,3,2,1,1,1,1,0,1,1,0,0,94,94,94,1,0,1,0,,,,,,,,,889.1792089994997,None,890.1776184998453,None,s,1,0.6078254003077745,890.1776184998453,None,None,None,,,,,,,1,28,female,1,2022_May_05_0904,Partial repeat,2021.2.3,59.85916356976178,
8,8,0,1,3,3,2,1,1,1,1,0,1,1,0,0,94,94,94,,,,,,,,,,,,,,,,,,,,,,,,,,,,,,1,28,female,1,2022_May_05_0904,Partial repeat,2021.2.3,59.85916356976178,
8,8,0,1,2,2,2,2,1,1,1,1,1,1,0,0,95,95,95,0,0,0,0,,,,,,,890.8170274998993,None,891.2169239986688,None,892.0815571993589,None,s,1,0.559978399425745,892.0815571993589,None,None,None,,,,,,,1,28,female,1,2022_May_05_0904,Partial repeat,2021.2.3,59.85916356976178,
8,8,0,1,2,2,2,2,1,1,1,1,1,1,0,0,95,95,95,1,0,1,0,,,,,,,,,892.6608320996165,None,893.6342737991363,None,s,1,0.767205998301506,893.6342737991363,None,None,None,,,,,,,1,28,female,1,2022_May_05_0904,Partial repeat,2021.2.3,59.85916356976178,
8,8,0,1,2,2,2,2,1,1,1,1,1,1,0,0,95,95,95,,,,,,,,,,,,,,,,,,,,,,,,,,,,,,1,28,female,1,2022_May_05_0904,Partial repeat,2021.2.3,59.85916356976178,
8,8,0,1,2,3,1,1,1,0,0,1,0,1,0,0,96,96,96,0,0,0,0,,,,,,,894.4256364982575,None,894.7070881985128,None,895.472474899143,None,s,1,0.809103399515152,895.472474899143,None,None,None,,,,,,,1,28,female,1,2022_May_05_0904,Partial repeat,2021.2.3,59.85916356976178,
8,8,0,1,2,3,1,1,1,0,0,1,0,1,0,0,96,96,96,1,0,1,0,,,,,,,,,896.3035787995905,None,897.0906548984349,None,l,1,0.4630929995328188,897.0906548984349,None,None,None,,,,,,,1,28,female,1,2022_May_05_0904,Partial repeat,2021.2.3,59.85916356976178,
8,8,0,1,2,3,1,1,1,0,0,1,0,1,0,0,96,96,96,,,,,,,,,,,,,,,,,,,,,,,,,,,,,,1,28,female,1,2022_May_05_0904,Partial repeat,2021.2.3,59.85916356976178,
8,8,0,1,3,3,2,2,0,0,1,1,1,1,0,0,97,97,97,0,0,0,0,,,,,,,897.5656329989433,None,897.9969804994762,None,898.8782008998096,None,l,1,0.7872601002454758,898.8782008998096,None,None,None,,,,,,,1,28,female,1,2022_May_05_0904,Partial repeat,2021.2.3,59.85916356976178,
8,8,0,1,3,3,2,2,0,0,1,1,1,1,0,0,97,97,97,1,0,1,0,,,,,,,,,899.6897113993764,None,900.5032270997763,None,l,1,0.36238119937479496,900.5032270997763,None,None,None,,,,,,,1,28,female,1,2022_May_05_0904,Partial repeat,2021.2.3,59.85916356976178,
8,8,0,1,3,3,2,2,0,0,1,1,1,1,0,0,97,97,97,,,,,,,,,,,,,,,,,,,,,,,,,,,,,,1,28,female,1,2022_May_05_0904,Partial repeat,2021.2.3,59.85916356976178,
8,8,0,1,3,3,2,2,1,1,1,1,1,1,0,0,98,98,98,0,0,0,0,,,,,,,900.876041598618,None,901.202995499596,None,902.0834830999374,None,s,1,0.6700010001659393,902.0834830999374,None,None,None,,,,,,,1,28,female,1,2022_May_05_0904,Partial repeat,2021.2.3,59.85916356976178,
8,8,0,1,3,3,2,2,1,1,1,1,1,1,0,0,98,98,98,1,0,1,0,,,,,,,,,902.7682172991335,None,903.636775098741,None,s,1,0.6447147000581026,903.636775098741,None,None,None,,,,,,,1,28,female,1,2022_May_05_0904,Partial repeat,2021.2.3,59.85916356976178,
8,8,0,1,3,3,2,2,1,1,1,1,1,1,0,0,98,98,98,,,,,,,,,,,,,,,,,,,,,,,,,,,,,,1,28,female,1,2022_May_05_0904,Partial repeat,2021.2.3,59.85916356976178,
8,8,0,1,3,2,2,2,0,1,0,1,0,1,0,0,99,99,99,0,0,0,0,,,,,,,904.3086497988552,None,904.5929731987417,None,905.5592315997928,None,l,1,0.5222842991352081,905.5592315997928,None,None,None,,,,,,,1,28,female,1,2022_May_05_0904,Partial repeat,2021.2.3,59.85916356976178,
8,8,0,1,3,2,2,2,0,1,0,1,0,1,0,0,99,99,99,1,0,1,0,,,,,,,,,906.1008467990905,None,906.9435663986951,None,s,1,0.5139123015105724,906.9435663986951,None,None,None,,,,,,,1,28,female,1,2022_May_05_0904,Partial repeat,2021.2.3,59.85916356976178,
8,8,0,1,3,2,2,2,0,1,0,1,0,1,0,0,99,99,99,,,,,,,,,,,,,,,,,,,,,,,,,,,,,,1,28,female,1,2022_May_05_0904,Partial repeat,2021.2.3,59.85916356976178,
8,8,0,1,3,2,2,1,0,1,0,0,0,1,0,0,100,100,100,0,0,0,0,,,,,,,907.4862857982516,None,907.7827770989388,None,908.613604798913,None,l,1,1.171799099072814,908.613604798913,None,None,None,,,,,,,1,28,female,1,2022_May_05_0904,Partial repeat,2021.2.3,59.85916356976178,
8,8,0,1,3,2,2,1,0,1,0,0,0,1,0,0,100,100,100,1,0,1,0,,,,,,,,,909.8068461995572,None,910.7673859987408,None,s,1,0.538026999682188,910.7673859987408,None,None,None,,,,,,,1,28,female,1,2022_May_05_0904,Partial repeat,2021.2.3,59.85916356976178,
8,8,0,1,3,2,2,1,0,1,0,0,0,1,0,0,100,100,100,,,,,,,,,,,,,,,,,,,,,,,,,,,,,,1,28,female,1,2022_May_05_0904,Partial repeat,2021.2.3,59.85916356976178,
8,8,0,1,3,2,1,1,1,1,0,1,1,1,0,0,101,101,101,0,0,0,0,,,,,,,911.3272207994014,None,911.6734026987106,None,912.4032641984522,None,s,1,0.7822142001241446,912.4032641984522,None,None,None,,,,,,,1,28,female,1,2022_May_05_0904,Partial repeat,2021.2.3,59.85916356976178,
8,8,0,1,3,2,1,1,1,1,0,1,1,1,0,0,101,101,101,1,0,1,0,,,,,,,,,913.1934354994446,None,914.1243282984942,None,s,1,0.6054117009043694,914.1243282984942,None,None,None,,,,,,,1,28,female,1,2022_May_05_0904,Partial repeat,2021.2.3,59.85916356976178,
8,8,0,1,3,2,1,1,1,1,0,1,1,1,0,0,101,101,101,,,,,,,,,,,,,,,,,,,,,,,,,,,,,,1,28,female,1,2022_May_05_0904,Partial repeat,2021.2.3,59.85916356976178,
8,8,0,1,2,3,1,2,1,1,0,0,1,1,0,0,102,102,102,0,0,0,0,,,,,,,914.7482417989522,None,915.0633482988924,None,915.79396019876,None,s,1,0.5514711998403072,915.79396019876,None,None,None,,,,,,,1,28,female,1,2022_May_05_0904,Partial repeat,2021.2.3,59.85916356976178,
8,8,0,1,2,3,1,2,1,1,0,0,1,1,0,0,102,102,102,1,0,1,0,,,,,,,,,916.3695578984916,None,917.2133724000305,None,s,1,0.5160831995308399,917.2133724000305,None,None,None,,,,,,,1,28,female,1,2022_May_05_0904,Partial repeat,2021.2.3,59.85916356976178,
8,8,0,1,2,3,1,2,1,1,0,0,1,1,0,0,102,102,102,,,,,,,,,,,,,,,,,,,,,,,,,,,,,,1,28,female,1,2022_May_05_0904,Partial repeat,2021.2.3,59.85916356976178,
8,8,0,1,3,3,1,2,1,1,1,0,1,1,0,0,103,103,103,0,0,0,0,,,,,,,917.7546973992139,None,918.0357410982251,None,918.8166714999825,None,s,1,0.4487601015716791,918.8166714999825,None,None,None,,,,,,,1,28,female,1,2022_May_05_0904,Partial repeat,2021.2.3,59.85916356976178,
8,8,0,1,3,3,1,2,1,1,1,0,1,1,0,0,103,103,103,1,0,1,0,,,,,,,,,919.2913470994681,None,920.2687732987106,None,s,1,0.35668300092220306,920.2687732987106,None,None,None,,,,,,,1,28,female,1,2022_May_05_0904,Partial repeat,2021.2.3,59.85916356976178,
8,8,0,1,3,3,1,2,1,1,1,0,1,1,0,0,103,103,103,,,,,,,,,,,,,,,,,,,,,,,,,,,,,,1,28,female,1,2022_May_05_0904,Partial repeat,2021.2.3,59.85916356976178,
8,8,0,1,2,2,1,1,0,0,1,1,1,1,0,0,104,104,104,0,0,0,0,,,,,,,920.6401710994542,None,920.8913220986724,None,921.6897270996124,None,l,1,0.7357611991465092,921.6897270996124,None,None,None,,,,,,,1,28,female,1,2022_May_05_0904,Partial repeat,2021.2.3,59.85916356976178,
8,8,0,1,2,2,1,1,0,0,1,1,1,1,0,0,104,104,104,1,0,1,0,,,,,,,,,922.4359104000032,None,923.4251829981804,None,l,1,0.45624350011348724,923.4251829981804,None,None,None,,,,,,,1,28,female,1,2022_May_05_0904,Partial repeat,2021.2.3,59.85916356976178,
8,8,0,1,2,2,1,1,0,0,1,1,1,1,0,0,104,104,104,,,,,,,,,,,,,,,,,,,,,,,,,,,,,,1,28,female,1,2022_May_05_0904,Partial repeat,2021.2.3,59.85916356976178,
8,8,0,1,2,2,1,2,0,0,1,0,1,1,0,0,105,105,105,0,0,0,0,,,,,,,923.900089699775,None,924.2812483999878,None,925.1456678994,None,l,1,0.6477873008698225,925.1456678994,None,None,None,,,,,,,1,28,female,1,2022_May_05_0904,Partial repeat,2021.2.3,59.85916356976178,
8,8,0,1,2,2,1,2,0,0,1,0,1,1,0,0,105,105,105,1,0,1,0,,,,,,,,,925.8078545983881,None,926.7486450988799,None,l,1,0.5727637000381947,926.7486450988799,None,None,None,,,,,,,1,28,female,1,2022_May_05_0904,Partial repeat,2021.2.3,59.85916356976178,
8,8,0,1,2,2,1,2,0,0,1,0,1,1,0,0,105,105,105,,,,,,,,,,,,,,,,,,,,,,,,,,,,,,1,28,female,1,2022_May_05_0904,Partial repeat,2021.2.3,59.85916356976178,
8,8,0,1,2,3,1,2,0,1,0,0,0,1,0,0,106,106,106,0,0,0,0,,,,,,,927.3359073996544,None,928.2723073996603,None,929.2701869998127,None,l,1,0.7712351996451616,929.2701869998127,None,None,None,,,,,,,1,28,female,1,2022_May_05_0904,Partial repeat,2021.2.3,59.85916356976178,
8,8,0,1,2,3,1,2,0,1,0,0,0,1,0,0,106,106,106,1,0,1,0,,,,,,,,,930.0625304989517,None,930.8562992997468,None,l,0,0.6171675994992256,930.8562992997468,None,931.4970021992922,None,,,,,,,1,28,female,1,2022_May_05_0904,Partial repeat,2021.2.3,59.85916356976178,
8,8,0,1,2,3,1,2,0,1,0,0,0,1,0,0,106,106,106,,,,,,,,,,,,,,,,,,,,,,,,,,,,,,1,28,female,1,2022_May_05_0904,Partial repeat,2021.2.3,59.85916356976178,
8,8,0,1,3,2,2,2,1,1,0,1,1,1,0,0,107,107,107,0,0,0,0,,,,,,,931.9962857998908,None,932.6809694990516,None,933.5633127000183,None,s,1,0.6221396997570992,933.5633127000183,None,None,None,,,,,,,1,28,female,1,2022_May_05_0904,Partial repeat,2021.2.3,59.85916356976178,
8,8,0,1,3,2,2,2,1,1,0,1,1,1,0,0,107,107,107,1,0,1,0,,,,,,,,,934.2035653982311,None,934.998153898865,None,s,1,0.5313161984086037,934.998153898865,None,None,None,,,,,,,1,28,female,1,2022_May_05_0904,Partial repeat,2021.2.3,59.85916356976178,
8,8,0,1,3,2,2,2,1,1,0,1,1,1,0,0,107,107,107,,,,,,,,,,,,,,,,,,,,,,,,,,,,,,1,28,female,1,2022_May_05_0904,Partial repeat,2021.2.3,59.85916356976178,
8,8,0,1,3,2,1,2,1,0,0,0,0,1,0,0,108,108,108,0,0,0,0,,,,,,,935.5426394995302,None,935.7869676984847,None,936.6173832993954,None,s,1,0.5840704012662172,936.6173832993954,None,None,None,,,,,,,1,28,female,1,2022_May_05_0904,Partial repeat,2021.2.3,59.85916356976178,
8,8,0,1,3,2,1,2,1,0,0,0,0,1,0,0,108,108,108,1,0,1,0,,,,,,,,,937.2167106997222,None,938.0038551986217,None,l,1,0.41355339996516705,938.0038551986217,None,None,None,,,,,,,1,28,female,1,2022_May_05_0904,Partial repeat,2021.2.3,59.85916356976178,
8,8,0,1,3,2,1,2,1,0,0,0,0,1,0,0,108,108,108,,,,,,,,,,,,,,,,,,,,,,,,,,,,,,1,28,female,1,2022_May_05_0904,Partial repeat,2021.2.3,59.85916356976178,
8,8,0,1,2,3,1,1,0,1,0,1,0,1,0,0,109,109,109,0,0,0,0,,,,,,,938.4437278993428,None,938.8095366992056,None,939.6403342988342,None,l,1,0.8970883991569281,939.6403342988342,None,None,None,,,,,,,1,28,female,1,2022_May_05_0904,Partial repeat,2021.2.3,59.85916356976178,
8,8,0,1,2,3,1,1,0,1,0,1,0,1,0,0,109,109,109,1,0,1,0,,,,,,,,,940.5546510983258,None,941.5603259988129,None,s,1,0.44118909910321236,941.5603259988129,None,None,None,,,,,,,1,28,female,1,2022_May_05_0904,Partial repeat,2021.2.3,59.85916356976178,
8,8,0,1,2,3,1,1,0,1,0,1,0,1,0,0,109,109,109,,,,,,,,,,,,,,,,,,,,,,,,,,,,,,1,28,female,1,2022_May_05_0904,Partial repeat,2021.2.3,59.85916356976178,
8,8,0,1,2,2,2,2,0,1,1,1,0,1,0,0,110,110,110,0,0,0,0,,,,,,,942.0139643996954,None,942.3497274983674,None,943.1466980986297,None,l,1,0.6067475005984306,943.1466980986297,None,None,None,,,,,,,1,28,female,1,2022_May_05_0904,Partial repeat,2021.2.3,59.85916356976178,
8,8,0,1,2,2,2,2,0,1,1,1,0,1,0,0,110,110,110,1,0,1,0,,,,,,,,,943.7697333991528,None,944.7497836984694,None,s,1,0.45961010083556175,944.7497836984694,None,None,None,,,,,,,1,28,female,1,2022_May_05_0904,Partial repeat,2021.2.3,59.85916356976178,
8,8,0,1,2,2,2,2,0,1,1,1,0,1,0,0,110,110,110,,,,,,,,,,,,,,,,,,,,,,,,,,,,,,1,28,female,1,2022_May_05_0904,Partial repeat,2021.2.3,59.85916356976178,
8,8,0,1,3,2,2,2,1,0,0,1,0,1,0,0,111,111,111,0,0,0,0,,,,,,,945.224262798205,None,945.5058487989008,None,946.2537155989558,None,s,1,0.5238122995942831,946.2537155989558,None,None,None,,,,,,,1,28,female,1,2022_May_05_0904,Partial repeat,2021.2.3,59.85916356976178,
8,8,0,1,3,2,2,2,1,0,0,1,0,1,0,0,111,111,111,1,0,1,0,,,,,,,,,946.7884702999145,None,947.7393595986068,None,l,1,0.4221174996346235,947.7393595986068,None,None,None,,,,,,,1,28,female,1,2022_May_05_0904,Partial repeat,2021.2.3,59.85916356976178,
8,8,0,1,3,2,2,2,1,0,0,1,0,1,0,0,111,111,111,,,,,,,,,,,,,,,,,,,,,,,,,,,,,,1,28,female,1,2022_May_05_0904,Partial repeat,2021.2.3,59.85916356976178,
8,8,0,1,3,3,1,1,1,0,1,1,0,1,0,0,112,112,112,0,0,0,0,,,,,,,948.1725824996829,None,948.5117205996066,None,949.2415224984288,None,s,1,0.551892900839448,949.2415224984288,None,None,None,,,,,,,1,28,female,1,2022_May_05_0904,Partial repeat,2021.2.3,59.85916356976178,
8,8,0,1,3,3,1,1,1,0,1,1,0,1,0,0,112,112,112,1,0,1,0,,,,,,,,,949.8172714989632,None,950.5948084983975,None,l,1,0.6386057995259762,950.5948084983975,None,None,None,,,,,,,1,28,female,1,2022_May_05_0904,Partial repeat,2021.2.3,59.85916356976178,
8,8,0,1,3,3,1,1,1,0,1,1,0,1,0,0,112,112,112,,,,,,,,,,,,,,,,,,,,,,,,,,,,,,1,28,female,1,2022_May_05_0904,Partial repeat,2021.2.3,59.85916356976178,
8,8,0,1,3,2,1,1,0,1,0,1,0,1,0,0,113,113,113,0,0,0,0,,,,,,,951.2573075983673,None,951.7012727987021,None,952.648838499561,None,l,1,0.456640999764204,952.648838499561,None,None,None,,,,,,,1,28,female,1,2022_May_05_0904,Partial repeat,2021.2.3,59.85916356976178,
8,8,0,1,3,2,1,1,0,1,0,1,0,1,0,0,113,113,113,1,0,1,0,,,,,,,,,953.1228504981846,None,953.9006659984589,None,s,1,0.4607530999928713,953.9006659984589,None,None,None,,,,,,,1,28,female,1,2022_May_05_0904,Partial repeat,2021.2.3,59.85916356976178,
8,8,0,1,3,2,1,1,0,1,0,1,0,1,0,0,113,113,113,,,,,,,,,,,,,,,,,,,,,,,,,,,,,,1,28,female,1,2022_May_05_0904,Partial repeat,2021.2.3,59.85916356976178,
8,8,0,1,2,3,2,2,0,1,0,1,0,1,0,0,114,114,114,0,0,0,0,,,,,,,954.3768511991948,None,954.6570082996041,None,955.621281599626,None,l,1,0.5882225017994642,955.621281599626,None,None,None,,,,,,,1,28,female,1,2022_May_05_0904,Partial repeat,2021.2.3,59.85916356976178,
8,8,0,1,2,3,2,2,0,1,0,1,0,1,0,0,114,114,114,1,0,1,0,,,,,,,,,956.2204738985747,None,956.9572315998375,None,s,1,0.43619140051305294,956.9572315998375,None,None,None,,,,,,,1,28,female,1,2022_May_05_0904,Partial repeat,2021.2.3,59.85916356976178,
8,8,0,1,2,3,2,2,0,1,0,1,0,1,0,0,114,114,114,,,,,,,,,,,,,,,,,,,,,,,,,,,,,,1,28,female,1,2022_May_05_0904,Partial repeat,2021.2.3,59.85916356976178,
8,8,0,1,2,2,2,1,1,0,1,0,0,1,0,0,115,115,115,0,0,0,0,,,,,,,957.4217884000391,None,957.696265399456,None,958.4766667988151,None,s,1,0.5327277984470129,958.4766667988151,None,None,None,,,,,,,1,28,female,1,2022_May_05_0904,Partial repeat,2021.2.3,59.85916356976178,
8,8,0,1,2,2,2,1,1,0,1,0,0,1,0,0,115,115,115,1,0,1,0,,,,,,,,,959.0350682996213,None,959.796556700021,None,l,1,0.4608829990029335,959.796556700021,None,None,None,,,,,,,1,28,female,1,2022_May_05_0904,Partial repeat,2021.2.3,59.85916356976178,
8,8,0,1,2,2,2,1,1,0,1,0,0,1,0,0,115,115,115,,,,,,,,,,,,,,,,,,,,,,,,,,,,,,1,28,female,1,2022_May_05_0904,Partial repeat,2021.2.3,59.85916356976178,
8,8,0,1,3,3,2,2,0,1,1,1,0,1,0,0,116,116,116,0,0,0,0,,,,,,,960.275162499398,None,960.6019313000143,None,961.3831426985562,None,l,1,0.8983375001698732,961.3831426985562,None,None,None,,,,,,,1,28,female,1,2022_May_05_0904,Partial repeat,2021.2.3,59.85916356976178,
8,8,0,1,3,3,2,2,0,1,1,1,0,1,0,0,116,116,116,1,0,1,0,,,,,,,,,962.2909329999238,None,963.0702326986939,None,s,1,0.4752193000167608,963.0702326986939,None,None,None,,,,,,,1,28,female,1,2022_May_05_0904,Partial repeat,2021.2.3,59.85916356976178,
8,8,0,1,3,3,2,2,0,1,1,1,0,1,0,0,116,116,116,,,,,,,,,,,,,,,,,,,,,,,,,,,,,,1,28,female,1,2022_May_05_0904,Partial repeat,2021.2.3,59.85916356976178,
8,8,0,1,2,3,1,1,0,0,0,1,1,1,0,0,117,117,117,0,0,0,0,,,,,,,963.5752069000155,None,963.8249538987875,None,964.8059512991458,None,l,1,0.5874692015349865,964.8059512991458,None,None,None,,,,,,,1,28,female,1,2022_May_05_0904,Partial repeat,2021.2.3,59.85916356976178,
8,8,0,1,2,3,1,1,0,0,0,1,1,1,0,0,117,117,117,1,0,1,0,,,,,,,,,965.4151328988373,None,966.2422981988639,None,l,1,0.47916180081665516,966.2422981988639,None,None,None,,,,,,,1,28,female,1,2022_May_05_0904,Partial repeat,2021.2.3,59.85916356976178,
8,8,0,1,2,3,1,1,0,0,0,1,1,1,0,0,117,117,117,,,,,,,,,,,,,,,,,,,,,,,,,,,,,,1,28,female,1,2022_May_05_0904,Partial repeat,2021.2.3,59.85916356976178,
8,8,0,1,3,2,2,1,1,0,0,0,0,1,0,0,118,118,118,0,0,0,0,,,,,,,966.752774098888,None,967.1146007999778,None,968.0293166991323,None,s,1,0.612092399969697,968.0293166991323,None,None,None,,,,,,,1,28,female,1,2022_May_05_0904,Partial repeat,2021.2.3,59.85916356976178,
8,8,0,1,3,2,2,1,1,0,0,0,0,1,0,0,118,118,118,1,0,1,0,,,,,,,,,968.6572746988386,None,969.4823575988412,None,l,1,0.3830370996147394,969.4823575988412,None,None,None,,,,,,,1,28,female,1,2022_May_05_0904,Partial repeat,2021.2.3,59.85916356976178,
8,8,0,1,3,2,2,1,1,0,0,0,0,1,0,0,118,118,118,,,,,,,,,,,,,,,,,,,,,,,,,,,,,,1,28,female,1,2022_May_05_0904,Partial repeat,2021.2.3,59.85916356976178,
8,8,0,1,3,2,1,2,0,1,0,0,0,1,0,0,119,119,119,0,0,0,0,,,,,,,969.8813800998032,None,970.2540061995387,None,971.0516849998385,None,l,1,0.5496884007006884,971.0516849998385,None,None,None,,,,,,,1,28,female,1,2022_May_05_0904,Partial repeat,2021.2.3,59.85916356976178,
8,8,0,1,3,2,1,2,0,1,0,0,0,1,0,0,119,119,119,1,0,1,0,,,,,,,,,971.609954399988,None,972.6276811994612,None,s,1,0.4057988990098238,972.6276811994612,None,None,None,,,,,,,1,28,female,1,2022_May_05_0904,Partial repeat,2021.2.3,59.85916356976178,
8,8,0,1,3,2,1,2,0,1,0,0,0,1,0,0,119,119,119,,,,,,,,,,,,,,,,,,,,,,,,,,,,,,1,28,female,1,2022_May_05_0904,Partial repeat,2021.2.3,59.85916356976178,
8,8,0,1,3,3,1,1,0,1,1,1,0,1,0,0,120,120,120,0,0,0,0,,,,,,,973.0443179998547,None,973.3269173000008,None,974.3253750987351,None,l,1,0.7560442984104156,974.3253750987351,None,None,None,,,,,,,1,28,female,1,2022_May_05_0904,Partial repeat,2021.2.3,59.85916356976178,
8,8,0,1,3,3,1,1,0,1,1,1,0,1,0,0,120,120,120,1,0,1,0,,,,,,,,,975.1026389990002,None,975.8632958997041,None,s,1,0.6101596001535654,975.8632958997041,None,None,None,,,,,,,1,28,female,1,2022_May_05_0904,Partial repeat,2021.2.3,59.85916356976178,
8,8,0,1,3,3,1,1,0,1,1,1,0,1,0,0,120,120,120,,,,,,,,,,,,,,,,,,,,,,,,,,,,,,1,28,female,1,2022_May_05_0904,Partial repeat,2021.2.3,59.85916356976178,
8,8,0,1,3,3,1,1,1,1,1,1,1,1,0,0,121,121,121,0,0,0,0,,,,,,,976.5044517982751,None,976.7834462989122,None,977.5304795987904,None,s,1,0.7909453008323908,977.5304795987904,None,None,None,,,,,,,1,28,female,1,2022_May_05_0904,Partial repeat,2021.2.3,59.85916356976178,
8,8,0,1,3,3,1,1,1,1,1,1,1,1,0,0,121,121,121,1,0,1,0,,,,,,,,,978.3361248988658,None,979.2173932995647,None,s,1,0.5600505005568266,979.2173932995647,None,None,None,,,,,,,1,28,female,1,2022_May_05_0904,Partial repeat,2021.2.3,59.85916356976178,
8,8,0,1,3,3,1,1,1,1,1,1,1,1,0,0,121,121,121,,,,,,,,,,,,,,,,,,,,,,,,,,,,,,1,28,female,1,2022_May_05_0904,Partial repeat,2021.2.3,59.85916356976178,
8,8,0,1,2,2,2,1,0,0,1,0,1,1,0,0,122,122,122,0,0,0,0,,,,,,,979.8037951998413,None,980.0564239993691,None,980.9546868987381,None,l,1,0.6546995993703604,980.9546868987381,None,None,None,,,,,,,1,28,female,1,2022_May_05_0904,Partial repeat,2021.2.3,59.85916356976178,
8,8,0,1,2,2,2,1,0,0,1,0,1,1,0,0,122,122,122,1,0,1,0,,,,,,,,,981.621254099533,None,982.4895877987146,None,l,1,0.5438918992877007,982.4895877987146,None,None,None,,,,,,,1,28,female,1,2022_May_05_0904,Partial repeat,2021.2.3,59.85916356976178,
8,8,0,1,2,2,2,1,0,0,1,0,1,1,0,0,122,122,122,,,,,,,,,,,,,,,,,,,,,,,,,,,,,,1,28,female,1,2022_May_05_0904,Partial repeat,2021.2.3,59.85916356976178,
8,8,0,1,2,2,1,2,0,1,1,0,0,1,0,0,123,123,123,0,0,0,0,,,,,,,983.0561688989401,None,983.5298978984356,None,984.2766767982394,None,l,1,0.7247684989124537,984.2766767982394,None,None,None,,,,,,,1,28,female,1,2022_May_05_0904,Partial repeat,2021.2.3,59.85916356976178,
8,8,0,1,2,2,1,2,0,1,1,0,0,1,0,0,123,123,123,1,0,1,0,,,,,,,,,985.0136518999934,None,985.9146978985518,None,s,1,0.718699399381876,985.9146978985518,None,None,None,,,,,,,1,28,female,1,2022_May_05_0904,Partial repeat,2021.2.3,59.85916356976178,
8,8,0,1,2,2,1,2,0,1,1,0,0,1,0,0,123,123,123,,,,,,,,,,,,,,,,,,,,,,,,,,,,,,1,28,female,1,2022_May_05_0904,Partial repeat,2021.2.3,59.85916356976178,
8,8,0,1,2,3,2,1,1,0,0,0,0,1,0,0,124,124,124,0,0,0,0,,,,,,,986.6497291997075,None,986.9031005986035,None,987.6510226987302,None,s,1,0.4943847991526127,987.6510226987302,None,None,None,,,,,,,1,28,female,1,2022_May_05_0904,Partial repeat,2021.2.3,59.85916356976178,
8,8,0,1,2,3,2,1,1,0,0,0,0,1,0,0,124,124,124,1,0,1,0,,,,,,,,,988.1727823987603,None,988.9042058996856,None,l,1,0.4092209991067648,988.9042058996856,None,None,None,,,,,,,1,28,female,1,2022_May_05_0904,Partial repeat,2021.2.3,59.85916356976178,
8,8,0,1,2,3,2,1,1,0,0,0,0,1,0,0,124,124,124,,,,,,,,,,,,,,,,,,,,,,,,,,,,,,1,28,female,1,2022_May_05_0904,Partial repeat,2021.2.3,59.85916356976178,
8,8,0,1,2,2,1,1,0,1,1,1,0,1,0,0,125,125,125,0,0,0,0,,,,,,,989.340159598738,None,989.7252428997308,None,990.5722901988775,None,l,1,0.6371577996760607,990.5722901988775,None,None,None,,,,,,,1,28,female,1,2022_May_05_0904,Partial repeat,2021.2.3,59.85916356976178,
8,8,0,1,2,2,1,1,0,1,1,1,0,1,0,0,125,125,125,1,0,1,0,,,,,,,,,991.2342702988535,None,992.2101154997945,None,s,1,0.4314271993935108,992.2101154997945,None,None,None,,,,,,,1,28,female,1,2022_May_05_0904,Partial repeat,2021.2.3,59.85916356976178,
8,8,0,1,2,2,1,1,0,1,1,1,0,1,0,0,125,125,125,,,,,,,,,,,,,,,,,,,,,,,,,,,,,,1,28,female,1,2022_May_05_0904,Partial repeat,2021.2.3,59.85916356976178,
8,8,0,1,2,2,2,1,0,1,1,0,0,1,0,0,126,126,126,0,0,0,0,,,,,,,992.6547324992716,None,992.9816873986274,None,993.7628436982632,None,l,1,0.5346016995608807,993.7628436982632,None,None,None,,,,,,,1,28,female,1,2022_May_05_0904,Partial repeat,2021.2.3,59.85916356976178,
8,8,0,1,2,2,2,1,0,1,1,0,0,1,0,0,126,126,126,1,0,1,0,,,,,,,,,994.3088402990252,None,995.3001985996962,None,s,1,0.34922350011765957,995.3001985996962,None,None,None,,,,,,,1,28,female,1,2022_May_05_0904,Partial repeat,2021.2.3,59.85916356976178,
8,8,0,1,2,2,2,1,0,1,1,0,0,1,0,0,126,126,126,,,,,,,,,,,,,,,,,,,,,,,,,,,,,,1,28,female,1,2022_May_05_0904,Partial repeat,2021.2.3,59.85916356976178,
8,8,0,1,2,2,1,2,1,0,1,0,0,1,0,0,127,127,127,0,0,0,0,,,,,,,995.6675606984645,None,996.0709032993764,None,996.8531692996621,None,s,1,0.5562303010374308,996.8531692996621,None,None,None,,,,,,,1,28,female,1,2022_May_05_0904,Partial repeat,2021.2.3,59.85916356976178,
8,8,0,1,2,2,1,2,1,0,1,0,0,1,0,0,127,127,127,1,0,1,0,,,,,,,,,997.4212760999799,None,998.254535799846,None,l,1,0.9948370009660721,998.254535799846,None,None,None,,,,,,,1,28,female,1,2022_May_05_0904,Partial repeat,2021.2.3,59.85916356976178,
8,8,0,1,2,2,1,2,1,0,1,0,0,1,0,0,127,127,127,,,,,,,,,,,,,,,,,,,,,,,,,,,,,,1,28,female,1,2022_May_05_0904,Partial repeat,2021.2.3,59.85916356976178,
5,2,0,1,3,3,1,2,0,1,1,0,0,0,0,0,128,128,128,0,0,0,0,,,,,,,1001.7844478990883,None,1002.550217198208,None,1003.5481627993286,None,s,0,0.6692187003791332,1003.5481627993286,None,1004.239178000018,None,,,,,,,1,28,female,1,2022_May_05_0904,Partial repeat,2021.2.3,59.85916356976178,
5,2,0,1,3,3,1,2,0,1,1,0,0,0,0,0,128,128,128,1,0,1,0,,,,,,,,,1004.7545298989862,None,1005.503648398444,None,s,1,0.8978761993348598,1005.503648398444,None,None,None,,,,,,,1,28,female,1,2022_May_05_0904,Partial repeat,2021.2.3,59.85916356976178,
5,2,0,1,3,3,1,2,0,1,1,0,0,0,0,0,128,128,128,,,,,,,,,,,,,,,,,,,,,,,,,,,,,,1,28,female,1,2022_May_05_0904,Partial repeat,2021.2.3,59.85916356976178,
2,4,0,1,3,3,2,1,1,0,1,0,0,0,0,0,129,129,129,0,0,0,0,,,,,,,1006.4184732995927,None,1006.6750795990229,None,1007.6568335983902,None,s,1,0.784553000703454,1007.6568335983902,None,None,None,,,,,,,1,28,female,1,2022_May_05_0904,Partial repeat,2021.2.3,59.85916356976178,
2,4,0,1,3,3,2,1,1,0,1,0,0,0,0,0,129,129,129,1,0,1,0,,,,,,,,,1008.4547246992588,None,1009.3930515982211,None,l,1,0.704346900805831,1009.3930515982211,None,None,None,,,,,,,1,28,female,1,2022_May_05_0904,Partial repeat,2021.2.3,59.85916356976178,
2,4,0,1,3,3,2,1,1,0,1,0,0,0,0,0,129,129,129,,,,,,,,,,,,,,,,,,,,,,,,,,,,,,1,28,female,1,2022_May_05_0904,Partial repeat,2021.2.3,59.85916356976178,
5,8,0,1,2,2,2,2,0,0,1,1,1,0,0,0,130,130,130,0,0,0,0,,,,,,,1010.121342798695,None,1010.4154803995043,None,1011.2800567988306,None,l,1,0.7133437991142273,1011.2800567988306,None,None,None,,,,,,,1,28,female,1,2022_May_05_0904,Partial repeat,2021.2.3,59.85916356976178,
5,8,0,1,2,2,2,2,0,0,1,1,1,0,0,0,130,130,130,1,0,1,0,,,,,,,,,1012.0106505993754,None,1012.8197151999921,None,l,1,0.6616794988512993,1012.8197151999921,None,None,None,,,,,,,1,28,female,1,2022_May_05_0904,Partial repeat,2021.2.3,59.85916356976178,
5,8,0,1,2,2,2,2,0,0,1,1,1,0,0,0,130,130,130,,,,,,,,,,,,,,,,,,,,,,,,,,,,,,1,28,female,1,2022_May_05_0904,Partial repeat,2021.2.3,59.85916356976178,
5,6,0,1,2,3,1,2,0,1,0,0,0,0,0,0,131,131,131,0,0,0,0,,,,,,,1013.5070313997567,None,1013.8221052996814,None,1014.8044622000307,None,l,1,0.62896510027349,1014.8044622000307,None,None,None,,,,,,,1,28,female,1,2022_May_05_0904,Partial repeat,2021.2.3,59.85916356976178,
5,6,0,1,2,3,1,2,0,1,0,0,0,0,0,0,131,131,131,1,0,1,0,,,,,,,,,1015.4571508988738,None,1016.3599405996501,None,s,1,0.6895851995795965,1016.3599405996501,None,None,None,,,,,,,1,28,female,1,2022_May_05_0904,Partial repeat,2021.2.3,59.85916356976178,
5,6,0,1,2,3,1,2,0,1,0,0,0,0,0,0,131,131,131,,,,,,,,,,,,,,,,,,,,,,,,,,,,,,1,28,female,1,2022_May_05_0904,Partial repeat,2021.2.3,59.85916356976178,
5,3,0,1,3,2,2,2,1,0,0,1,0,0,0,0,132,132,132,0,0,0,0,,,,,,,1017.0752015989274,None,1017.3626314997673,None,1018.3433604985476,None,s,1,0.6101208999752998,1018.3433604985476,None,None,None,,,,,,,1,28,female,1,2022_May_05_0904,Partial repeat,2021.2.3,59.85916356976178,
5,3,0,1,3,2,2,2,1,0,0,1,0,0,0,0,132,132,132,1,0,1,0,,,,,,,,,1018.9679228998721,None,1019.696173099801,None,l,1,0.6012692004442215,1019.696173099801,None,None,None,,,,,,,1,28,female,1,2022_May_05_0904,Partial repeat,2021.2.3,59.85916356976178,
5,3,0,1,3,2,2,2,1,0,0,1,0,0,0,0,132,132,132,,,,,,,,,,,,,,,,,,,,,,,,,,,,,,1,28,female,1,2022_May_05_0904,Partial repeat,2021.2.3,59.85916356976178,
1,6,0,1,3,3,1,1,0,1,1,1,0,0,0,0,133,133,133,0,0,0,0,,,,,,,1020.3225910998881,None,1020.6022394988686,None,1021.4832189995795,None,l,1,0.7102273013442755,1021.4832189995795,None,None,None,,,,,,,1,28,female,1,2022_May_05_0904,Partial repeat,2021.2.3,59.85916356976178,
1,6,0,1,3,3,1,1,0,1,1,1,0,0,0,0,133,133,133,1,0,1,0,,,,,,,,,1022.214416898787,None,1023.2194782998413,None,s,1,0.4940274003893137,1023.2194782998413,None,None,None,,,,,,,1,28,female,1,2022_May_05_0904,Partial repeat,2021.2.3,59.85916356976178,
1,6,0,1,3,3,1,1,0,1,1,1,0,0,0,0,133,133,133,,,,,,,,,,,,,,,,,,,,,,,,,,,,,,1,28,female,1,2022_May_05_0904,Partial repeat,2021.2.3,59.85916356976178,
3,5,0,1,2,2,2,2,1,1,1,1,1,0,0,0,134,134,134,0,0,0,0,,,,,,,1023.740136699751,None,1024.058971999213,None,1024.8559431992471,None,l,0,0.7214956991374493,1024.8559431992471,None,1025.602488098666,None,,,,,,,1,28,female,1,2022_May_05_0904,Partial repeat,2021.2.3,59.85916356976178,
3,5,0,1,2,2,2,2,1,1,1,1,1,0,0,0,134,134,134,1,0,1,0,,,,,,,,,1026.113001799211,None,1027.0435412991792,None,s,1,0.7259035017341375,1027.0435412991792,None,None,None,,,,,,,1,28,female,1,2022_May_05_0904,Partial repeat,2021.2.3,59.85916356976178,
3,5,0,1,2,2,2,2,1,1,1,1,1,0,0,0,134,134,134,,,,,,,,,,,,,,,,,,,,,,,,,,,,,,1,28,female,1,2022_May_05_0904,Partial repeat,2021.2.3,59.85916356976178,
2,6,0,1,2,3,1,1,1,1,0,1,1,0,0,0,135,135,135,0,0,0,0,,,,,,,1027.7947664987296,None,1028.21709269844,None,1029.1643348988146,None,s,1,0.6531871985644102,1029.1643348988146,None,None,None,,,,,,,1,28,female,1,2022_May_05_0904,Partial repeat,2021.2.3,59.85916356976178,
2,6,0,1,2,3,1,1,1,1,0,1,1,0,0,0,135,135,135,1,0,1,0,,,,,,,,,1029.8260004986078,None,1030.6689002998173,None,s,1,0.7245739009231329,1030.6689002998173,None,None,None,,,,,,,1,28,female,1,2022_May_05_0904,Partial repeat,2021.2.3,59.85916356976178,
2,6,0,1,2,3,1,1,1,1,0,1,1,0,0,0,135,135,135,,,,,,,,,,,,,,,,,,,,,,,,,,,,,,1,28,female,1,2022_May_05_0904,Partial repeat,2021.2.3,59.85916356976178,
6,4,0,1,2,2,2,2,1,0,1,1,0,0,0,0,136,136,136,0,0,0,0,,,,,,,1031.4181879982352,None,1031.6570734996349,None,1032.5209570992738,None,s,1,0.5445696003735065,1032.5209570992738,None,None,None,,,,,,,1,28,female,1,2022_May_05_0904,Partial repeat,2021.2.3,59.85916356976178,
6,4,0,1,2,2,2,2,1,0,1,1,0,0,0,0,136,136,136,1,0,1,0,,,,,,,,,1033.0767790991813,None,1033.8734990991652,None,l,1,0.5599690992385149,1033.8734990991652,None,None,None,,,,,,,1,28,female,1,2022_May_05_0904,Partial repeat,2021.2.3,59.85916356976178,
6,4,0,1,2,2,2,2,1,0,1,1,0,0,0,0,136,136,136,,,,,,,,,,,,,,,,,,,,,,,,,,,,,,1,28,female,1,2022_May_05_0904,Partial repeat,2021.2.3,59.85916356976178,
6,7,0,1,2,2,1,1,1,1,1,1,1,0,0,0,137,137,137,0,0,0,0,,,,,,,1034.46016949974,None,1034.7631569989026,None,1035.6271640993655,None,s,1,0.534273998811841,1035.6271640993655,None,None,None,,,,,,,1,28,female,1,2022_May_05_0904,Partial repeat,2021.2.3,59.85916356976178,
6,7,0,1,2,2,1,1,1,1,1,1,1,0,0,0,137,137,137,1,0,1,0,,,,,,,,,1036.185355398804,None,1036.9463165998459,None,s,1,0.6631700005382299,1036.9463165998459,None,None,None,,,,,,,1,28,female,1,2022_May_05_0904,Partial repeat,2021.2.3,59.85916356976178,
6,7,0,1,2,2,1,1,1,1,1,1,1,0,0,0,137,137,137,,,,,,,,,,,,,,,,,,,,,,,,,,,,,,1,28,female,1,2022_May_05_0904,Partial repeat,2021.2.3,59.85916356976178,
5,7,0,1,3,2,2,1,0,1,0,0,0,0,0,0,138,138,138,0,0,0,0,,,,,,,1037.620344998315,None,1037.885889198631,None,1038.8498963993043,None,l,1,0.6796969007700682,1038.8498963993043,None,None,None,,,,,,,1,28,female,1,2022_May_05_0904,Partial repeat,2021.2.3,59.85916356976178,
5,7,0,1,3,2,2,1,0,1,0,0,0,0,0,0,138,138,138,1,0,1,0,,,,,,,,,1039.5384827982634,None,1040.5201129987836,None,s,1,0.4974000006914139,1040.5201129987836,None,None,None,,,,,,,1,28,female,1,2022_May_05_0904,Partial repeat,2021.2.3,59.85916356976178,
5,7,0,1,3,2,2,1,0,1,0,0,0,0,0,0,138,138,138,,,,,,,,,,,,,,,,,,,,,,,,,,,,,,1,28,female,1,2022_May_05_0904,Partial repeat,2021.2.3,59.85916356976178,
3,3,0,1,2,3,1,1,0,1,0,1,0,0,0,0,139,139,139,0,0,0,0,,,,,,,1041.042547898367,None,1041.3259119987488,None,1042.0908621996641,None,l,1,0.750577898696065,1042.0908621996641,None,None,None,,,,,,,1,28,female,1,2022_May_05_0904,Partial repeat,2021.2.3,59.85916356976178,
3,3,0,1,2,3,1,1,0,1,0,1,0,0,0,0,139,139,139,1,0,1,0,,,,,,,,,1042.8615338988602,None,1043.6427317988127,None,s,1,0.6068032998591661,1043.6427317988127,None,None,None,,,,,,,1,28,female,1,2022_May_05_0904,Partial repeat,2021.2.3,59.85916356976178,
3,3,0,1,2,3,1,1,0,1,0,1,0,0,0,0,139,139,139,,,,,,,,,,,,,,,,,,,,,,,,,,,,,,1,28,female,1,2022_May_05_0904,Partial repeat,2021.2.3,59.85916356976178,
8,2,0,1,2,2,1,2,0,1,1,0,0,0,0,0,140,140,140,0,0,0,0,,,,,,,1044.2614758983254,None,1044.5321215000004,None,1045.4794403985143,None,l,1,0.6499901004135609,1045.4794403985143,None,None,None,,,,,,,1,28,female,1,2022_May_05_0904,Partial repeat,2021.2.3,59.85916356976178,
8,2,0,1,2,2,1,2,0,1,1,0,0,0,0,0,140,140,140,1,0,1,0,,,,,,,,,1046.1466980986297,None,1046.8988543991,None,s,1,0.7505961004644632,1046.8988543991,None,None,None,,,,,,,1,28,female,1,2022_May_05_0904,Partial repeat,2021.2.3,59.85916356976178,
8,2,0,1,2,2,1,2,0,1,1,0,0,0,0,0,140,140,140,,,,,,,,,,,,,,,,,,,,,,,,,,,,,,1,28,female,1,2022_May_05_0904,Partial repeat,2021.2.3,59.85916356976178,
6,2,0,1,2,3,1,2,0,0,0,0,1,0,0,0,141,141,141,0,0,0,0,,,,,,,1047.674128299579,None,1047.9220584984869,None,1048.653260499239,None,s,0,0.5801420994102955,1048.653260499239,None,1049.2513754982501,None,,,,,,,1,28,female,1,2022_May_05_0904,Partial repeat,2021.2.3,59.85916356976178,
6,2,0,1,2,3,1,2,0,0,0,0,1,0,0,0,141,141,141,1,0,1,0,,,,,,,,,1049.758854398504,None,1050.6229013986886,None,l,1,0.6585721988230944,1050.6229013986886,None,None,None,,,,,,,1,28,female,1,2022_May_05_0904,Partial repeat,2021.2.3,59.85916356976178,
6,2,0,1,2,3,1,2,0,0,0,0,1,0,0,0,141,141,141,,,,,,,,,,,,,,,,,,,,,,,,,,,,,,1,28,female,1,2022_May_05_0904,Partial repeat,2021.2.3,59.85916356976178,
4,3,0,1,3,3,2,2,0,1,1,1,0,0,0,0,142,142,142,0,0,0,0,,,,,,,1051.311060199514,None,1051.5791945997626,None,1052.4096870999783,None,l,1,0.6237348988652229,1052.4096870999783,None,None,None,,,,,,,1,28,female,1,2022_May_05_0904,Partial repeat,2021.2.3,59.85916356976178,
4,3,0,1,3,3,2,2,0,1,1,1,0,0,0,0,142,142,142,1,0,1,0,,,,,,,,,1053.0515005998313,None,1053.7791698984802,None,s,1,0.6862889993935823,1053.7791698984802,None,None,None,,,,,,,1,28,female,1,2022_May_05_0904,Partial repeat,2021.2.3,59.85916356976178,
4,3,0,1,3,3,2,2,0,1,1,1,0,0,0,0,142,142,142,,,,,,,,,,,,,,,,,,,,,,,,,,,,,,1,28,female,1,2022_May_05_0904,Partial repeat,2021.2.3,59.85916356976178,
1,8,0,1,3,3,1,2,1,1,1,0,1,0,0,0,143,143,143,0,0,0,0,,,,,,,1054.4865289982408,None,1054.735251698643,None,1055.4656677991152,None,s,1,0.8717259000986814,1055.4656677991152,None,None,None,,,,,,,1,28,female,1,2022_May_05_0904,Partial repeat,2021.2.3,59.85916356976178,
1,8,0,1,3,3,1,2,1,1,1,0,1,0,0,0,143,143,143,1,0,1,0,,,,,,,,,1056.3603354990482,None,1057.3191949985921,None,s,1,0.6343710012733936,1057.3191949985921,None,None,None,,,,,,,1,28,female,1,2022_May_05_0904,Partial repeat,2021.2.3,59.85916356976178,
1,8,0,1,3,3,1,2,1,1,1,0,1,0,0,0,143,143,143,,,,,,,,,,,,,,,,,,,,,,,,,,,,,,1,28,female,1,2022_May_05_0904,Partial repeat,2021.2.3,59.85916356976178,
1,2,0,1,3,2,2,1,1,1,0,0,1,0,0,0,144,144,144,0,0,0,0,,,,,,,1057.9668695982546,None,1058.2421631999314,None,1059.072785899043,None,s,1,0.7206760998815298,1059.072785899043,None,None,None,,,,,,,1,28,female,1,2022_May_05_0904,Partial repeat,2021.2.3,59.85916356976178,
1,2,0,1,3,2,2,1,1,1,0,0,1,0,0,0,144,144,144,1,0,1,0,,,,,,,,,1059.8078441992402,None,1060.5420358981937,None,s,1,0.7314226999878883,1060.5420358981937,None,None,None,,,,,,,1,28,female,1,2022_May_05_0904,Partial repeat,2021.2.3,59.85916356976178,
1,2,0,1,3,2,2,1,1,1,0,0,1,0,0,0,144,144,144,,,,,,,,,,,,,,,,,,,,,,,,,,,,,,1,28,female,1,2022_May_05_0904,Partial repeat,2021.2.3,59.85916356976178,
4,2,0,1,2,2,1,1,1,0,1,1,0,0,0,0,145,145,145,0,0,0,0,,,,,,,1061.2932357992977,None,1061.5650158990175,None,1062.3960573989898,None,s,1,0.7253620009869337,1062.3960573989898,None,None,None,,,,,,,1,28,female,1,2022_May_05_0904,Partial repeat,2021.2.3,59.85916356976178,
4,2,0,1,2,2,1,1,1,0,1,1,0,0,0,0,145,145,145,1,0,1,0,,,,,,,,,1063.1338968984783,None,1064.0490032993257,None,l,1,0.536498200148344,1064.0490032993257,None,None,None,,,,,,,1,28,female,1,2022_May_05_0904,Partial repeat,2021.2.3,59.85916356976178,
4,2,0,1,2,2,1,1,1,0,1,1,0,0,0,0,145,145,145,,,,,,,,,,,,,,,,,,,,,,,,,,,,,,1,28,female,1,2022_May_05_0904,Partial repeat,2021.2.3,59.85916356976178,
2,3,0,1,2,2,1,2,0,0,1,0,1,0,0,0,146,146,146,0,0,0,0,,,,,,,1064.6101625990123,None,1064.9218213986605,None,1065.6525107994676,None,l,1,0.8209438994526863,1065.6525107994676,None,None,None,,,,,,,1,28,female,1,2022_May_05_0904,Partial repeat,2021.2.3,59.85916356976178,
2,3,0,1,2,2,1,2,0,0,1,0,1,0,0,0,146,146,146,1,0,1,0,,,,,,,,,1066.4912677984685,None,1067.4056956991553,None,l,1,0.6197587996721268,1067.4056956991553,None,None,None,,,,,,,1,28,female,1,2022_May_05_0904,Partial repeat,2021.2.3,59.85916356976178,
2,3,0,1,2,2,1,2,0,0,1,0,1,0,0,0,146,146,146,,,,,,,,,,,,,,,,,,,,,,,,,,,,,,1,28,female,1,2022_May_05_0904,Partial repeat,2021.2.3,59.85916356976178,
7,8,0,1,3,3,2,2,0,0,1,1,1,0,0,0,147,147,147,0,0,0,0,,,,,,,1068.0523715987802,None,1068.3451128993183,None,1069.2436174992472,None,l,1,0.7337998989969492,1069.2436174992472,None,None,None,,,,,,,1,28,female,1,2022_May_05_0904,Partial repeat,2021.2.3,59.85916356976178,
7,8,0,1,3,3,2,2,0,0,1,1,1,0,0,0,147,147,147,1,0,1,0,,,,,,,,,1069.9905828982592,None,1070.7450111992657,None,l,1,0.5604416001588106,1070.7450111992657,None,None,None,,,,,,,1,28,female,1,2022_May_05_0904,Partial repeat,2021.2.3,59.85916356976178,
7,8,0,1,3,3,2,2,0,0,1,1,1,0,0,0,147,147,147,,,,,,,,,,,,,,,,,,,,,,,,,,,,,,1,28,female,1,2022_May_05_0904,Partial repeat,2021.2.3,59.85916356976178,
2,2,0,1,3,2,1,2,1,1,0,0,1,0,0,0,148,148,148,0,0,0,0,,,,,,,1071.3292313981801,None,1071.6348879989237,None,1072.4487316999584,None,s,1,0.6247201003134251,1072.4487316999584,None,None,None,,,,,,,1,28,female,1,2022_May_05_0904,Partial repeat,2021.2.3,59.85916356976178,
2,2,0,1,3,2,1,2,1,1,0,0,1,0,0,0,148,148,148,1,0,1,0,,,,,,,,,1073.0887345988303,None,1073.8846328984946,None,s,1,0.7728169988840818,1073.8846328984946,None,None,None,,,,,,,1,28,female,1,2022_May_05_0904,Partial repeat,2021.2.3,59.85916356976178,
2,2,0,1,3,2,1,2,1,1,0,0,1,0,0,0,148,148,148,,,,,,,,,,,,,,,,,,,,,,,,,,,,,,1,28,female,1,2022_May_05_0904,Partial repeat,2021.2.3,59.85916356976178,
7,3,0,1,2,3,2,2,1,1,0,1,1,0,0,0,149,149,149,0,0,0,0,,,,,,,1074.6748483981937,None,1074.9079169984907,None,1075.7889615986496,None,s,1,0.7645373996347189,1075.7889615986496,None,None,None,,,,,,,1,28,female,1,2022_May_05_0904,Partial repeat,2021.2.3,59.85916356976178,
7,3,0,1,2,3,2,2,1,1,0,1,1,0,0,0,149,149,149,1,0,1,0,,,,,,,,,1076.5781419984996,None,1077.5752969998866,None,s,1,0.6661326996982098,1077.5752969998866,None,None,None,,,,,,,1,28,female,1,2022_May_05_0904,Partial repeat,2021.2.3,59.85916356976178,
7,3,0,1,2,3,2,2,1,1,0,1,1,0,0,0,149,149,149,,,,,,,,,,,,,,,,,,,,,,,,,,,,,,1,28,female,1,2022_May_05_0904,Partial repeat,2021.2.3,59.85916356976178,
5,5,0,1,2,3,2,1,1,0,0,0,0,0,0,0,150,150,150,0,0,0,0,,,,,,,1078.2637682985514,None,1078.4982782993466,None,1079.2619806993753,None,s,1,0.7074246015399694,1079.2619806993753,None,None,None,,,,,,,1,28,female,1,2022_May_05_0904,Partial repeat,2021.2.3,59.85916356976178,
5,5,0,1,2,3,2,1,1,0,0,0,0,0,0,0,150,150,150,1,0,1,0,,,,,,,,,1079.9896333999932,None,1080.9653221983463,None,l,1,0.6040869988501072,1080.9653221983463,None,None,None,,,,,,,1,28,female,1,2022_May_05_0904,Partial repeat,2021.2.3,59.85916356976178,
5,5,0,1,2,3,2,1,1,0,0,0,0,0,0,0,150,150,150,,,,,,,,,,,,,,,,,,,,,,,,,,,,,,1,28,female,1,2022_May_05_0904,Partial repeat,2021.2.3,59.85916356976178,
1,4,0,1,3,3,2,1,0,0,1,0,1,0,0,0,151,151,151,0,0,0,0,,,,,,,1081.5909067988396,None,1081.8547615986317,None,1082.6683205999434,None,l,1,0.7331216987222433,1082.6683205999434,None,None,None,,,,,,,1,28,female,1,2022_May_05_0904,Partial repeat,2021.2.3,59.85916356976178,
1,4,0,1,3,3,2,1,0,0,1,0,1,0,0,0,151,151,151,1,0,1,0,,,,,,,,,1083.416020900011,None,1084.3553055990487,None,l,1,0.6861042007803917,1084.3553055990487,None,None,None,,,,,,,1,28,female,1,2022_May_05_0904,Partial repeat,2021.2.3,59.85916356976178,
1,4,0,1,3,3,2,1,0,0,1,0,1,0,0,0,151,151,151,,,,,,,,,,,,,,,,,,,,,,,,,,,,,,1,28,female,1,2022_May_05_0904,Partial repeat,2021.2.3,59.85916356976178,
3,1,0,1,2,3,2,2,0,0,0,1,1,0,0,0,152,152,152,0,0,0,0,,,,,,,1085.0681915991008,None,1085.3949637990445,None,1086.2419766988605,None,l,1,0.6394370999187231,1086.2419766988605,None,None,None,,,,,,,1,28,female,1,2022_May_05_0904,Partial repeat,2021.2.3,59.85916356976178,
3,1,0,1,2,3,2,2,0,0,0,1,1,0,0,0,152,152,152,1,0,1,0,,,,,,,,,1086.9034695997834,None,1087.6947972998023,None,l,1,0.5626464001834393,1087.6947972998023,None,None,None,,,,,,,1,28,female,1,2022_May_05_0904,Partial repeat,2021.2.3,59.85916356976178,
