prime_tar_pos,probe_tar_pos,dimension,tar_color,prime_dist_color,probe_dist_color,prime_dist_shape,probe_dist_shape,prime_tar_dot_pos,probe_tar_dot_pos,col_rep,shape_rep,resp_rep,pos_fixed,sparse,MainLoop.thisRepN,MainLoop.thisTrialN,MainLoop.thisN,MainLoop.thisIndex,PrimeProbe.thisRepN,PrimeProbe.thisTrialN,PrimeProbe.thisN,PrimeProbe.thisIndex,Instruction.started,Instruction.stopped,instruction_key.keys,instruction_key.rt,instruction_key.started,instruction_key.stopped,PairStartText.started,PairStartText.stopped,FixCross.started,FixCross.stopped,SearchFixCross.started,SearchFixCross.stopped,key_resp.keys,key_resp.corr,key_resp.rt,key_resp.started,key_resp.stopped,feedback_text.started,feedback_text.stopped,text_finish.started,text_finish.stopped,finish_key.keys,finish_key.rt,finish_key.started,finish_key.stopped,participant,age,gender,group,date,expName,psychopyVersion,frameRate,
,,,,,,,,,,,,,,,,,,,,,,,359.1999578010291,None,space,47.76907790079713,359.1999578010291,None,,,,,,,,,,,,,,,,,,,,20,19,male,20,2022_May_10_1411,Partial repeat,2021.2.3,59.85400428316565,
8,8,0,1,2,2,2,1,1,0,1,0,0,1,0,0,0,0,0,0,0,0,0,,,,,,,407.09189430065453,None,411.1797452997416,None,412.0812184009701,None,s,1,2.0395504999905825,412.0812184009701,None,None,None,,,,,,,20,19,male,20,2022_May_10_1411,Partial repeat,2021.2.3,59.85400428316565,
8,8,0,1,2,2,2,1,1,0,1,0,0,1,0,0,0,0,0,1,0,1,0,,,,,,,,,414.1349146012217,None,414.98274170048535,None,l,1,0.6100260000675917,414.98274170048535,None,None,None,,,,,,,20,19,male,20,2022_May_10_1411,Partial repeat,2021.2.3,59.85400428316565,
8,8,0,1,2,2,2,1,1,0,1,0,0,1,0,0,0,0,0,,,,,,,,,,,,,,,,,,,,,,,,,,,,,,20,19,male,20,2022_May_10_1411,Partial repeat,2021.2.3,59.85400428316565,
8,8,0,1,2,2,1,2,1,1,1,0,1,1,0,0,1,1,1,0,0,0,0,,,,,,,415.61347460001707,None,417.95968740060925,None,418.87395009957254,None,s,1,0.6548206992447376,418.87395009957254,None,None,None,,,,,,,20,19,male,20,2022_May_10_1411,Partial repeat,2021.2.3,59.85400428316565,
8,8,0,1,2,2,1,2,1,1,1,0,1,1,0,0,1,1,1,1,0,1,0,,,,,,,,,419.54107940010726,None,420.49432410113513,None,s,1,0.5464529991149902,420.49432410113513,None,None,None,,,,,,,20,19,male,20,2022_May_10_1411,Partial repeat,2021.2.3,59.85400428316565,
8,8,0,1,2,2,1,2,1,1,1,0,1,1,0,0,1,1,1,,,,,,,,,,,,,,,,,,,,,,,,,,,,,,20,19,male,20,2022_May_10_1411,Partial repeat,2021.2.3,59.85400428316565,
8,8,0,1,3,2,1,1,1,1,0,1,1,1,0,0,2,2,2,0,0,0,0,,,,,,,421.0627306010574,None,423.2199604008347,None,424.1671927999705,None,s,1,0.5696847010403872,424.1671927999705,None,None,None,,,,,,,20,19,male,20,2022_May_10_1411,Partial repeat,2021.2.3,59.85400428316565,
8,8,0,1,3,2,1,1,1,1,0,1,1,1,0,0,2,2,2,1,0,1,0,,,,,,,,,424.74885690025985,None,425.5366318002343,None,s,1,0.576172299683094,425.5366318002343,None,None,None,,,,,,,20,19,male,20,2022_May_10_1411,Partial repeat,2021.2.3,59.85400428316565,
8,8,0,1,3,2,1,1,1,1,0,1,1,1,0,0,2,2,2,,,,,,,,,,,,,,,,,,,,,,,,,,,,,,20,19,male,20,2022_May_10_1411,Partial repeat,2021.2.3,59.85400428316565,
8,8,0,1,3,3,1,2,1,1,1,0,1,1,0,0,3,3,3,0,0,0,0,,,,,,,426.12642670050263,None,430.16679980047047,None,431.13117210008204,None,s,1,0.6535544991493225,431.13117210008204,None,None,None,,,,,,,20,19,male,20,2022_May_10_1411,Partial repeat,2021.2.3,59.85400428316565,
8,8,0,1,3,3,1,2,1,1,1,0,1,1,0,0,3,3,3,1,0,1,0,,,,,,,,,431.7977946996689,None,432.55060310103,None,s,1,0.48214929923415184,432.55060310103,None,None,None,,,,,,,20,19,male,20,2022_May_10_1411,Partial repeat,2021.2.3,59.85400428316565,
8,8,0,1,3,3,1,2,1,1,1,0,1,1,0,0,3,3,3,,,,,,,,,,,,,,,,,,,,,,,,,,,,,,20,19,male,20,2022_May_10_1411,Partial repeat,2021.2.3,59.85400428316565,
8,8,0,1,2,2,2,2,0,1,1,1,0,1,0,0,4,4,4,0,0,0,0,,,,,,,433.0564667005092,None,435.7275958005339,None,436.5247387010604,None,l,1,0.6120139993727207,436.5247387010604,None,None,None,,,,,,,20,19,male,20,2022_May_10_1411,Partial repeat,2021.2.3,59.85400428316565,
8,8,0,1,2,2,2,2,0,1,1,1,0,1,0,0,4,4,4,1,0,1,0,,,,,,,,,437.1494824010879,None,438.01100940071046,None,s,1,0.5578661002218723,438.01100940071046,None,None,None,,,,,,,20,19,male,20,2022_May_10_1411,Partial repeat,2021.2.3,59.85400428316565,
8,8,0,1,2,2,2,2,0,1,1,1,0,1,0,0,4,4,4,,,,,,,,,,,,,,,,,,,,,,,,,,,,,,20,19,male,20,2022_May_10_1411,Partial repeat,2021.2.3,59.85400428316565,
8,8,0,1,2,2,2,2,0,0,1,1,1,1,0,0,5,5,5,0,0,0,0,,,,,,,438.5792252011597,None,439.31793580017984,None,440.2653985004872,None,l,1,0.6073519997298717,440.2653985004872,None,None,None,,,,,,,20,19,male,20,2022_May_10_1411,Partial repeat,2021.2.3,59.85400428316565,
8,8,0,1,2,2,2,2,0,0,1,1,1,1,0,0,5,5,5,1,0,1,0,,,,,,,,,440.89284400083125,None,441.8350483998656,None,l,1,0.3417347986251116,441.8350483998656,None,None,None,,,,,,,20,19,male,20,2022_May_10_1411,Partial repeat,2021.2.3,59.85400428316565,
8,8,0,1,2,2,2,2,0,0,1,1,1,1,0,0,5,5,5,,,,,,,,,,,,,,,,,,,,,,,,,,,,,,20,19,male,20,2022_May_10_1411,Partial repeat,2021.2.3,59.85400428316565,
8,8,0,1,3,2,1,1,0,1,0,1,0,1,0,0,6,6,6,0,0,0,0,,,,,,,442.1884773001075,None,442.8080634996295,None,443.5719981007278,None,l,1,0.5007032994180918,443.5719981007278,None,None,None,,,,,,,20,19,male,20,2022_May_10_1411,Partial repeat,2021.2.3,59.85400428316565,
8,8,0,1,3,2,1,1,0,1,0,1,0,1,0,0,6,6,6,1,0,1,0,,,,,,,,,444.09604180045426,None,445.0586713012308,None,s,1,0.5101143009960651,445.0586713012308,None,None,None,,,,,,,20,19,male,20,2022_May_10_1411,Partial repeat,2021.2.3,59.85400428316565,
8,8,0,1,3,2,1,1,0,1,0,1,0,1,0,0,6,6,6,,,,,,,,,,,,,,,,,,,,,,,,,,,,,,20,19,male,20,2022_May_10_1411,Partial repeat,2021.2.3,59.85400428316565,
8,8,0,1,2,2,1,1,0,1,1,1,0,1,0,0,7,7,7,0,0,0,0,,,,,,,445.5823813006282,None,446.08081169985235,None,446.94486689940095,None,l,1,0.455875800922513,446.94486689940095,None,None,None,,,,,,,20,19,male,20,2022_May_10_1411,Partial repeat,2021.2.3,59.85400428316565,
8,8,0,1,2,2,1,1,0,1,1,1,0,1,0,0,7,7,7,1,0,1,0,,,,,,,,,447.417111100629,None,448.2378035001457,None,s,1,0.36289059929549694,448.2378035001457,None,None,None,,,,,,,20,19,male,20,2022_May_10_1411,Partial repeat,2021.2.3,59.85400428316565,
8,8,0,1,2,2,1,1,0,1,1,1,0,1,0,0,7,7,7,,,,,,,,,,,,,,,,,,,,,,,,,,,,,,20,19,male,20,2022_May_10_1411,Partial repeat,2021.2.3,59.85400428316565,
8,8,0,1,2,2,1,1,1,0,1,1,0,1,0,0,8,8,8,0,0,0,0,,,,,,,448.6147192995995,None,449.0534665007144,None,449.98438350111246,None,s,1,0.4884721990674734,449.98438350111246,None,None,None,,,,,,,20,19,male,20,2022_May_10_1411,Partial repeat,2021.2.3,59.85400428316565,
8,8,0,1,2,2,1,1,1,0,1,1,0,1,0,0,8,8,8,1,0,1,0,,,,,,,,,450.4818927999586,None,451.42056440003216,None,s,0,0.388120599091053,451.42056440003216,None,451.8219981007278,None,,,,,,,20,19,male,20,2022_May_10_1411,Partial repeat,2021.2.3,59.85400428316565,
8,8,0,1,2,2,1,1,1,0,1,1,0,1,0,0,8,8,8,,,,,,,,,,,,,,,,,,,,,,,,,,,,,,20,19,male,20,2022_May_10_1411,Partial repeat,2021.2.3,59.85400428316565,
8,8,0,1,2,3,2,1,0,1,0,0,0,1,0,0,9,9,9,0,0,0,0,,,,,,,452.3262988012284,None,453.02766690030694,None,453.7584429997951,None,l,1,0.5062512997537851,453.7584429997951,None,None,None,,,,,,,20,19,male,20,2022_May_10_1411,Partial repeat,2021.2.3,59.85400428316565,
8,8,0,1,2,3,2,1,0,1,0,0,0,1,0,0,9,9,9,1,0,1,0,,,,,,,,,454.2914982009679,None,455.1128938011825,None,s,1,0.35979499854147434,455.1128938011825,None,None,None,,,,,,,20,19,male,20,2022_May_10_1411,Partial repeat,2021.2.3,59.85400428316565,
8,8,0,1,2,3,2,1,0,1,0,0,0,1,0,0,9,9,9,,,,,,,,,,,,,,,,,,,,,,,,,,,,,,20,19,male,20,2022_May_10_1411,Partial repeat,2021.2.3,59.85400428316565,
8,8,0,1,2,2,1,2,1,0,1,0,0,1,0,0,10,10,10,0,0,0,0,,,,,,,455.490058099851,None,455.84983850084245,None,456.6474649012089,None,s,1,0.4012586008757353,456.6474649012089,None,None,None,,,,,,,20,19,male,20,2022_May_10_1411,Partial repeat,2021.2.3,59.85400428316565,
8,8,0,1,2,2,1,2,1,0,1,0,0,1,0,0,10,10,10,1,0,1,0,,,,,,,,,457.0631593000144,None,457.8168959002942,None,l,1,0.4478438999503851,457.8168959002942,None,None,None,,,,,,,20,19,male,20,2022_May_10_1411,Partial repeat,2021.2.3,59.85400428316565,
8,8,0,1,2,2,1,2,1,0,1,0,0,1,0,0,10,10,10,,,,,,,,,,,,,,,,,,,,,,,,,,,,,,20,19,male,20,2022_May_10_1411,Partial repeat,2021.2.3,59.85400428316565,
8,8,0,1,3,2,2,1,0,1,0,0,0,1,0,0,11,11,11,0,0,0,0,,,,,,,458.27797039970756,None,458.75549310073256,None,459.5861648004502,None,l,1,0.5905789993703365,459.5861648004502,None,None,None,,,,,,,20,19,male,20,2022_May_10_1411,Partial repeat,2021.2.3,59.85400428316565,
8,8,0,1,3,2,2,1,0,1,0,0,0,1,0,0,11,11,11,1,0,1,0,,,,,,,,,460.1985493004322,None,461.1890105996281,None,s,1,0.36369210109114647,461.1890105996281,None,None,None,,,,,,,20,19,male,20,2022_May_10_1411,Partial repeat,2021.2.3,59.85400428316565,
8,8,0,1,3,2,2,1,0,1,0,0,0,1,0,0,11,11,11,,,,,,,,,,,,,,,,,,,,,,,,,,,,,,20,19,male,20,2022_May_10_1411,Partial repeat,2021.2.3,59.85400428316565,
8,8,0,1,2,3,1,2,0,0,0,0,1,1,0,0,12,12,12,0,0,0,0,,,,,,,461.5744937006384,None,461.91157590039074,None,462.7448376007378,None,l,1,0.4639392998069525,462.7448376007378,None,None,None,,,,,,,20,19,male,20,2022_May_10_1411,Partial repeat,2021.2.3,59.85400428316565,
8,8,0,1,2,3,1,2,0,0,0,0,1,1,0,0,12,12,12,1,0,1,0,,,,,,,,,463.2201816998422,None,464.06149430014193,None,l,1,0.37925069965422153,464.06149430014193,None,None,None,,,,,,,20,19,male,20,2022_May_10_1411,Partial repeat,2021.2.3,59.85400428316565,
8,8,0,1,2,3,1,2,0,0,0,0,1,1,0,0,12,12,12,,,,,,,,,,,,,,,,,,,,,,,,,,,,,,20,19,male,20,2022_May_10_1411,Partial repeat,2021.2.3,59.85400428316565,
8,8,0,1,3,2,1,2,0,0,0,0,1,1,0,0,13,13,13,0,0,0,0,,,,,,,464.4516819007695,None,464.68361210078,None,465.5478486996144,None,l,1,0.4208781998604536,465.5478486996144,None,None,None,,,,,,,20,19,male,20,2022_May_10_1411,Partial repeat,2021.2.3,59.85400428316565,
8,8,0,1,3,2,1,2,0,0,0,0,1,1,0,0,13,13,13,1,0,1,0,,,,,,,,,465.98216930031776,None,466.78432730026543,None,l,1,0.3203966002911329,466.78432730026543,None,None,None,,,,,,,20,19,male,20,2022_May_10_1411,Partial repeat,2021.2.3,59.85400428316565,
8,8,0,1,3,2,1,2,0,0,0,0,1,1,0,0,13,13,13,,,,,,,,,,,,,,,,,,,,,,,,,,,,,,20,19,male,20,2022_May_10_1411,Partial repeat,2021.2.3,59.85400428316565,
8,8,0,1,3,3,1,2,0,1,1,0,0,1,0,0,14,14,14,0,0,0,0,,,,,,,467.1164478994906,None,467.3224128000438,None,468.2864469010383,None,l,1,0.41829740069806576,468.2864469010383,None,None,None,,,,,,,20,19,male,20,2022_May_10_1411,Partial repeat,2021.2.3,59.85400428316565,
8,8,0,1,3,3,1,2,0,1,1,0,0,1,0,0,14,14,14,1,0,1,0,,,,,,,,,468.7204452008009,None,469.4890513010323,None,s,1,0.34376700036227703,469.4890513010323,None,None,None,,,,,,,20,19,male,20,2022_May_10_1411,Partial repeat,2021.2.3,59.85400428316565,
8,8,0,1,3,3,1,2,0,1,1,0,0,1,0,0,14,14,14,,,,,,,,,,,,,,,,,,,,,,,,,,,,,,20,19,male,20,2022_May_10_1411,Partial repeat,2021.2.3,59.85400428316565,
8,8,0,1,2,2,2,2,1,1,1,1,1,1,0,0,15,15,15,0,0,0,0,,,,,,,469.84563970007,None,470.06091810017824,None,470.99158390052617,None,s,1,0.4571561999619007,470.99158390052617,None,None,None,,,,,,,20,19,male,20,2022_May_10_1411,Partial repeat,2021.2.3,59.85400428316565,
8,8,0,1,2,2,2,2,1,1,1,1,1,1,0,0,15,15,15,1,0,1,0,,,,,,,,,471.46860020048916,None,472.4444877002388,None,s,1,0.35628250055015087,472.4444877002388,None,None,None,,,,,,,20,19,male,20,2022_May_10_1411,Partial repeat,2021.2.3,59.85400428316565,
8,8,0,1,2,2,2,2,1,1,1,1,1,1,0,0,15,15,15,,,,,,,,,,,,,,,,,,,,,,,,,,,,,,20,19,male,20,2022_May_10_1411,Partial repeat,2021.2.3,59.85400428316565,
8,8,0,1,3,3,2,2,0,1,1,1,0,1,0,0,16,16,16,0,0,0,0,,,,,,,472.8196748998016,None,473.0168402995914,None,473.7470105011016,None,l,1,0.5337533000856638,473.7470105011016,None,None,None,,,,,,,20,19,male,20,2022_May_10_1411,Partial repeat,2021.2.3,59.85400428316565,
8,8,0,1,3,3,2,2,0,1,1,1,0,1,0,0,16,16,16,1,0,1,0,,,,,,,,,474.28949069976807,None,475.2338220011443,None,s,1,0.34290190041065216,475.2338220011443,None,None,None,,,,,,,20,19,male,20,2022_May_10_1411,Partial repeat,2021.2.3,59.85400428316565,
8,8,0,1,3,3,2,2,0,1,1,1,0,1,0,0,16,16,16,,,,,,,,,,,,,,,,,,,,,,,,,,,,,,20,19,male,20,2022_May_10_1411,Partial repeat,2021.2.3,59.85400428316565,
8,8,0,1,2,3,1,1,1,1,0,1,1,1,0,0,17,17,17,0,0,0,0,,,,,,,475.58762419968843,None,475.788893699646,None,476.68612330034375,None,s,1,0.45864279940724373,476.68612330034375,None,None,None,,,,,,,20,19,male,20,2022_May_10_1411,Partial repeat,2021.2.3,59.85400428316565,
8,8,0,1,2,3,1,1,1,1,0,1,1,1,0,0,17,17,17,1,0,1,0,,,,,,,,,477.16544209979475,None,478.0554667003453,None,s,1,0.3853234015405178,478.0554667003453,None,None,None,,,,,,,20,19,male,20,2022_May_10_1411,Partial repeat,2021.2.3,59.85400428316565,
8,8,0,1,2,3,1,1,1,1,0,1,1,1,0,0,17,17,17,,,,,,,,,,,,,,,,,,,,,,,,,,,,,,20,19,male,20,2022_May_10_1411,Partial repeat,2021.2.3,59.85400428316565,
8,8,0,1,3,3,2,2,1,1,1,1,1,1,0,0,18,18,18,0,0,0,0,,,,,,,478.4706132002175,None,478.6110414005816,None,479.5419750995934,None,s,1,0.4987644013017416,479.5419750995934,None,None,None,,,,,,,20,19,male,20,2022_May_10_1411,Partial repeat,2021.2.3,59.85400428316565,
8,8,0,1,3,3,2,2,1,1,1,1,1,1,0,0,18,18,18,1,0,1,0,,,,,,,,,480.05950989946723,None,480.84444970078766,None,s,1,0.4202830996364355,480.84444970078766,None,None,None,,,,,,,20,19,male,20,2022_May_10_1411,Partial repeat,2021.2.3,59.85400428316565,
8,8,0,1,3,3,2,2,1,1,1,1,1,1,0,0,18,18,18,,,,,,,,,,,,,,,,,,,,,,,,,,,,,,20,19,male,20,2022_May_10_1411,Partial repeat,2021.2.3,59.85400428316565,
8,8,0,1,3,2,1,1,0,0,0,1,1,1,0,0,19,19,19,0,0,0,0,,,,,,,481.2819228004664,None,481.499811001122,None,482.41392279975116,None,l,1,0.46689159981906414,482.41392279975116,None,None,None,,,,,,,20,19,male,20,2022_May_10_1411,Partial repeat,2021.2.3,59.85400428316565,
8,8,0,1,3,2,1,1,0,0,0,1,1,1,0,0,19,19,19,1,0,1,0,,,,,,,,,482.8914407994598,None,483.8339780997485,None,l,1,0.35884130001068115,483.8339780997485,None,None,None,,,,,,,20,19,male,20,2022_May_10_1411,Partial repeat,2021.2.3,59.85400428316565,
8,8,0,1,3,2,1,1,0,0,0,1,1,1,0,0,19,19,19,,,,,,,,,,,,,,,,,,,,,,,,,,,,,,20,19,male,20,2022_May_10_1411,Partial repeat,2021.2.3,59.85400428316565,
8,8,0,1,2,3,1,1,0,0,0,1,1,1,0,0,20,20,20,0,0,0,0,,,,,,,484.2054421007633,None,484.4056123998016,None,485.2529454007745,None,l,1,0.5317909996956587,485.2529454007745,None,None,None,,,,,,,20,19,male,20,2022_May_10_1411,Partial repeat,2021.2.3,59.85400428316565,
8,8,0,1,2,3,1,1,0,0,0,1,1,1,0,0,20,20,20,1,0,1,0,,,,,,,,,485.79992729984224,None,486.78942549973726,None,l,1,0.4193011987954378,486.78942549973726,None,None,None,,,,,,,20,19,male,20,2022_May_10_1411,Partial repeat,2021.2.3,59.85400428316565,
8,8,0,1,2,3,1,1,0,0,0,1,1,1,0,0,20,20,20,,,,,,,,,,,,,,,,,,,,,,,,,,,,,,20,19,male,20,2022_May_10_1411,Partial repeat,2021.2.3,59.85400428316565,
8,8,0,1,3,2,1,1,1,0,0,1,0,1,0,0,21,21,21,0,0,0,0,,,,,,,487.2257775012404,None,487.42821170017123,None,488.2587703000754,None,s,1,0.4379909001290798,488.2587703000754,None,None,None,,,,,,,20,19,male,20,2022_May_10_1411,Partial repeat,2021.2.3,59.85400428316565,
8,8,0,1,3,2,1,1,1,0,0,1,0,1,0,0,21,21,21,1,0,1,0,,,,,,,,,488.71504919975996,None,489.5287123005837,None,l,1,0.5440039988607168,489.5287123005837,None,None,None,,,,,,,20,19,male,20,2022_May_10_1411,Partial repeat,2021.2.3,59.85400428316565,
8,8,0,1,3,2,1,1,1,0,0,1,0,1,0,0,21,21,21,,,,,,,,,,,,,,,,,,,,,,,,,,,,,,20,19,male,20,2022_May_10_1411,Partial repeat,2021.2.3,59.85400428316565,
8,8,0,1,3,3,1,2,1,0,1,0,0,1,0,0,22,22,22,0,0,0,0,,,,,,,490.09528389945626,None,490.30040249973536,None,491.2812776006758,None,s,1,0.3994475994259119,491.2812776006758,None,None,None,,,,,,,20,19,male,20,2022_May_10_1411,Partial repeat,2021.2.3,59.85400428316565,
8,8,0,1,3,3,1,2,1,0,1,0,0,1,0,0,22,22,22,1,0,1,0,,,,,,,,,491.6921028997749,None,492.5169479995966,None,l,1,0.35578390024602413,492.5169479995966,None,None,None,,,,,,,20,19,male,20,2022_May_10_1411,Partial repeat,2021.2.3,59.85400428316565,
8,8,0,1,3,3,1,2,1,0,1,0,0,1,0,0,22,22,22,,,,,,,,,,,,,,,,,,,,,,,,,,,,,,20,19,male,20,2022_May_10_1411,Partial repeat,2021.2.3,59.85400428316565,
8,8,0,1,2,3,1,1,1,0,0,1,0,1,0,0,23,23,23,0,0,0,0,,,,,,,492.8929098006338,None,493.10589140094817,None,493.9363407995552,None,s,1,0.41637369990348816,493.9363407995552,None,None,None,,,,,,,20,19,male,20,2022_May_10_1411,Partial repeat,2021.2.3,59.85400428316565,
8,8,0,1,2,3,1,1,1,0,0,1,0,1,0,0,23,23,23,1,0,1,0,,,,,,,,,494.36754960007966,None,495.33910590037704,None,l,1,0.3256235998123884,495.33910590037704,None,None,None,,,,,,,20,19,male,20,2022_May_10_1411,Partial repeat,2021.2.3,59.85400428316565,
8,8,0,1,2,3,1,1,1,0,0,1,0,1,0,0,23,23,23,,,,,,,,,,,,,,,,,,,,,,,,,,,,,,20,19,male,20,2022_May_10_1411,Partial repeat,2021.2.3,59.85400428316565,
8,8,0,1,3,3,2,1,0,1,1,0,0,1,0,0,24,24,24,0,0,0,0,,,,,,,495.69108729995787,None,495.8946490008384,None,496.7252629008144,None,l,1,0.4674688000231981,496.7252629008144,None,None,None,,,,,,,20,19,male,20,2022_May_10_1411,Partial repeat,2021.2.3,59.85400428316565,
8,8,0,1,3,3,2,1,0,1,1,0,0,1,0,0,24,24,24,1,0,1,0,,,,,,,,,497.2211410012096,None,498.1444618999958,None,s,1,0.4082670006901026,498.1444618999958,None,None,None,,,,,,,20,19,male,20,2022_May_10_1411,Partial repeat,2021.2.3,59.85400428316565,
8,8,0,1,3,3,2,1,0,1,1,0,0,1,0,0,24,24,24,,,,,,,,,,,,,,,,,,,,,,,,,,,,,,20,19,male,20,2022_May_10_1411,Partial repeat,2021.2.3,59.85400428316565,
8,8,0,1,3,2,2,1,1,1,0,0,1,1,0,0,25,25,25,0,0,0,0,,,,,,,498.57965120114386,None,498.9840165004134,None,499.91466350108385,None,s,1,0.44603290036320686,499.91466350108385,None,None,None,,,,,,,20,19,male,20,2022_May_10_1411,Partial repeat,2021.2.3,59.85400428316565,
8,8,0,1,3,2,2,1,1,1,0,0,1,1,0,0,25,25,25,1,0,1,0,,,,,,,,,500.37371020019054,None,501.2169727999717,None,s,1,0.39974259957671165,501.2169727999717,None,None,None,,,,,,,20,19,male,20,2022_May_10_1411,Partial repeat,2021.2.3,59.85400428316565,
8,8,0,1,3,2,2,1,1,1,0,0,1,1,0,0,25,25,25,,,,,,,,,,,,,,,,,,,,,,,,,,,,,,20,19,male,20,2022_May_10_1411,Partial repeat,2021.2.3,59.85400428316565,
8,8,0,1,3,2,1,2,1,0,0,0,0,1,0,0,26,26,26,0,0,0,0,,,,,,,501.6345863994211,None,501.88961560092866,None,502.78706610016525,None,s,1,0.5098084006458521,502.78706610016525,None,None,None,,,,,,,20,19,male,20,2022_May_10_1411,Partial repeat,2021.2.3,59.85400428316565,
8,8,0,1,3,2,1,2,1,0,0,0,0,1,0,0,26,26,26,1,0,1,0,,,,,,,,,503.3249386008829,None,504.18973509967327,None,l,1,0.3789958003908396,504.18973509967327,None,None,None,,,,,,,20,19,male,20,2022_May_10_1411,Partial repeat,2021.2.3,59.85400428316565,
8,8,0,1,3,2,1,2,1,0,0,0,0,1,0,0,26,26,26,,,,,,,,,,,,,,,,,,,,,,,,,,,,,,20,19,male,20,2022_May_10_1411,Partial repeat,2021.2.3,59.85400428316565,
8,8,0,1,2,2,1,2,0,0,1,0,1,1,0,0,27,27,27,0,0,0,0,,,,,,,504.5880773998797,None,504.8287204001099,None,505.6257927007973,None,l,1,0.5829220991581678,505.6257927007973,None,None,None,,,,,,,20,19,male,20,2022_May_10_1411,Partial repeat,2021.2.3,59.85400428316565,
8,8,0,1,2,2,1,2,0,0,1,0,1,1,0,0,27,27,27,1,0,1,0,,,,,,,,,506.2262498997152,None,507.0118519999087,None,l,1,0.4209032002836466,507.0118519999087,None,None,None,,,,,,,20,19,male,20,2022_May_10_1411,Partial repeat,2021.2.3,59.85400428316565,
8,8,0,1,2,2,1,2,0,0,1,0,1,1,0,0,27,27,27,,,,,,,,,,,,,,,,,,,,,,,,,,,,,,20,19,male,20,2022_May_10_1411,Partial repeat,2021.2.3,59.85400428316565,
8,8,0,1,2,2,1,1,0,0,1,1,1,1,0,0,28,28,28,0,0,0,0,,,,,,,507.45210899971426,None,507.7343482002616,None,508.7486942000687,None,l,1,0.39608410000801086,508.7486942000687,None,None,None,,,,,,,20,19,male,20,2022_May_10_1411,Partial repeat,2021.2.3,59.85400428316565,
8,8,0,1,2,2,1,1,0,0,1,1,1,1,0,0,28,28,28,1,0,1,0,,,,,,,,,509.1555596999824,None,510.08437119983137,None,l,1,0.29235149919986725,510.08437119983137,None,None,None,,,,,,,20,19,male,20,2022_May_10_1411,Partial repeat,2021.2.3,59.85400428316565,
8,8,0,1,2,2,1,1,0,0,1,1,1,1,0,0,28,28,28,,,,,,,,,,,,,,,,,,,,,,,,,,,,,,20,19,male,20,2022_May_10_1411,Partial repeat,2021.2.3,59.85400428316565,
8,8,0,1,3,2,2,2,1,1,0,1,1,1,0,0,29,29,29,0,0,0,0,,,,,,,510.39429830014706,None,511.6585790012032,None,512.4242688007653,None,s,1,0.5284445006400347,512.4242688007653,None,None,None,,,,,,,20,19,male,20,2022_May_10_1411,Partial repeat,2021.2.3,59.85400428316565,
8,8,0,1,3,2,2,2,1,1,0,1,1,1,0,0,29,29,29,1,0,1,0,,,,,,,,,512.9645639006048,None,513.7266301009804,None,s,1,0.3380834013223648,513.7266301009804,None,None,None,,,,,,,20,19,male,20,2022_May_10_1411,Partial repeat,2021.2.3,59.85400428316565,
8,8,0,1,3,2,2,2,1,1,0,1,1,1,0,0,29,29,29,,,,,,,,,,,,,,,,,,,,,,,,,,,,,,20,19,male,20,2022_May_10_1411,Partial repeat,2021.2.3,59.85400428316565,
8,8,0,1,2,3,2,2,0,0,0,1,1,1,0,0,30,30,30,0,0,0,0,,,,,,,514.0943720005453,None,514.3138213008642,None,515.1943689007312,None,l,1,0.5503090992569923,515.1943689007312,None,None,None,,,,,,,20,19,male,20,2022_May_10_1411,Partial repeat,2021.2.3,59.85400428316565,
8,8,0,1,2,3,2,2,0,0,0,1,1,1,0,0,30,30,30,1,0,1,0,,,,,,,,,515.7562601994723,None,516.7309489995241,None,l,1,0.4058534000068903,516.7309489995241,None,None,None,,,,,,,20,19,male,20,2022_May_10_1411,Partial repeat,2021.2.3,59.85400428316565,
8,8,0,1,2,3,2,2,0,0,0,1,1,1,0,0,30,30,30,,,,,,,,,,,,,,,,,,,,,,,,,,,,,,20,19,male,20,2022_May_10_1411,Partial repeat,2021.2.3,59.85400428316565,
8,8,0,1,2,3,1,1,0,1,0,1,0,1,0,0,31,31,31,0,0,0,0,,,,,,,517.1668584011495,None,517.403157999739,None,518.2511992994696,None,l,1,0.5095573011785746,518.2511992994696,None,None,None,,,,,,,20,19,male,20,2022_May_10_1411,Partial repeat,2021.2.3,59.85400428316565,
8,8,0,1,2,3,1,1,0,1,0,1,0,1,0,0,31,31,31,1,0,1,0,,,,,,,,,518.7698018997908,None,519.6196387000382,None,s,1,0.53315220028162,519.6196387000382,None,None,None,,,,,,,20,19,male,20,2022_May_10_1411,Partial repeat,2021.2.3,59.85400428316565,
8,8,0,1,2,3,1,1,0,1,0,1,0,1,0,0,31,31,31,,,,,,,,,,,,,,,,,,,,,,,,,,,,,,20,19,male,20,2022_May_10_1411,Partial repeat,2021.2.3,59.85400428316565,
8,8,0,1,2,3,2,1,1,1,0,0,1,1,0,0,32,32,32,0,0,0,0,,,,,,,520.18396580033,None,520.4591166004539,None,521.2394147999585,None,s,1,0.6892981007695198,521.2394147999585,None,None,None,,,,,,,20,19,male,20,2022_May_10_1411,Partial repeat,2021.2.3,59.85400428316565,
8,8,0,1,2,3,2,1,1,1,0,0,1,1,0,0,32,32,32,1,0,1,0,,,,,,,,,521.9491475000978,None,522.7088594995439,None,s,1,0.4838766008615494,522.7088594995439,None,None,None,,,,,,,20,19,male,20,2022_May_10_1411,Partial repeat,2021.2.3,59.85400428316565,
8,8,0,1,2,3,2,1,1,1,0,0,1,1,0,0,32,32,32,,,,,,,,,,,,,,,,,,,,,,,,,,,,,,20,19,male,20,2022_May_10_1411,Partial repeat,2021.2.3,59.85400428316565,
8,8,0,1,3,2,2,2,1,0,0,1,0,1,0,0,33,33,33,0,0,0,0,,,,,,,523.211897900328,None,523.5150878001004,None,524.4131915997714,None,s,1,0.5315000992268324,524.4131915997714,None,None,None,,,,,,,20,19,male,20,2022_May_10_1411,Partial repeat,2021.2.3,59.85400428316565,
8,8,0,1,3,2,2,2,1,0,0,1,0,1,0,0,33,33,33,1,0,1,0,,,,,,,,,524.9676901008934,None,525.8990563005209,None,s,0,0.30170500092208385,525.8990563005209,None,526.2092602998018,None,,,,,,,20,19,male,20,2022_May_10_1411,Partial repeat,2021.2.3,59.85400428316565,
8,8,0,1,3,2,2,2,1,0,0,1,0,1,0,0,33,33,33,,,,,,,,,,,,,,,,,,,,,,,,,,,,,,20,19,male,20,2022_May_10_1411,Partial repeat,2021.2.3,59.85400428316565,
8,8,0,1,2,3,1,2,0,1,0,0,0,1,0,0,34,34,34,0,0,0,0,,,,,,,526.7212733011693,None,527.422611201182,None,528.2196187004447,None,s,0,0.5010947994887829,528.2196187004447,None,528.7388952001929,None,,,,,,,20,19,male,20,2022_May_10_1411,Partial repeat,2021.2.3,59.85400428316565,
8,8,0,1,2,3,1,2,0,1,0,0,0,1,0,0,34,34,34,1,0,1,0,,,,,,,,,529.2427856996655,None,530.0061197001487,None,s,1,0.5386346001178026,530.0061197001487,None,None,None,,,,,,,20,19,male,20,2022_May_10_1411,Partial repeat,2021.2.3,59.85400428316565,
8,8,0,1,2,3,1,2,0,1,0,0,0,1,0,0,34,34,34,,,,,,,,,,,,,,,,,,,,,,,,,,,,,,20,19,male,20,2022_May_10_1411,Partial repeat,2021.2.3,59.85400428316565,
8,8,0,1,3,2,1,2,1,1,0,0,1,1,0,0,35,35,35,0,0,0,0,,,,,,,530.555211501196,None,532.6328152995557,None,533.3802851997316,None,s,1,0.4524216987192631,533.3802851997316,None,None,None,,,,,,,20,19,male,20,2022_May_10_1411,Partial repeat,2021.2.3,59.85400428316565,
8,8,0,1,3,2,1,2,1,1,0,0,1,1,0,0,35,35,35,1,0,1,0,,,,,,,,,533.8573723006994,None,534.6490518003702,None,s,1,0.41565299965441227,534.6490518003702,None,None,None,,,,,,,20,19,male,20,2022_May_10_1411,Partial repeat,2021.2.3,59.85400428316565,
8,8,0,1,3,2,1,2,1,1,0,0,1,1,0,0,35,35,35,,,,,,,,,,,,,,,,,,,,,,,,,,,,,,20,19,male,20,2022_May_10_1411,Partial repeat,2021.2.3,59.85400428316565,
8,8,0,1,2,3,2,2,1,1,0,1,1,1,0,0,36,36,36,0,0,0,0,,,,,,,535.0857050996274,None,535.3046313002706,None,536.1692396011204,None,s,1,0.4154663998633623,536.1692396011204,None,None,None,,,,,,,20,19,male,20,2022_May_10_1411,Partial repeat,2021.2.3,59.85400428316565,
8,8,0,1,2,3,2,2,1,1,0,1,1,1,0,0,36,36,36,1,0,1,0,,,,,,,,,536.6027132999152,None,537.4543802011758,None,s,1,0.45029420033097267,537.4543802011758,None,None,None,,,,,,,20,19,male,20,2022_May_10_1411,Partial repeat,2021.2.3,59.85400428316565,
8,8,0,1,2,3,2,2,1,1,0,1,1,1,0,0,36,36,36,,,,,,,,,,,,,,,,,,,,,,,,,,,,,,20,19,male,20,2022_May_10_1411,Partial repeat,2021.2.3,59.85400428316565,
8,8,0,1,3,2,2,1,0,0,0,0,1,1,0,0,37,37,37,0,0,0,0,,,,,,,537.9164093006402,None,538.0933695007116,None,538.8906287010759,None,l,1,0.510172700509429,538.8906287010759,None,None,None,,,,,,,20,19,male,20,2022_May_10_1411,Partial repeat,2021.2.3,59.85400428316565,
8,8,0,1,3,2,2,1,0,0,0,0,1,1,0,0,37,37,37,1,0,1,0,,,,,,,,,539.4111384004354,None,540.2098337002099,None,l,1,0.3908718004822731,540.2098337002099,None,None,None,,,,,,,20,19,male,20,2022_May_10_1411,Partial repeat,2021.2.3,59.85400428316565,
8,8,0,1,3,2,2,1,0,0,0,0,1,1,0,0,37,37,37,,,,,,,,,,,,,,,,,,,,,,,,,,,,,,20,19,male,20,2022_May_10_1411,Partial repeat,2021.2.3,59.85400428316565,
8,8,0,1,3,2,2,2,0,1,0,1,0,1,0,0,38,38,38,0,0,0,0,,,,,,,540.6264913007617,None,540.8319883011281,None,541.6625153999776,None,l,1,0.4741901997476816,541.6625153999776,None,None,None,,,,,,,20,19,male,20,2022_May_10_1411,Partial repeat,2021.2.3,59.85400428316565,
8,8,0,1,3,2,2,2,0,1,0,1,0,1,0,0,38,38,38,1,0,1,0,,,,,,,,,542.1622042004019,None,542.9650657996535,None,s,1,0.33963329903781414,542.9650657996535,None,None,None,,,,,,,20,19,male,20,2022_May_10_1411,Partial repeat,2021.2.3,59.85400428316565,
8,8,0,1,3,2,2,2,0,1,0,1,0,1,0,0,38,38,38,,,,,,,,,,,,,,,,,,,,,,,,,,,,,,20,19,male,20,2022_May_10_1411,Partial repeat,2021.2.3,59.85400428316565,
8,8,0,1,3,3,2,2,1,0,1,1,0,1,0,0,39,39,39,0,0,0,0,,,,,,,543.3210632000118,None,543.5707236994058,None,544.3178950995207,None,s,1,0.46684639900922775,544.3178950995207,None,None,None,,,,,,,20,19,male,20,2022_May_10_1411,Partial repeat,2021.2.3,59.85400428316565,
8,8,0,1,3,3,2,2,1,0,1,1,0,1,0,0,39,39,39,1,0,1,0,,,,,,,,,544.7930445000529,None,545.7040804997087,None,l,1,0.3206308986991644,545.7040804997087,None,None,None,,,,,,,20,19,male,20,2022_May_10_1411,Partial repeat,2021.2.3,59.85400428316565,
8,8,0,1,3,3,2,2,1,0,1,1,0,1,0,0,39,39,39,,,,,,,,,,,,,,,,,,,,,,,,,,,,,,20,19,male,20,2022_May_10_1411,Partial repeat,2021.2.3,59.85400428316565,
8,8,0,1,3,3,1,1,1,0,1,1,0,1,0,0,40,40,40,0,0,0,0,,,,,,,546.0366779007018,None,546.2092470005155,None,547.0733704995364,None,s,1,0.47927770018577576,547.0733704995364,None,None,None,,,,,,,20,19,male,20,2022_May_10_1411,Partial repeat,2021.2.3,59.85400428316565,
8,8,0,1,3,3,1,1,1,0,1,1,0,1,0,0,40,40,40,1,0,1,0,,,,,,,,,547.5657989010215,None,548.3088320996612,None,l,1,0.3718734998255968,548.3088320996612,None,None,None,,,,,,,20,19,male,20,2022_May_10_1411,Partial repeat,2021.2.3,59.85400428316565,
8,8,0,1,3,3,1,1,1,0,1,1,0,1,0,0,40,40,40,,,,,,,,,,,,,,,,,,,,,,,,,,,,,,20,19,male,20,2022_May_10_1411,Partial repeat,2021.2.3,59.85400428316565,
8,8,0,1,2,3,2,2,1,0,0,1,0,1,0,0,41,41,41,0,0,0,0,,,,,,,548.7039289996028,None,548.931115699932,None,549.8786644004285,None,s,1,0.45803260058164597,549.8786644004285,None,None,None,,,,,,,20,19,male,20,2022_May_10_1411,Partial repeat,2021.2.3,59.85400428316565,
8,8,0,1,2,3,2,2,1,0,0,1,0,1,0,0,41,41,41,1,0,1,0,,,,,,,,,550.353795601055,None,551.3316029012203,None,l,1,0.3250980004668236,551.3316029012203,None,None,None,,,,,,,20,19,male,20,2022_May_10_1411,Partial repeat,2021.2.3,59.85400428316565,
8,8,0,1,2,3,2,2,1,0,0,1,0,1,0,0,41,41,41,,,,,,,,,,,,,,,,,,,,,,,,,,,,,,20,19,male,20,2022_May_10_1411,Partial repeat,2021.2.3,59.85400428316565,
8,8,0,1,3,2,2,1,1,0,0,0,0,1,0,0,42,42,42,0,0,0,0,,,,,,,551.6859274003655,None,551.8702256008983,None,552.7507122009993,None,s,1,0.4820182006806135,552.7507122009993,None,None,None,,,,,,,20,19,male,20,2022_May_10_1411,Partial repeat,2021.2.3,59.85400428316565,
8,8,0,1,3,2,2,1,1,0,0,0,0,1,0,0,42,42,42,1,0,1,0,,,,,,,,,553.2453652005643,None,554.2035016007721,None,l,1,0.28525259904563427,554.2035016007721,None,None,None,,,,,,,20,19,male,20,2022_May_10_1411,Partial repeat,2021.2.3,59.85400428316565,
8,8,0,1,3,2,2,1,1,0,0,0,0,1,0,0,42,42,42,,,,,,,,,,,,,,,,,,,,,,,,,,,,,,20,19,male,20,2022_May_10_1411,Partial repeat,2021.2.3,59.85400428316565,
8,8,0,1,2,3,2,1,0,0,0,0,1,1,0,0,43,43,43,0,0,0,0,,,,,,,554.5120602007955,None,554.725792599842,None,555.556415900588,None,l,1,0.4762810003012419,555.556415900588,None,None,None,,,,,,,20,19,male,20,2022_May_10_1411,Partial repeat,2021.2.3,59.85400428316565,
8,8,0,1,2,3,2,1,0,0,0,0,1,1,0,0,43,43,43,1,0,1,0,,,,,,,,,556.0562027003616,None,556.8759158998728,None,l,1,0.5408148001879454,556.8759158998728,None,None,None,,,,,,,20,19,male,20,2022_May_10_1411,Partial repeat,2021.2.3,59.85400428316565,
8,8,0,1,2,3,2,1,0,0,0,0,1,1,0,0,43,43,43,,,,,,,,,,,,,,,,,,,,,,,,,,,,,,20,19,male,20,2022_May_10_1411,Partial repeat,2021.2.3,59.85400428316565,
8,8,0,1,3,3,1,1,0,0,1,1,1,1,0,0,44,44,44,0,0,0,0,,,,,,,557.4400533996522,None,557.5980434995145,None,558.5294452998787,None,l,1,0.39125389978289604,558.5294452998787,None,None,None,,,,,,,20,19,male,20,2022_May_10_1411,Partial repeat,2021.2.3,59.85400428316565,
8,8,0,1,3,3,1,1,0,0,1,1,1,1,0,0,44,44,44,1,0,1,0,,,,,,,,,558.9457189012319,None,559.7842443995178,None,l,1,0.34445200115442276,559.7842443995178,None,None,None,,,,,,,20,19,male,20,2022_May_10_1411,Partial repeat,2021.2.3,59.85400428316565,
8,8,0,1,3,3,1,1,0,0,1,1,1,1,0,0,44,44,44,,,,,,,,,,,,,,,,,,,,,,,,,,,,,,20,19,male,20,2022_May_10_1411,Partial repeat,2021.2.3,59.85400428316565,
8,8,0,1,2,2,2,1,1,1,1,0,1,1,0,0,45,45,45,0,0,0,0,,,,,,,560.1562521997839,None,560.3533222004771,None,561.3173367008567,None,s,1,0.5073563996702433,561.3173367008567,None,None,None,,,,,,,20,19,male,20,2022_May_10_1411,Partial repeat,2021.2.3,59.85400428316565,
8,8,0,1,2,2,2,1,1,1,1,0,1,1,0,0,45,45,45,1,0,1,0,,,,,,,,,561.8365739006549,None,562.7036467995495,None,s,1,0.3690543007105589,562.7036467995495,None,None,None,,,,,,,20,19,male,20,2022_May_10_1411,Partial repeat,2021.2.3,59.85400428316565,
8,8,0,1,2,2,2,1,1,1,1,0,1,1,0,0,45,45,45,,,,,,,,,,,,,,,,,,,,,,,,,,,,,,20,19,male,20,2022_May_10_1411,Partial repeat,2021.2.3,59.85400428316565,
8,8,0,1,3,3,2,1,1,0,1,0,0,1,0,0,46,46,46,0,0,0,0,,,,,,,563.101018499583,None,563.2924406994134,None,564.190668400377,None,s,1,0.5140227004885674,564.190668400377,None,None,None,,,,,,,20,19,male,20,2022_May_10_1411,Partial repeat,2021.2.3,59.85400428316565,
8,8,0,1,3,3,2,1,1,0,1,0,0,1,0,0,46,46,46,1,0,1,0,,,,,,,,,564.7312885001302,None,565.5088755004108,None,l,1,0.4358181990683079,565.5088755004108,None,None,None,,,,,,,20,19,male,20,2022_May_10_1411,Partial repeat,2021.2.3,59.85400428316565,
8,8,0,1,3,3,2,1,1,0,1,0,0,1,0,0,46,46,46,,,,,,,,,,,,,,,,,,,,,,,,,,,,,,20,19,male,20,2022_May_10_1411,Partial repeat,2021.2.3,59.85400428316565,
8,8,0,1,3,3,1,2,0,0,1,0,1,1,0,0,47,47,47,0,0,0,0,,,,,,,565.9690105002373,None,566.2148219998926,None,567.1620761994272,None,l,1,0.494616499170661,567.1620761994272,None,None,None,,,,,,,20,19,male,20,2022_May_10_1411,Partial repeat,2021.2.3,59.85400428316565,
8,8,0,1,3,3,1,2,0,0,1,0,1,1,0,0,47,47,47,1,0,1,0,,,,,,,,,567.6817493997514,None,568.4980245009065,None,l,1,0.3586649987846613,568.4980245009065,None,None,None,,,,,,,20,19,male,20,2022_May_10_1411,Partial repeat,2021.2.3,59.85400428316565,
8,8,0,1,3,3,1,2,0,0,1,0,1,1,0,0,47,47,47,,,,,,,,,,,,,,,,,,,,,,,,,,,,,,20,19,male,20,2022_May_10_1411,Partial repeat,2021.2.3,59.85400428316565,
8,8,0,1,2,2,2,1,0,1,1,0,0,1,0,0,48,48,48,0,0,0,0,,,,,,,568.8718235008419,None,569.1036764010787,None,570.0847634002566,None,l,1,0.53198959864676,570.0847634002566,None,None,None,,,,,,,20,19,male,20,2022_May_10_1411,Partial repeat,2021.2.3,59.85400428316565,
8,8,0,1,2,2,2,1,0,1,1,0,0,1,0,0,48,48,48,1,0,1,0,,,,,,,,,570.6415980998427,None,571.520341200754,None,s,1,0.4403499010950327,571.520341200754,None,None,None,,,,,,,20,19,male,20,2022_May_10_1411,Partial repeat,2021.2.3,59.85400428316565,
8,8,0,1,2,2,2,1,0,1,1,0,0,1,0,0,48,48,48,,,,,,,,,,,,,,,,,,,,,,,,,,,,,,20,19,male,20,2022_May_10_1411,Partial repeat,2021.2.3,59.85400428316565,
8,8,0,1,3,3,2,1,0,0,1,0,1,1,0,0,49,49,49,0,0,0,0,,,,,,,571.9785693995655,None,572.2094973996282,None,573.2077484000474,None,l,1,0.4409373998641968,573.2077484000474,None,None,None,,,,,,,20,19,male,20,2022_May_10_1411,Partial repeat,2021.2.3,59.85400428316565,
8,8,0,1,3,3,2,1,0,0,1,0,1,1,0,0,49,49,49,1,0,1,0,,,,,,,,,573.6668734010309,None,574.5768707003444,None,l,1,0.3437866009771824,574.5768707003444,None,None,None,,,,,,,20,19,male,20,2022_May_10_1411,Partial repeat,2021.2.3,59.85400428316565,
8,8,0,1,3,3,2,1,0,0,1,0,1,1,0,0,49,49,49,,,,,,,,,,,,,,,,,,,,,,,,,,,,,,20,19,male,20,2022_May_10_1411,Partial repeat,2021.2.3,59.85400428316565,
8,8,0,1,3,3,1,1,1,1,1,1,1,1,0,0,50,50,50,0,0,0,0,,,,,,,574.9516794998199,None,575.1989137995988,None,575.9795407000929,None,s,1,0.517196400091052,575.9795407000929,None,None,None,,,,,,,20,19,male,20,2022_May_10_1411,Partial repeat,2021.2.3,59.85400428316565,
8,8,0,1,3,3,1,1,1,1,1,1,1,1,0,0,50,50,50,1,0,1,0,,,,,,,,,576.5264826007187,None,577.3486221004277,None,s,1,0.4360706992447376,577.3486221004277,None,None,None,,,,,,,20,19,male,20,2022_May_10_1411,Partial repeat,2021.2.3,59.85400428316565,
8,8,0,1,3,3,1,1,1,1,1,1,1,1,0,0,50,50,50,,,,,,,,,,,,,,,,,,,,,,,,,,,,,,20,19,male,20,2022_May_10_1411,Partial repeat,2021.2.3,59.85400428316565,
8,8,0,1,2,3,2,1,1,0,0,0,0,1,0,0,51,51,51,0,0,0,0,,,,,,,577.8088521007448,None,578.0043746996671,None,578.9855406004936,None,s,1,0.39114549942314625,578.9855406004936,None,None,None,,,,,,,20,19,male,20,2022_May_10_1411,Partial repeat,2021.2.3,59.85400428316565,
8,8,0,1,2,3,2,1,1,0,0,0,0,1,0,0,51,51,51,1,0,1,0,,,,,,,,,579.4009333997965,None,580.2876974996179,None,l,1,0.3769915010780096,580.2876974996179,None,None,None,,,,,,,20,19,male,20,2022_May_10_1411,Partial repeat,2021.2.3,59.85400428316565,
8,8,0,1,2,3,2,1,1,0,0,0,0,1,0,0,51,51,51,,,,,,,,,,,,,,,,,,,,,,,,,,,,,,20,19,male,20,2022_May_10_1411,Partial repeat,2021.2.3,59.85400428316565,
8,8,0,1,3,3,2,2,0,0,1,1,1,1,0,0,52,52,52,0,0,0,0,,,,,,,580.6885438002646,None,580.8933653011918,None,581.6582373008132,None,l,1,0.5345117002725601,581.6582373008132,None,None,None,,,,,,,20,19,male,20,2022_May_10_1411,Partial repeat,2021.2.3,59.85400428316565,
8,8,0,1,3,3,2,2,0,0,1,1,1,1,0,0,52,52,52,1,0,1,0,,,,,,,,,582.2209562007338,None,582.9761964995414,None,l,1,0.39246249943971634,582.9761964995414,None,None,None,,,,,,,20,19,male,20,2022_May_10_1411,Partial repeat,2021.2.3,59.85400428316565,
8,8,0,1,3,3,2,2,0,0,1,1,1,1,0,0,52,52,52,,,,,,,,,,,,,,,,,,,,,,,,,,,,,,20,19,male,20,2022_May_10_1411,Partial repeat,2021.2.3,59.85400428316565,
8,8,0,1,2,3,1,2,1,0,0,0,0,1,0,0,53,53,53,0,0,0,0,,,,,,,583.3933651000261,None,583.6153087001294,None,584.4456962998956,None,s,1,0.48297449946403503,584.4456962998956,None,None,None,,,,,,,20,19,male,20,2022_May_10_1411,Partial repeat,2021.2.3,59.85400428316565,
8,8,0,1,2,3,1,2,1,0,0,0,0,1,0,0,53,53,53,1,0,1,0,,,,,,,,,584.9415926001966,None,585.6652895007282,None,l,1,0.3753896001726389,585.6652895007282,None,None,None,,,,,,,20,19,male,20,2022_May_10_1411,Partial repeat,2021.2.3,59.85400428316565,
8,8,0,1,2,3,1,2,1,0,0,0,0,1,0,0,53,53,53,,,,,,,,,,,,,,,,,,,,,,,,,,,,,,20,19,male,20,2022_May_10_1411,Partial repeat,2021.2.3,59.85400428316565,
8,8,0,1,3,2,2,2,0,0,0,1,1,1,0,0,54,54,54,0,0,0,0,,,,,,,586.0604518000036,None,586.3038027994335,None,587.1178045999259,None,l,1,0.4668710995465517,587.1178045999259,None,None,None,,,,,,,20,19,male,20,2022_May_10_1411,Partial repeat,2021.2.3,59.85400428316565,
8,8,0,1,3,2,2,2,0,0,0,1,1,1,0,0,54,54,54,1,0,1,0,,,,,,,,,587.6110468003899,None,588.3707964010537,None,l,1,0.34989150054752827,588.3707964010537,None,None,None,,,,,,,20,19,male,20,2022_May_10_1411,Partial repeat,2021.2.3,59.85400428316565,
8,8,0,1,3,2,2,2,0,0,0,1,1,1,0,0,54,54,54,,,,,,,,,,,,,,,,,,,,,,,,,,,,,,20,19,male,20,2022_May_10_1411,Partial repeat,2021.2.3,59.85400428316565,
8,8,0,1,2,3,2,2,0,1,0,1,0,1,0,0,55,55,55,0,0,0,0,,,,,,,588.741828000173,None,588.9924440011382,None,589.9731350000948,None,l,1,0.5315343011170626,589.9731350000948,None,None,None,,,,,,,20,19,male,20,2022_May_10_1411,Partial repeat,2021.2.3,59.85400428316565,
8,8,0,1,2,3,2,2,0,1,0,1,0,1,0,0,55,55,55,1,0,1,0,,,,,,,,,590.5141704995185,None,591.3594402000308,None,s,1,0.4972329009324312,591.3594402000308,None,None,None,,,,,,,20,19,male,20,2022_May_10_1411,Partial repeat,2021.2.3,59.85400428316565,
8,8,0,1,2,3,2,2,0,1,0,1,0,1,0,0,55,55,55,,,,,,,,,,,,,,,,,,,,,,,,,,,,,,20,19,male,20,2022_May_10_1411,Partial repeat,2021.2.3,59.85400428316565,
8,8,0,1,2,2,1,2,0,1,1,0,0,1,0,0,56,56,56,0,0,0,0,,,,,,,591.8803730010986,None,592.1151275001466,None,592.995921799913,None,l,1,0.48476059921085835,592.995921799913,None,None,None,,,,,,,20,19,male,20,2022_May_10_1411,Partial repeat,2021.2.3,59.85400428316565,
8,8,0,1,2,2,1,2,0,1,1,0,0,1,0,0,56,56,56,1,0,1,0,,,,,,,,,593.4937817994505,None,594.3820162005723,None,s,1,0.41861769929528236,594.3820162005723,None,None,None,,,,,,,20,19,male,20,2022_May_10_1411,Partial repeat,2021.2.3,59.85400428316565,
8,8,0,1,2,2,1,2,0,1,1,0,0,1,0,0,56,56,56,,,,,,,,,,,,,,,,,,,,,,,,,,,,,,20,19,male,20,2022_May_10_1411,Partial repeat,2021.2.3,59.85400428316565,
8,8,0,1,3,3,1,1,0,1,1,1,0,1,0,0,57,57,57,0,0,0,0,,,,,,,594.8173193000257,None,595.0708886999637,None,595.936101200059,None,l,1,0.4325714986771345,595.936101200059,None,None,None,,,,,,,20,19,male,20,2022_May_10_1411,Partial repeat,2021.2.3,59.85400428316565,
8,8,0,1,3,3,1,1,0,1,1,1,0,1,0,0,57,57,57,1,0,1,0,,,,,,,,,596.3943294007331,None,597.1537593007088,None,s,1,0.4148807991296053,597.1537593007088,None,None,None,,,,,,,20,19,male,20,2022_May_10_1411,Partial repeat,2021.2.3,59.85400428316565,
8,8,0,1,3,3,1,1,0,1,1,1,0,1,0,0,57,57,57,,,,,,,,,,,,,,,,,,,,,,,,,,,,,,20,19,male,20,2022_May_10_1411,Partial repeat,2021.2.3,59.85400428316565,
8,8,0,1,2,2,2,1,0,0,1,0,1,1,0,0,58,58,58,0,0,0,0,,,,,,,597.5913578011096,None,597.8095430005342,None,598.7570396009833,None,l,1,0.443631399422884,598.7570396009833,None,None,None,,,,,,,20,19,male,20,2022_May_10_1411,Partial repeat,2021.2.3,59.85400428316565,
8,8,0,1,2,2,2,1,0,0,1,0,1,1,0,0,58,58,58,1,0,1,0,,,,,,,,,599.2129983007908,None,600.0430175997317,None,s,0,0.3736474998295307,600.0430175997317,None,600.4362842012197,None,,,,,,,20,19,male,20,2022_May_10_1411,Partial repeat,2021.2.3,59.85400428316565,
8,8,0,1,2,2,2,1,0,0,1,0,1,1,0,0,58,58,58,,,,,,,,,,,,,,,,,,,,,,,,,,,,,,20,19,male,20,2022_May_10_1411,Partial repeat,2021.2.3,59.85400428316565,
8,8,0,1,3,2,1,2,0,1,0,0,0,1,0,0,59,59,59,0,0,0,0,,,,,,,600.949048301205,None,601.6169563010335,None,602.4317859001458,None,l,1,0.44892350025475025,602.4317859001458,None,None,None,,,,,,,20,19,male,20,2022_May_10_1411,Partial repeat,2021.2.3,59.85400428316565,
8,8,0,1,3,2,1,2,0,1,0,0,0,1,0,0,59,59,59,1,0,1,0,,,,,,,,,602.9088647011667,None,603.7010440006852,None,s,1,0.3636701013892889,603.7010440006852,None,None,None,,,,,,,20,19,male,20,2022_May_10_1411,Partial repeat,2021.2.3,59.85400428316565,
8,8,0,1,3,2,1,2,0,1,0,0,0,1,0,0,59,59,59,,,,,,,,,,,,,,,,,,,,,,,,,,,,,,20,19,male,20,2022_May_10_1411,Partial repeat,2021.2.3,59.85400428316565,
8,8,0,1,2,2,2,2,1,0,1,1,0,1,0,0,60,60,60,0,0,0,0,,,,,,,604.075881101191,None,604.3055624011904,None,605.0531935002655,None,s,1,0.483475299552083,605.0531935002655,None,None,None,,,,,,,20,19,male,20,2022_May_10_1411,Partial repeat,2021.2.3,59.85400428316565,
8,8,0,1,2,2,2,2,1,0,1,1,0,1,0,0,60,60,60,1,0,1,0,,,,,,,,,605.553871801123,None,606.4237791001797,None,l,1,0.42488690093159676,606.4237791001797,None,None,None,,,,,,,20,19,male,20,2022_May_10_1411,Partial repeat,2021.2.3,59.85400428316565,
8,8,0,1,2,2,2,2,1,0,1,1,0,1,0,0,60,60,60,,,,,,,,,,,,,,,,,,,,,,,,,,,,,,20,19,male,20,2022_May_10_1411,Partial repeat,2021.2.3,59.85400428316565,
8,8,0,1,3,3,2,1,1,1,1,0,1,1,0,0,61,61,61,0,0,0,0,,,,,,,606.8643012996763,None,607.0776356998831,None,608.0250148996711,None,s,1,0.4796714000403881,608.0250148996711,None,None,None,,,,,,,20,19,male,20,2022_May_10_1411,Partial repeat,2021.2.3,59.85400428316565,
8,8,0,1,3,3,2,1,1,1,1,0,1,1,0,0,61,61,61,1,0,1,0,,,,,,,,,608.5236400999129,None,609.3107038009912,None,s,1,0.3699150010943413,609.3107038009912,None,None,None,,,,,,,20,19,male,20,2022_May_10_1411,Partial repeat,2021.2.3,59.85400428316565,
8,8,0,1,3,3,2,1,1,1,1,0,1,1,0,0,61,61,61,,,,,,,,,,,,,,,,,,,,,,,,,,,,,,20,19,male,20,2022_May_10_1411,Partial repeat,2021.2.3,59.85400428316565,
8,8,0,1,2,2,1,1,1,1,1,1,1,1,0,0,62,62,62,0,0,0,0,,,,,,,609.7069854997098,None,609.9331844002008,None,610.8637298997492,None,s,1,0.4889659993350506,610.8637298997492,None,None,None,,,,,,,20,19,male,20,2022_May_10_1411,Partial repeat,2021.2.3,59.85400428316565,
8,8,0,1,2,2,1,1,1,1,1,1,1,1,0,0,62,62,62,1,0,1,0,,,,,,,,,611.3620533999056,None,612.1536670997739,None,s,1,0.2949979994446039,612.1536670997739,None,None,None,,,,,,,20,19,male,20,2022_May_10_1411,Partial repeat,2021.2.3,59.85400428316565,
8,8,0,1,2,2,1,1,1,1,1,1,1,1,0,0,62,62,62,,,,,,,,,,,,,,,,,,,,,,,,,,,,,,20,19,male,20,2022_May_10_1411,Partial repeat,2021.2.3,59.85400428316565,
8,8,0,1,2,3,1,2,1,1,0,0,1,1,0,0,63,63,63,0,0,0,0,,,,,,,612.4655114002526,None,612.7219220008701,None,613.6863337010145,None,s,1,0.45833619870245457,613.6863337010145,None,None,None,,,,,,,20,19,male,20,2022_May_10_1411,Partial repeat,2021.2.3,59.85400428316565,
8,8,0,1,2,3,1,2,1,1,0,0,1,1,0,0,63,63,63,1,0,1,0,,,,,,,,,614.1590845994651,None,615.0218474008143,None,s,1,0.40281200036406517,615.0218474008143,None,None,None,,,,,,,20,19,male,20,2022_May_10_1411,Partial repeat,2021.2.3,59.85400428316565,
8,8,0,1,2,3,1,2,1,1,0,0,1,1,0,0,63,63,63,,,,,,,,,,,,,,,,,,,,,,,,,,,,,,20,19,male,20,2022_May_10_1411,Partial repeat,2021.2.3,59.85400428316565,
8,8,0,1,3,3,2,1,1,1,1,0,1,0,0,0,64,64,64,0,0,0,0,,,,,,,615.6477377004921,None,616.9969497006387,None,617.8125911001116,None,s,1,0.5160783007740974,617.8125911001116,None,None,None,,,,,,,20,19,male,20,2022_May_10_1411,Partial repeat,2021.2.3,59.85400428316565,
8,8,0,1,3,3,2,1,1,1,1,0,1,0,0,0,64,64,64,1,0,1,0,,,,,,,,,618.3443494010717,None,619.2639454007149,None,s,1,0.44072229973971844,619.2639454007149,None,None,None,,,,,,,20,19,male,20,2022_May_10_1411,Partial repeat,2021.2.3,59.85400428316565,
8,8,0,1,3,3,2,1,1,1,1,0,1,0,0,0,64,64,64,,,,,,,,,,,,,,,,,,,,,,,,,,,,,,20,19,male,20,2022_May_10_1411,Partial repeat,2021.2.3,59.85400428316565,
5,1,0,1,3,3,2,1,1,0,1,0,0,0,0,0,65,65,65,0,0,0,0,,,,,,,619.7256624996662,None,619.9526620004326,None,620.7347534000874,None,s,1,0.8659406006336212,620.7347534000874,None,None,None,,,,,,,20,19,male,20,2022_May_10_1411,Partial repeat,2021.2.3,59.85400428316565,
5,1,0,1,3,3,2,1,1,0,1,0,0,0,0,0,65,65,65,1,0,1,0,,,,,,,,,621.6190019994974,None,622.436340700835,None,l,1,0.7243246994912624,622.436340700835,None,None,None,,,,,,,20,19,male,20,2022_May_10_1411,Partial repeat,2021.2.3,59.85400428316565,
5,1,0,1,3,3,2,1,1,0,1,0,0,0,0,0,65,65,65,,,,,,,,,,,,,,,,,,,,,,,,,,,,,,20,19,male,20,2022_May_10_1411,Partial repeat,2021.2.3,59.85400428316565,
6,8,0,1,2,3,2,1,0,0,0,0,1,0,0,0,66,66,66,0,0,0,0,,,,,,,623.1760591007769,None,623.5763735994697,None,624.4907448999584,None,l,1,0.7819262016564608,624.4907448999584,None,None,None,,,,,,,20,19,male,20,2022_May_10_1411,Partial repeat,2021.2.3,59.85400428316565,
6,8,0,1,2,3,2,1,0,0,0,0,1,0,0,0,66,66,66,1,0,1,0,,,,,,,,,625.2909283004701,None,626.0935177002102,None,l,1,0.6351334992796183,626.0935177002102,None,None,None,,,,,,,20,19,male,20,2022_May_10_1411,Partial repeat,2021.2.3,59.85400428316565,
6,8,0,1,2,3,2,1,0,0,0,0,1,0,0,0,66,66,66,,,,,,,,,,,,,,,,,,,,,,,,,,,,,,20,19,male,20,2022_May_10_1411,Partial repeat,2021.2.3,59.85400428316565,
2,4,0,1,3,2,2,2,1,0,0,1,0,0,0,0,67,67,67,0,0,0,0,,,,,,,626.7481038998812,None,627.5004236996174,None,628.5149090997875,None,s,1,0.7497605998069048,628.5149090997875,None,None,None,,,,,,,20,19,male,20,2022_May_10_1411,Partial repeat,2021.2.3,59.85400428316565,
2,4,0,1,3,2,2,2,1,0,0,1,0,0,0,0,67,67,67,1,0,1,0,,,,,,,,,629.2730513997376,None,630.0849431995302,None,l,1,0.6677190996706486,630.0849431995302,None,None,None,,,,,,,20,19,male,20,2022_May_10_1411,Partial repeat,2021.2.3,59.85400428316565,
2,4,0,1,3,2,2,2,1,0,0,1,0,0,0,0,67,67,67,,,,,,,,,,,,,,,,,,,,,,,,,,,,,,20,19,male,20,2022_May_10_1411,Partial repeat,2021.2.3,59.85400428316565,
2,5,0,1,2,2,2,1,1,0,1,0,0,0,0,0,68,68,68,0,0,0,0,,,,,,,630.7814541012049,None,632.1764167994261,None,633.0236419998109,None,s,1,0.753004901111126,633.0236419998109,None,None,None,,,,,,,20,19,male,20,2022_May_10_1411,Partial repeat,2021.2.3,59.85400428316565,
2,5,0,1,2,2,2,1,1,0,1,0,0,0,0,0,68,68,68,1,0,1,0,,,,,,,,,633.7979429010302,None,634.7773666009307,None,l,1,0.6792943011969328,634.7773666009307,None,None,None,,,,,,,20,19,male,20,2022_May_10_1411,Partial repeat,2021.2.3,59.85400428316565,
2,5,0,1,2,2,2,1,1,0,1,0,0,0,0,0,68,68,68,,,,,,,,,,,,,,,,,,,,,,,,,,,,,,20,19,male,20,2022_May_10_1411,Partial repeat,2021.2.3,59.85400428316565,
6,4,0,1,2,2,2,2,0,0,1,1,1,0,0,0,69,69,69,0,0,0,0,,,,,,,635.4769944995642,None,635.8168657999486,None,636.5805505998433,None,l,1,0.7161187995225191,636.5805505998433,None,None,None,,,,,,,20,19,male,20,2022_May_10_1411,Partial repeat,2021.2.3,59.85400428316565,
6,4,0,1,2,2,2,2,0,0,1,1,1,0,0,0,69,69,69,1,0,1,0,,,,,,,,,637.3119991011918,None,638.0500096008182,None,s,0,0.5906540006399155,638.0500096008182,None,638.6584649998695,None,,,,,,,20,19,male,20,2022_May_10_1411,Partial repeat,2021.2.3,59.85400428316565,
6,4,0,1,2,2,2,2,0,0,1,1,1,0,0,0,69,69,69,,,,,,,,,,,,,,,,,,,,,,,,,,,,,,20,19,male,20,2022_May_10_1411,Partial repeat,2021.2.3,59.85400428316565,
1,3,0,1,2,3,2,1,1,1,0,0,1,0,0,0,70,70,70,0,0,0,0,,,,,,,639.1734047997743,None,639.791180299595,None,640.5883163008839,None,s,1,0.6123342998325825,640.5883163008839,None,None,None,,,,,,,20,19,male,20,2022_May_10_1411,Partial repeat,2021.2.3,59.85400428316565,
1,3,0,1,2,3,2,1,1,1,0,0,1,0,0,0,70,70,70,1,0,1,0,,,,,,,,,641.2142849005759,None,642.1249796003103,None,s,1,0.8276722002774477,642.1249796003103,None,None,None,,,,,,,20,19,male,20,2022_May_10_1411,Partial repeat,2021.2.3,59.85400428316565,
1,3,0,1,2,3,2,1,1,1,0,0,1,0,0,0,70,70,70,,,,,,,,,,,,,,,,,,,,,,,,,,,,,,20,19,male,20,2022_May_10_1411,Partial repeat,2021.2.3,59.85400428316565,
3,7,0,1,3,2,1,1,1,1,0,1,1,0,0,0,71,71,71,0,0,0,0,,,,,,,642.9762153010815,None,643.5318558998406,None,644.3957813996822,None,s,1,0.5648707002401352,644.3957813996822,None,None,None,,,,,,,20,19,male,20,2022_May_10_1411,Partial repeat,2021.2.3,59.85400428316565,
3,7,0,1,3,2,1,1,1,1,0,1,1,0,0,0,71,71,71,1,0,1,0,,,,,,,,,644.9794571008533,None,645.9331892002374,None,s,1,0.7634525001049042,645.9331892002374,None,None,None,,,,,,,20,19,male,20,2022_May_10_1411,Partial repeat,2021.2.3,59.85400428316565,
3,7,0,1,3,2,1,1,1,1,0,1,1,0,0,0,71,71,71,,,,,,,,,,,,,,,,,,,,,,,,,,,,,,20,19,male,20,2022_May_10_1411,Partial repeat,2021.2.3,59.85400428316565,
3,1,0,1,2,2,2,1,1,1,1,0,1,0,0,0,72,72,72,0,0,0,0,,,,,,,646.7151677012444,None,647.1388681996614,None,648.1365850996226,None,s,1,0.6400640998035669,648.1365850996226,None,None,None,,,,,,,20,19,male,20,2022_May_10_1411,Partial repeat,2021.2.3,59.85400428316565,
3,1,0,1,2,2,2,1,1,1,1,0,1,0,0,0,72,72,72,1,0,1,0,,,,,,,,,648.8013156000525,None,649.6558756008744,None,s,1,0.6327054984867573,649.6558756008744,None,None,None,,,,,,,20,19,male,20,2022_May_10_1411,Partial repeat,2021.2.3,59.85400428316565,
3,1,0,1,2,2,2,1,1,1,1,0,1,0,0,0,72,72,72,,,,,,,,,,,,,,,,,,,,,,,,,,,,,,20,19,male,20,2022_May_10_1411,Partial repeat,2021.2.3,59.85400428316565,
6,2,0,1,3,3,1,2,1,1,1,0,1,0,0,0,73,73,73,0,0,0,0,,,,,,,650.304489299655,None,650.5789168998599,None,651.577416099608,None,s,1,0.6952327992767096,651.577416099608,None,None,None,,,,,,,20,19,male,20,2022_May_10_1411,Partial repeat,2021.2.3,59.85400428316565,
6,2,0,1,3,3,1,2,1,1,1,0,1,0,0,0,73,73,73,1,0,1,0,,,,,,,,,652.2907069008797,None,653.2799990996718,None,s,1,0.6567406989634037,653.2799990996718,None,None,None,,,,,,,20,19,male,20,2022_May_10_1411,Partial repeat,2021.2.3,59.85400428316565,
6,2,0,1,3,3,1,2,1,1,1,0,1,0,0,0,73,73,73,,,,,,,,,,,,,,,,,,,,,,,,,,,,,,20,19,male,20,2022_May_10_1411,Partial repeat,2021.2.3,59.85400428316565,
8,7,0,1,3,3,1,1,0,0,1,1,1,0,0,0,74,74,74,0,0,0,0,,,,,,,653.9492821004242,None,654.2025917004794,None,655.166922500357,None,l,1,0.64176269993186,655.166922500357,None,None,None,,,,,,,20,19,male,20,2022_May_10_1411,Partial repeat,2021.2.3,59.85400428316565,
8,7,0,1,3,3,1,1,0,0,1,1,1,0,0,0,74,74,74,1,0,1,0,,,,,,,,,655.8366640005261,None,656.6702036000788,None,l,1,0.6104342993348837,656.6702036000788,None,None,None,,,,,,,20,19,male,20,2022_May_10_1411,Partial repeat,2021.2.3,59.85400428316565,
8,7,0,1,3,3,1,1,0,0,1,1,1,0,0,0,74,74,74,,,,,,,,,,,,,,,,,,,,,,,,,,,,,,20,19,male,20,2022_May_10_1411,Partial repeat,2021.2.3,59.85400428316565,
8,1,0,1,2,3,2,2,1,1,0,1,1,0,0,0,75,75,75,0,0,0,0,,,,,,,657.302176700905,None,657.5758085995913,None,658.5075286012143,None,s,1,0.6451195012778044,658.5075286012143,None,None,None,,,,,,,20,19,male,20,2022_May_10_1411,Partial repeat,2021.2.3,59.85400428316565,
8,1,0,1,2,3,2,2,1,1,0,1,1,0,0,0,75,75,75,1,0,1,0,,,,,,,,,659.1746900994331,None,659.9258500002325,None,s,1,0.5627888012677431,659.9258500002325,None,None,None,,,,,,,20,19,male,20,2022_May_10_1411,Partial repeat,2021.2.3,59.85400428316565,
8,1,0,1,2,3,2,2,1,1,0,1,1,0,0,0,75,75,75,,,,,,,,,,,,,,,,,,,,,,,,,,,,,,20,19,male,20,2022_May_10_1411,Partial repeat,2021.2.3,59.85400428316565,
7,7,0,1,2,2,2,2,1,0,1,1,0,0,0,0,76,76,76,0,0,0,0,,,,,,,660.5116543006152,None,660.7653986997902,None,661.712760200724,None,s,1,0.6079612001776695,661.712760200724,None,None,None,,,,,,,20,19,male,20,2022_May_10_1411,Partial repeat,2021.2.3,59.85400428316565,
7,7,0,1,2,2,2,2,1,0,1,1,0,0,0,0,76,76,76,1,0,1,0,,,,,,,,,662.3305652011186,None,663.232382601127,None,l,1,0.5362924002110958,663.232382601127,None,None,None,,,,,,,20,19,male,20,2022_May_10_1411,Partial repeat,2021.2.3,59.85400428316565,
7,7,0,1,2,2,2,2,1,0,1,1,0,0,0,0,76,76,76,,,,,,,,,,,,,,,,,,,,,,,,,,,,,,20,19,male,20,2022_May_10_1411,Partial repeat,2021.2.3,59.85400428316565,
4,5,0,1,3,2,2,2,1,1,0,1,1,0,0,0,77,77,77,0,0,0,0,,,,,,,663.779149800539,None,664.0217450000346,None,664.9526348002255,None,s,1,0.6640051994472742,664.9526348002255,None,None,None,,,,,,,20,19,male,20,2022_May_10_1411,Partial repeat,2021.2.3,59.85400428316565,
4,5,0,1,3,2,2,2,1,1,0,1,1,0,0,0,77,77,77,1,0,1,0,,,,,,,,,665.6250852998346,None,666.5223121996969,None,s,1,0.49445110000669956,666.5223121996969,None,None,None,,,,,,,20,19,male,20,2022_May_10_1411,Partial repeat,2021.2.3,59.85400428316565,
4,5,0,1,3,2,2,2,1,1,0,1,1,0,0,0,77,77,77,,,,,,,,,,,,,,,,,,,,,,,,,,,,,,20,19,male,20,2022_May_10_1411,Partial repeat,2021.2.3,59.85400428316565,
2,2,0,1,3,3,2,2,1,0,1,1,0,0,0,0,78,78,78,0,0,0,0,,,,,,,667.0482877008617,None,667.3782150000334,None,668.3090046010911,None,s,1,0.6356342006474733,668.3090046010911,None,None,None,,,,,,,20,19,male,20,2022_May_10_1411,Partial repeat,2021.2.3,59.85400428316565,
2,2,0,1,3,3,2,2,1,0,1,1,0,0,0,0,78,78,78,1,0,1,0,,,,,,,,,668.9585207011551,None,669.8118198998272,None,l,1,0.764792000874877,669.8118198998272,None,None,None,,,,,,,20,19,male,20,2022_May_10_1411,Partial repeat,2021.2.3,59.85400428316565,
2,2,0,1,3,3,2,2,1,0,1,1,0,0,0,0,78,78,78,,,,,,,,,,,,,,,,,,,,,,,,,,,,,,20,19,male,20,2022_May_10_1411,Partial repeat,2021.2.3,59.85400428316565,
7,5,0,1,2,2,1,2,1,1,1,0,1,0,0,0,79,79,79,0,0,0,0,,,,,,,670.5939828995615,None,670.8182370997965,None,671.6319901999086,None,s,1,0.5606519002467394,671.6319901999086,None,None,None,,,,,,,20,19,male,20,2022_May_10_1411,Partial repeat,2021.2.3,59.85400428316565,
7,5,0,1,2,2,1,2,1,1,1,0,1,0,0,0,79,79,79,1,0,1,0,,,,,,,,,672.2146169003099,None,673.2019004002213,None,s,1,0.5827396996319294,673.2019004002213,None,None,None,,,,,,,20,19,male,20,2022_May_10_1411,Partial repeat,2021.2.3,59.85400428316565,
7,5,0,1,2,2,1,2,1,1,1,0,1,0,0,0,79,79,79,,,,,,,,,,,,,,,,,,,,,,,,,,,,,,20,19,male,20,2022_May_10_1411,Partial repeat,2021.2.3,59.85400428316565,
2,3,0,1,3,3,2,2,1,1,1,1,1,0,0,0,80,80,80,0,0,0,0,,,,,,,673.8123188000172,None,674.0244897995144,None,674.7722781002522,None,s,1,0.7803494986146688,674.7722781002522,None,None,None,,,,,,,20,19,male,20,2022_May_10_1411,Partial repeat,2021.2.3,59.85400428316565,
2,3,0,1,3,3,2,2,1,1,1,1,1,0,0,0,80,80,80,1,0,1,0,,,,,,,,,675.5698752012104,None,676.5919726993889,None,s,1,0.5366393011063337,676.5919726993889,None,None,None,,,,,,,20,19,male,20,2022_May_10_1411,Partial repeat,2021.2.3,59.85400428316565,
2,3,0,1,3,3,2,2,1,1,1,1,1,0,0,0,80,80,80,,,,,,,,,,,,,,,,,,,,,,,,,,,,,,20,19,male,20,2022_May_10_1411,Partial repeat,2021.2.3,59.85400428316565,
1,1,0,1,2,2,1,1,0,0,1,1,1,0,0,0,81,81,81,0,0,0,0,,,,,,,677.1599442996085,None,677.3976588007063,None,678.2116238996387,None,l,1,0.7169854994863272,678.2116238996387,None,None,None,,,,,,,20,19,male,20,2022_May_10_1411,Partial repeat,2021.2.3,59.85400428316565,
1,1,0,1,2,2,1,1,0,0,1,1,1,0,0,0,81,81,81,1,0,1,0,,,,,,,,,678.9460134003311,None,679.8316401001066,None,l,1,0.43297670036554337,679.8316401001066,None,None,None,,,,,,,20,19,male,20,2022_May_10_1411,Partial repeat,2021.2.3,59.85400428316565,
1,1,0,1,2,2,1,1,0,0,1,1,1,0,0,0,81,81,81,,,,,,,,,,,,,,,,,,,,,,,,,,,,,,20,19,male,20,2022_May_10_1411,Partial repeat,2021.2.3,59.85400428316565,
7,6,0,1,2,2,2,2,1,1,1,1,1,0,0,0,82,82,82,0,0,0,0,,,,,,,680.2937294002622,None,680.5204815994948,None,681.4176703002304,None,s,1,0.6149330995976925,681.4176703002304,None,None,None,,,,,,,20,19,male,20,2022_May_10_1411,Partial repeat,2021.2.3,59.85400428316565,
7,6,0,1,2,2,2,2,1,1,1,1,1,0,0,0,82,82,82,1,0,1,0,,,,,,,,,682.0410804003477,None,682.8706334009767,None,s,1,0.5219996012747288,682.8706334009767,None,None,None,,,,,,,20,19,male,20,2022_May_10_1411,Partial repeat,2021.2.3,59.85400428316565,
7,6,0,1,2,2,2,2,1,1,1,1,1,0,0,0,82,82,82,,,,,,,,,,,,,,,,,,,,,,,,,,,,,,20,19,male,20,2022_May_10_1411,Partial repeat,2021.2.3,59.85400428316565,
3,6,0,1,2,3,2,1,1,0,0,0,0,0,0,0,83,83,83,0,0,0,0,,,,,,,683.421464599669,None,683.6431457009166,None,684.5406778994948,None,s,1,0.5879541002213955,684.5406778994948,None,None,None,,,,,,,20,19,male,20,2022_May_10_1411,Partial repeat,2021.2.3,59.85400428316565,
3,6,0,1,2,3,2,1,1,0,0,0,0,0,0,0,83,83,83,1,0,1,0,,,,,,,,,685.1477926000953,None,686.0435565002263,None,l,1,0.6130787990987301,686.0435565002263,None,None,None,,,,,,,20,19,male,20,2022_May_10_1411,Partial repeat,2021.2.3,59.85400428316565,
3,6,0,1,2,3,2,1,1,0,0,0,0,0,0,0,83,83,83,,,,,,,,,,,,,,,,,,,,,,,,,,,,,,20,19,male,20,2022_May_10_1411,Partial repeat,2021.2.3,59.85400428316565,
1,8,0,1,3,2,2,2,0,0,0,1,1,0,0,0,84,84,84,0,0,0,0,,,,,,,686.673359900713,None,686.8994995001704,None,687.7977066002786,None,l,1,0.7149199992418289,687.7977066002786,None,None,None,,,,,,,20,19,male,20,2022_May_10_1411,Partial repeat,2021.2.3,59.85400428316565,
1,8,0,1,3,2,2,2,0,0,0,1,1,0,0,0,84,84,84,1,0,1,0,,,,,,,,,688.5303751993924,None,689.3168243002146,None,l,1,0.49983470141887665,689.3168243002146,None,None,None,,,,,,,20,19,male,20,2022_May_10_1411,Partial repeat,2021.2.3,59.85400428316565,
1,8,0,1,3,2,2,2,0,0,0,1,1,0,0,0,84,84,84,,,,,,,,,,,,,,,,,,,,,,,,,,,,,,20,19,male,20,2022_May_10_1411,Partial repeat,2021.2.3,59.85400428316565,
4,6,0,1,3,2,1,2,1,0,0,0,0,0,0,0,85,85,85,0,0,0,0,,,,,,,689.8413519002497,None,690.4898876994848,None,691.2538184002042,None,s,1,0.8428073991090059,691.2538184002042,None,None,None,,,,,,,20,19,male,20,2022_May_10_1411,Partial repeat,2021.2.3,59.85400428316565,
4,6,0,1,3,2,1,2,1,0,0,0,0,0,0,0,85,85,85,1,0,1,0,,,,,,,,,692.1151916012168,None,693.0072186999023,None,l,1,0.6254407986998558,693.0072186999023,None,None,None,,,,,,,20,19,male,20,2022_May_10_1411,Partial repeat,2021.2.3,59.85400428316565,
4,6,0,1,3,2,1,2,1,0,0,0,0,0,0,0,85,85,85,,,,,,,,,,,,,,,,,,,,,,,,,,,,,,20,19,male,20,2022_May_10_1411,Partial repeat,2021.2.3,59.85400428316565,
8,5,0,1,2,3,2,2,0,0,0,1,1,0,0,0,86,86,86,0,0,0,0,,,,,,,693.6626105997711,None,693.8965151011944,None,694.6935316994786,None,l,1,0.7150972988456488,694.6935316994786,None,None,None,,,,,,,20,19,male,20,2022_May_10_1411,Partial repeat,2021.2.3,59.85400428316565,
8,5,0,1,2,3,2,2,0,0,0,1,1,0,0,0,86,86,86,1,0,1,0,,,,,,,,,695.4247262999415,None,696.2800158001482,None,l,1,0.5926337987184525,696.2800158001482,None,None,None,,,,,,,20,19,male,20,2022_May_10_1411,Partial repeat,2021.2.3,59.85400428316565,
8,5,0,1,2,3,2,2,0,0,0,1,1,0,0,0,86,86,86,,,,,,,,,,,,,,,,,,,,,,,,,,,,,,20,19,male,20,2022_May_10_1411,Partial repeat,2021.2.3,59.85400428316565,
8,6,0,1,3,2,1,1,1,0,0,1,0,0,0,0,87,87,87,0,0,0,0,,,,,,,696.892738699913,None,697.1027489006519,None,698.0835771001875,None,s,1,0.6770488005131483,698.0835771001875,None,None,None,,,,,,,20,19,male,20,2022_May_10_1411,Partial repeat,2021.2.3,59.85400428316565,
8,6,0,1,3,2,1,1,1,0,0,1,0,0,0,0,87,87,87,1,0,1,0,,,,,,,,,698.7757326997817,None,699.6365721002221,None,l,1,0.5560865998268127,699.6365721002221,None,None,None,,,,,,,20,19,male,20,2022_May_10_1411,Partial repeat,2021.2.3,59.85400428316565,
8,6,0,1,3,2,1,1,1,0,0,1,0,0,0,0,87,87,87,,,,,,,,,,,,,,,,,,,,,,,,,,,,,,20,19,male,20,2022_May_10_1411,Partial repeat,2021.2.3,59.85400428316565,
5,8,0,1,2,3,1,1,0,0,0,1,1,0,0,0,88,88,88,0,0,0,0,,,,,,,700.2030565999448,None,700.8099662009627,None,701.6407765001059,None,l,1,0.5918159000575542,701.6407765001059,None,None,None,,,,,,,20,19,male,20,2022_May_10_1411,Partial repeat,2021.2.3,59.85400428316565,
5,8,0,1,2,3,1,1,0,0,0,1,1,0,0,0,88,88,88,1,0,1,0,,,,,,,,,702.2498483005911,None,703.0602145995945,None,l,1,0.6203729007393122,703.0602145995945,None,None,None,,,,,,,20,19,male,20,2022_May_10_1411,Partial repeat,2021.2.3,59.85400428316565,
5,8,0,1,2,3,1,1,0,0,0,1,1,0,0,0,88,88,88,,,,,,,,,,,,,,,,,,,,,,,,,,,,,,20,19,male,20,2022_May_10_1411,Partial repeat,2021.2.3,59.85400428316565,
1,6,0,1,2,2,1,2,0,0,1,0,1,0,0,0,89,89,89,0,0,0,0,,,,,,,703.7095624003559,None,705.8029980007559,None,706.6336879003793,None,l,1,0.5909300986677408,706.6336879003793,None,None,None,,,,,,,20,19,male,20,2022_May_10_1411,Partial repeat,2021.2.3,59.85400428316565,
1,6,0,1,2,2,1,2,0,0,1,0,1,0,0,0,89,89,89,1,0,1,0,,,,,,,,,707.2386674005538,None,707.9696813002229,None,l,1,0.6229064986109734,707.9696813002229,None,None,None,,,,,,,20,19,male,20,2022_May_10_1411,Partial repeat,2021.2.3,59.85400428316565,
1,6,0,1,2,2,1,2,0,0,1,0,1,0,0,0,89,89,89,,,,,,,,,,,,,,,,,,,,,,,,,,,,,,20,19,male,20,2022_May_10_1411,Partial repeat,2021.2.3,59.85400428316565,
7,4,0,1,2,3,1,1,1,1,0,1,1,0,0,0,90,90,90,0,0,0,0,,,,,,,708.6033920012414,None,709.0927184000611,None,710.0735464002937,None,s,1,0.5670772008597851,710.0735464002937,None,None,None,,,,,,,20,19,male,20,2022_May_10_1411,Partial repeat,2021.2.3,59.85400428316565,
7,4,0,1,2,3,1,1,1,1,0,1,1,0,0,0,90,90,90,1,0,1,0,,,,,,,,,710.6607836000621,None,711.6265498008579,None,s,1,0.6060608997941017,711.6265498008579,None,None,None,,,,,,,20,19,male,20,2022_May_10_1411,Partial repeat,2021.2.3,59.85400428316565,
7,4,0,1,2,3,1,1,1,1,0,1,1,0,0,0,90,90,90,,,,,,,,,,,,,,,,,,,,,,,,,,,,,,20,19,male,20,2022_May_10_1411,Partial repeat,2021.2.3,59.85400428316565,
7,1,0,1,3,3,1,2,0,0,1,0,1,0,0,0,91,91,91,0,0,0,0,,,,,,,712.2582342997193,None,712.7164406999946,None,713.580635400489,None,l,1,0.6359505001455545,713.580635400489,None,None,None,,,,,,,20,19,male,20,2022_May_10_1411,Partial repeat,2021.2.3,59.85400428316565,
7,1,0,1,3,3,1,2,0,0,1,0,1,0,0,0,91,91,91,1,0,1,0,,,,,,,,,714.2309237010777,None,715.1511516999453,None,l,1,0.5854953993111849,715.1511516999453,None,None,None,,,,,,,20,19,male,20,2022_May_10_1411,Partial repeat,2021.2.3,59.85400428316565,
7,1,0,1,3,3,1,2,0,0,1,0,1,0,0,0,91,91,91,,,,,,,,,,,,,,,,,,,,,,,,,,,,,,20,19,male,20,2022_May_10_1411,Partial repeat,2021.2.3,59.85400428316565,
4,3,0,1,3,3,1,1,1,0,1,1,0,0,0,0,92,92,92,0,0,0,0,,,,,,,715.7600234001875,None,716.239798700437,None,717.1716179009527,None,s,1,0.628992099314928,717.1716179009527,None,None,None,,,,,,,20,19,male,20,2022_May_10_1411,Partial repeat,2021.2.3,59.85400428316565,
4,3,0,1,3,3,1,1,1,0,1,1,0,0,0,0,92,92,92,1,0,1,0,,,,,,,,,717.8171248994768,None,718.6905199997127,None,l,1,0.7981538996100426,718.6905199997127,None,None,None,,,,,,,20,19,male,20,2022_May_10_1411,Partial repeat,2021.2.3,59.85400428316565,
4,3,0,1,3,3,1,1,1,0,1,1,0,0,0,0,92,92,92,,,,,,,,,,,,,,,,,,,,,,,,,,,,,,20,19,male,20,2022_May_10_1411,Partial repeat,2021.2.3,59.85400428316565,
3,5,0,1,2,3,1,2,0,1,0,0,0,0,0,0,93,93,93,0,0,0,0,,,,,,,719.5202581994236,None,719.7802783995867,None,720.7943724002689,None,l,1,0.8382268007844687,720.7943724002689,None,None,None,,,,,,,20,19,male,20,2022_May_10_1411,Partial repeat,2021.2.3,59.85400428316565,
3,5,0,1,2,3,1,2,0,1,0,0,0,0,0,0,93,93,93,1,0,1,0,,,,,,,,,721.6411448996514,None,722.4475216995925,None,s,1,0.4811177998781204,722.4475216995925,None,None,None,,,,,,,20,19,male,20,2022_May_10_1411,Partial repeat,2021.2.3,59.85400428316565,
3,5,0,1,2,3,1,2,0,1,0,0,0,0,0,0,93,93,93,,,,,,,,,,,,,,,,,,,,,,,,,,,,,,20,19,male,20,2022_May_10_1411,Partial repeat,2021.2.3,59.85400428316565,
5,3,0,1,2,2,1,2,1,0,1,0,0,0,0,0,94,94,94,0,0,0,0,,,,,,,722.9560426995158,None,723.287023101002,None,724.1175616998225,None,s,1,0.53904590010643,724.1175616998225,None,None,None,,,,,,,20,19,male,20,2022_May_10_1411,Partial repeat,2021.2.3,59.85400428316565,
5,3,0,1,2,2,1,2,1,0,1,0,0,0,0,0,94,94,94,1,0,1,0,,,,,,,,,724.6820276007056,None,725.4880084004253,None,l,1,0.7526357006281614,725.4880084004253,None,None,None,,,,,,,20,19,male,20,2022_May_10_1411,Partial repeat,2021.2.3,59.85400428316565,
5,3,0,1,2,2,1,2,1,0,1,0,0,0,0,0,94,94,94,,,,,,,,,,,,,,,,,,,,,,,,,,,,,,20,19,male,20,2022_May_10_1411,Partial repeat,2021.2.3,59.85400428316565,
8,2,0,1,2,3,1,1,0,1,0,1,0,0,0,0,95,95,95,0,0,0,0,,,,,,,726.2708388995379,None,726.710338100791,None,727.5416139997542,None,l,1,0.6109931990504265,727.5416139997542,None,None,None,,,,,,,20,19,male,20,2022_May_10_1411,Partial repeat,2021.2.3,59.85400428316565,
8,2,0,1,2,3,1,1,0,1,0,1,0,0,0,0,95,95,95,1,0,1,0,,,,,,,,,728.167354401201,None,728.927265400067,None,s,1,0.6173420995473862,728.927265400067,None,None,None,,,,,,,20,19,male,20,2022_May_10_1411,Partial repeat,2021.2.3,59.85400428316565,
8,2,0,1,2,3,1,1,0,1,0,1,0,0,0,0,95,95,95,,,,,,,,,,,,,,,,,,,,,,,,,,,,,,20,19,male,20,2022_May_10_1411,Partial repeat,2021.2.3,59.85400428316565,
2,6,0,1,3,2,2,2,0,1,0,1,0,0,0,0,96,96,96,0,0,0,0,,,,,,,729.5630296003073,None,730.1335875000805,None,730.8639605995268,None,l,1,0.7447593994438648,730.8639605995268,None,None,None,,,,,,,20,19,male,20,2022_May_10_1411,Partial repeat,2021.2.3,59.85400428316565,
2,6,0,1,3,2,2,2,0,1,0,1,0,0,0,0,96,96,96,1,0,1,0,,,,,,,,,731.6187108997256,None,732.3668079003692,None,s,1,0.6178061012178659,732.3668079003692,None,None,None,,,,,,,20,19,male,20,2022_May_10_1411,Partial repeat,2021.2.3,59.85400428316565,
2,6,0,1,3,2,2,2,0,1,0,1,0,0,0,0,96,96,96,,,,,,,,,,,,,,,,,,,,,,,,,,,,,,20,19,male,20,2022_May_10_1411,Partial repeat,2021.2.3,59.85400428316565,
6,6,0,1,3,2,1,2,0,0,0,0,1,0,0,0,97,97,97,0,0,0,0,,,,,,,733.0020698010921,None,733.3899953998625,None,734.2708988003433,None,l,1,0.6337357014417648,734.2708988003433,None,None,None,,,,,,,20,19,male,20,2022_May_10_1411,Partial repeat,2021.2.3,59.85400428316565,
6,6,0,1,3,2,1,2,0,0,0,0,1,0,0,0,97,97,97,1,0,1,0,,,,,,,,,734.920794300735,None,735.7906141001731,None,l,1,0.45003410056233406,735.7906141001731,None,None,None,,,,,,,20,19,male,20,2022_May_10_1411,Partial repeat,2021.2.3,59.85400428316565,
6,6,0,1,3,2,1,2,0,0,0,0,1,0,0,0,97,97,97,,,,,,,,,,,,,,,,,,,,,,,,,,,,,,20,19,male,20,2022_May_10_1411,Partial repeat,2021.2.3,59.85400428316565,
3,3,0,1,3,2,2,1,0,0,0,0,1,0,0,0,98,98,98,0,0,0,0,,,,,,,736.2526390012354,None,736.6797378994524,None,737.6772304009646,None,l,1,0.6753652989864349,737.6772304009646,None,None,None,,,,,,,20,19,male,20,2022_May_10_1411,Partial repeat,2021.2.3,59.85400428316565,
3,3,0,1,3,2,2,1,0,0,0,0,1,0,0,0,98,98,98,1,0,1,0,,,,,,,,,738.3735988996923,None,739.29725600034,None,l,1,0.5674192998558283,739.29725600034,None,None,None,,,,,,,20,19,male,20,2022_May_10_1411,Partial repeat,2021.2.3,59.85400428316565,
3,3,0,1,3,2,2,1,0,0,0,0,1,0,0,0,98,98,98,,,,,,,,,,,,,,,,,,,,,,,,,,,,,,20,19,male,20,2022_May_10_1411,Partial repeat,2021.2.3,59.85400428316565,
7,2,0,1,2,2,2,1,0,1,1,0,0,0,0,0,99,99,99,0,0,0,0,,,,,,,739.8901448994875,None,740.3702525999397,None,741.3188675995916,None,l,1,0.8097299002110958,741.3188675995916,None,None,None,,,,,,,20,19,male,20,2022_May_10_1411,Partial repeat,2021.2.3,59.85400428316565,
7,2,0,1,2,2,2,1,0,1,1,0,0,0,0,0,99,99,99,1,0,1,0,,,,,,,,,742.1454077009112,None,742.9207250997424,None,s,1,0.6718712002038956,742.9207250997424,None,None,None,,,,,,,20,19,male,20,2022_May_10_1411,Partial repeat,2021.2.3,59.85400428316565,
7,2,0,1,2,2,2,1,0,1,1,0,0,0,0,0,99,99,99,,,,,,,,,,,,,,,,,,,,,,,,,,,,,,20,19,male,20,2022_May_10_1411,Partial repeat,2021.2.3,59.85400428316565,
2,1,0,1,3,2,1,2,1,1,0,0,1,0,0,0,100,100,100,0,0,0,0,,,,,,,743.6167182009667,None,743.9605455994606,None,744.9413179010153,None,s,1,0.5952751990407705,744.9413179010153,None,None,None,,,,,,,20,19,male,20,2022_May_10_1411,Partial repeat,2021.2.3,59.85400428316565,
2,1,0,1,3,2,1,2,1,1,0,0,1,0,0,0,100,100,100,1,0,1,0,,,,,,,,,745.5482884999365,None,746.4783961009234,None,s,1,0.570226401090622,746.4783961009234,None,None,None,,,,,,,20,19,male,20,2022_May_10_1411,Partial repeat,2021.2.3,59.85400428316565,
2,1,0,1,3,2,1,2,1,1,0,0,1,0,0,0,100,100,100,,,,,,,,,,,,,,,,,,,,,,,,,,,,,,20,19,male,20,2022_May_10_1411,Partial repeat,2021.2.3,59.85400428316565,
6,5,0,1,3,3,1,2,0,1,1,0,0,0,0,0,101,101,101,0,0,0,0,,,,,,,747.0735858995467,None,747.4507200010121,None,748.2477797009051,None,l,1,0.600866299122572,748.2477797009051,None,None,None,,,,,,,20,19,male,20,2022_May_10_1411,Partial repeat,2021.2.3,59.85400428316565,
6,5,0,1,3,3,1,2,0,1,1,0,0,0,0,0,101,101,101,1,0,1,0,,,,,,,,,748.8764255009592,None,749.8342463001609,None,s,1,0.6783405002206564,749.8342463001609,None,None,None,,,,,,,20,19,male,20,2022_May_10_1411,Partial repeat,2021.2.3,59.85400428316565,
6,5,0,1,3,3,1,2,0,1,1,0,0,0,0,0,101,101,101,,,,,,,,,,,,,,,,,,,,,,,,,,,,,,20,19,male,20,2022_May_10_1411,Partial repeat,2021.2.3,59.85400428316565,
1,2,0,1,2,3,1,1,1,0,0,1,0,0,0,0,102,102,102,0,0,0,0,,,,,,,750.5302999000996,None,751.174607699737,None,751.9051128011197,None,s,1,0.7194430995732546,751.9051128011197,None,None,None,,,,,,,20,19,male,20,2022_May_10_1411,Partial repeat,2021.2.3,59.85400428316565,
1,2,0,1,2,3,1,1,1,0,0,1,0,0,0,0,102,102,102,1,0,1,0,,,,,,,,,752.6415870003402,None,753.6418712995946,None,l,1,1.7187280002981424,753.6418712995946,None,None,None,,,,,,,20,19,male,20,2022_May_10_1411,Partial repeat,2021.2.3,59.85400428316565,
1,2,0,1,2,3,1,1,1,0,0,1,0,0,0,0,102,102,102,,,,,,,,,,,,,,,,,,,,,,,,,,,,,,20,19,male,20,2022_May_10_1411,Partial repeat,2021.2.3,59.85400428316565,
6,7,0,1,2,3,2,1,0,1,0,0,0,0,0,0,103,103,103,0,0,0,0,,,,,,,755.3842629007995,None,755.8001649994403,None,756.6472347006202,None,l,1,0.7294178996235132,756.6472347006202,None,None,None,,,,,,,20,19,male,20,2022_May_10_1411,Partial repeat,2021.2.3,59.85400428316565,
6,7,0,1,2,3,2,1,0,1,0,0,0,0,0,0,103,103,103,1,0,1,0,,,,,,,,,757.3997077010572,None,758.150521600619,None,s,1,0.9220796003937721,758.150521600619,None,None,None,,,,,,,20,19,male,20,2022_May_10_1411,Partial repeat,2021.2.3,59.85400428316565,
6,7,0,1,2,3,2,1,0,1,0,0,0,0,0,0,103,103,103,,,,,,,,,,,,,,,,,,,,,,,,,,,,,,20,19,male,20,2022_May_10_1411,Partial repeat,2021.2.3,59.85400428316565,
4,4,0,1,3,3,1,2,1,0,1,0,0,0,0,0,104,104,104,0,0,0,0,,,,,,,759.101474199444,None,759.5074483007193,None,760.2710935994983,None,s,1,0.6734903007745743,760.2710935994983,None,None,None,,,,,,,20,19,male,20,2022_May_10_1411,Partial repeat,2021.2.3,59.85400428316565,
4,4,0,1,3,3,1,2,1,0,1,0,0,0,0,0,104,104,104,1,0,1,0,,,,,,,,,760.9641372002661,None,761.9580646995455,None,l,1,0.882523300126195,761.9580646995455,None,None,None,,,,,,,20,19,male,20,2022_May_10_1411,Partial repeat,2021.2.3,59.85400428316565,
4,4,0,1,3,3,1,2,1,0,1,0,0,0,0,0,104,104,104,,,,,,,,,,,,,,,,,,,,,,,,,,,,,,20,19,male,20,2022_May_10_1411,Partial repeat,2021.2.3,59.85400428316565,
3,8,0,1,3,3,2,1,0,1,1,0,0,0,0,0,105,105,105,0,0,0,0,,,,,,,762.8568267002702,None,763.1645989008248,None,763.9969513006508,None,l,1,0.6676420997828245,763.9969513006508,None,None,None,,,,,,,20,19,male,20,2022_May_10_1411,Partial repeat,2021.2.3,59.85400428316565,
3,8,0,1,3,3,2,1,0,1,1,0,0,0,0,0,105,105,105,1,0,1,0,,,,,,,,,764.6881997995079,None,765.7152107004076,None,s,1,0.8213785998523235,765.7152107004076,None,None,None,,,,,,,20,19,male,20,2022_May_10_1411,Partial repeat,2021.2.3,59.85400428316565,
3,8,0,1,3,3,2,1,0,1,1,0,0,0,0,0,105,105,105,,,,,,,,,,,,,,,,,,,,,,,,,,,,,,20,19,male,20,2022_May_10_1411,Partial repeat,2021.2.3,59.85400428316565,
4,8,0,1,3,2,2,1,0,1,0,0,0,0,0,0,106,106,106,0,0,0,0,,,,,,,766.5637763012201,None,766.9886649996042,None,767.8870599009097,None,l,1,0.7134953010827303,767.8870599009097,None,None,None,,,,,,,20,19,male,20,2022_May_10_1411,Partial repeat,2021.2.3,59.85400428316565,
4,8,0,1,3,2,2,1,0,1,0,0,0,0,0,0,106,106,106,1,0,1,0,,,,,,,,,768.6209034994245,None,769.3724732995033,None,s,1,0.6841934993863106,769.3724732995033,None,None,None,,,,,,,20,19,male,20,2022_May_10_1411,Partial repeat,2021.2.3,59.85400428316565,
4,8,0,1,3,2,2,1,0,1,0,0,0,0,0,0,106,106,106,,,,,,,,,,,,,,,,,,,,,,,,,,,,,,20,19,male,20,2022_May_10_1411,Partial repeat,2021.2.3,59.85400428316565,
4,2,0,1,2,2,1,1,1,1,1,1,1,0,0,0,107,107,107,0,0,0,0,,,,,,,770.0694907996804,None,770.4621284008026,None,771.2092362996191,None,s,1,0.5993540994822979,771.2092362996191,None,None,None,,,,,,,20,19,male,20,2022_May_10_1411,Partial repeat,2021.2.3,59.85400428316565,
4,2,0,1,2,2,1,1,1,1,1,1,1,0,0,0,107,107,107,1,0,1,0,,,,,,,,,771.8198422007263,None,772.7627543006092,None,s,1,0.7418622002005577,772.7627543006092,None,None,None,,,,,,,20,19,male,20,2022_May_10_1411,Partial repeat,2021.2.3,59.85400428316565,
4,2,0,1,2,2,1,1,1,1,1,1,1,0,0,0,107,107,107,,,,,,,,,,,,,,,,,,,,,,,,,,,,,,20,19,male,20,2022_May_10_1411,Partial repeat,2021.2.3,59.85400428316565,
3,4,0,1,3,2,2,1,1,0,0,0,0,0,0,0,108,108,108,0,0,0,0,,,,,,,773.5232162009925,None,773.7851679008454,None,774.7000051997602,None,s,1,0.5727538000792265,774.7000051997602,None,None,None,,,,,,,20,19,male,20,2022_May_10_1411,Partial repeat,2021.2.3,59.85400428316565,
3,4,0,1,3,2,2,1,1,0,0,0,0,0,0,0,108,108,108,1,0,1,0,,,,,,,,,775.2822632007301,None,776.1522432994097,None,l,1,0.7202849015593529,776.1522432994097,None,None,None,,,,,,,20,19,male,20,2022_May_10_1411,Partial repeat,2021.2.3,59.85400428316565,
3,4,0,1,3,2,2,1,1,0,0,0,0,0,0,0,108,108,108,,,,,,,,,,,,,,,,,,,,,,,,,,,,,,20,19,male,20,2022_May_10_1411,Partial repeat,2021.2.3,59.85400428316565,
8,4,0,1,2,3,1,2,0,0,0,0,1,0,0,0,109,109,109,0,0,0,0,,,,,,,776.8906996995211,None,777.1918834000826,None,777.9725612010807,None,l,1,0.82801310159266,777.9725612010807,None,None,None,,,,,,,20,19,male,20,2022_May_10_1411,Partial repeat,2021.2.3,59.85400428316565,
8,4,0,1,2,3,1,2,0,0,0,0,1,0,0,0,109,109,109,1,0,1,0,,,,,,,,,778.8135423008353,None,779.6932677999139,None,l,1,0.7073995992541313,779.6932677999139,None,None,None,,,,,,,20,19,male,20,2022_May_10_1411,Partial repeat,2021.2.3,59.85400428316565,
8,4,0,1,2,3,1,2,0,0,0,0,1,0,0,0,109,109,109,,,,,,,,,,,,,,,,,,,,,,,,,,,,,,20,19,male,20,2022_May_10_1411,Partial repeat,2021.2.3,59.85400428316565,
5,5,0,1,3,2,1,1,0,0,0,1,1,0,0,0,110,110,110,0,0,0,0,,,,,,,780.4125718008727,None,780.9324615001678,None,781.9299503006041,None,l,1,0.5827312003821135,781.9299503006041,None,None,None,,,,,,,20,19,male,20,2022_May_10_1411,Partial repeat,2021.2.3,59.85400428316565,
5,5,0,1,3,2,1,1,0,0,0,1,1,0,0,0,110,110,110,1,0,1,0,,,,,,,,,782.5233030002564,None,783.4329144004732,None,l,1,0.5196315012872219,783.4329144004732,None,None,None,,,,,,,20,19,male,20,2022_May_10_1411,Partial repeat,2021.2.3,59.85400428316565,
5,5,0,1,3,2,1,1,0,0,0,1,1,0,0,0,110,110,110,,,,,,,,,,,,,,,,,,,,,,,,,,,,,,20,19,male,20,2022_May_10_1411,Partial repeat,2021.2.3,59.85400428316565,
2,7,0,1,3,3,1,1,1,1,1,1,1,0,0,0,111,111,111,0,0,0,0,,,,,,,783.9812110010535,None,784.4392703995109,None,785.2364092003554,None,s,1,0.6201826017349958,785.2364092003554,None,None,None,,,,,,,20,19,male,20,2022_May_10_1411,Partial repeat,2021.2.3,59.85400428316565,
2,7,0,1,3,3,1,1,1,1,1,1,1,0,0,0,111,111,111,1,0,1,0,,,,,,,,,785.8733265995979,None,786.8394421003759,None,s,1,0.6571714002639055,786.8394421003759,None,None,None,,,,,,,20,19,male,20,2022_May_10_1411,Partial repeat,2021.2.3,59.85400428316565,
2,7,0,1,3,3,1,1,1,1,1,1,1,0,0,0,111,111,111,,,,,,,,,,,,,,,,,,,,,,,,,,,,,,20,19,male,20,2022_May_10_1411,Partial repeat,2021.2.3,59.85400428316565,
5,7,0,1,2,2,2,1,0,0,1,0,1,0,0,0,112,112,112,0,0,0,0,,,,,,,787.5142017006874,None,788.0797595009208,None,789.0103965997696,None,l,1,0.6382627990096807,789.0103965997696,None,None,None,,,,,,,20,19,male,20,2022_May_10_1411,Partial repeat,2021.2.3,59.85400428316565,
5,7,0,1,2,2,2,1,0,0,1,0,1,0,0,0,112,112,112,1,0,1,0,,,,,,,,,789.6591811999679,None,790.5800350010395,None,l,1,0.9006125014275312,790.5800350010395,None,None,None,,,,,,,20,19,male,20,2022_May_10_1411,Partial repeat,2021.2.3,59.85400428316565,
5,7,0,1,2,2,2,1,0,0,1,0,1,0,0,0,112,112,112,,,,,,,,,,,,,,,,,,,,,,,,,,,,,,20,19,male,20,2022_May_10_1411,Partial repeat,2021.2.3,59.85400428316565,
6,3,0,1,3,3,2,1,0,0,1,0,1,0,0,0,113,113,113,0,0,0,0,,,,,,,791.4918440002948,None,792.2211277000606,None,793.2025115005672,None,l,1,0.6781539991497993,793.2025115005672,None,None,None,,,,,,,20,19,male,20,2022_May_10_1411,Partial repeat,2021.2.3,59.85400428316565,
6,3,0,1,3,3,2,1,0,0,1,0,1,0,0,0,113,113,113,1,0,1,0,,,,,,,,,793.8906369004399,None,794.8551497012377,None,l,1,0.7694155983626842,794.8551497012377,None,None,None,,,,,,,20,19,male,20,2022_May_10_1411,Partial repeat,2021.2.3,59.85400428316565,
6,3,0,1,3,3,2,1,0,0,1,0,1,0,0,0,113,113,113,,,,,,,,,,,,,,,,,,,,,,,,,,,,,,20,19,male,20,2022_May_10_1411,Partial repeat,2021.2.3,59.85400428316565,
4,7,0,1,2,3,1,2,1,0,0,0,0,0,0,0,114,114,114,0,0,0,0,,,,,,,795.6400828994811,None,796.3124221004546,None,797.2263200003654,None,s,1,0.558244900777936,797.2263200003654,None,None,None,,,,,,,20,19,male,20,2022_May_10_1411,Partial repeat,2021.2.3,59.85400428316565,
4,7,0,1,2,3,1,2,1,0,0,0,0,0,0,0,114,114,114,1,0,1,0,,,,,,,,,797.8087090011686,None,798.6624740008265,None,l,1,0.6501574013382196,798.6624740008265,None,None,None,,,,,,,20,19,male,20,2022_May_10_1411,Partial repeat,2021.2.3,59.85400428316565,
4,7,0,1,2,3,1,2,1,0,0,0,0,0,0,0,114,114,114,,,,,,,,,,,,,,,,,,,,,,,,,,,,,,20,19,male,20,2022_May_10_1411,Partial repeat,2021.2.3,59.85400428316565,
6,1,0,1,2,2,1,2,0,1,1,0,0,0,0,0,115,115,115,0,0,0,0,,,,,,,799.3406298998743,None,799.7022815998644,None,800.6498857010156,None,l,1,0.6547149010002613,800.6498857010156,None,None,None,,,,,,,20,19,male,20,2022_May_10_1411,Partial repeat,2021.2.3,59.85400428316565,
6,1,0,1,2,2,1,2,0,1,1,0,0,0,0,0,115,115,115,1,0,1,0,,,,,,,,,801.3188891001046,None,802.3196296002716,None,s,1,0.5689407996833324,802.3196296002716,None,None,None,,,,,,,20,19,male,20,2022_May_10_1411,Partial repeat,2021.2.3,59.85400428316565,
6,1,0,1,2,2,1,2,0,1,1,0,0,0,0,0,115,115,115,,,,,,,,,,,,,,,,,,,,,,,,,,,,,,20,19,male,20,2022_May_10_1411,Partial repeat,2021.2.3,59.85400428316565,
7,8,0,1,2,2,1,1,0,1,1,1,0,0,0,0,116,116,116,0,0,0,0,,,,,,,802.9102859999985,None,803.1590471994132,None,804.0733426995575,None,l,1,0.5512315984815359,804.0733426995575,None,None,None,,,,,,,20,19,male,20,2022_May_10_1411,Partial repeat,2021.2.3,59.85400428316565,
7,8,0,1,2,2,1,1,0,1,1,1,0,0,0,0,116,116,116,1,0,1,0,,,,,,,,,804.6386061999947,None,805.6094760000706,None,s,1,0.5430067013949156,805.6094760000706,None,None,None,,,,,,,20,19,male,20,2022_May_10_1411,Partial repeat,2021.2.3,59.85400428316565,
7,8,0,1,2,2,1,1,0,1,1,1,0,0,0,0,116,116,116,,,,,,,,,,,,,,,,,,,,,,,,,,,,,,20,19,male,20,2022_May_10_1411,Partial repeat,2021.2.3,59.85400428316565,
1,7,0,1,3,3,1,1,0,1,1,1,0,0,0,0,117,117,117,0,0,0,0,,,,,,,806.1832742001861,None,806.4318217001855,None,807.2290970999748,None,l,1,0.6434759013354778,807.2290970999748,None,None,None,,,,,,,20,19,male,20,2022_May_10_1411,Partial repeat,2021.2.3,59.85400428316565,
1,7,0,1,3,3,1,1,0,1,1,1,0,0,0,0,117,117,117,1,0,1,0,,,,,,,,,807.899515600875,None,808.7823805008084,None,s,1,0.3862046003341675,808.7823805008084,None,None,None,,,,,,,20,19,male,20,2022_May_10_1411,Partial repeat,2021.2.3,59.85400428316565,
1,7,0,1,3,3,1,1,0,1,1,1,0,0,0,0,117,117,117,,,,,,,,,,,,,,,,,,,,,,,,,,,,,,20,19,male,20,2022_May_10_1411,Partial repeat,2021.2.3,59.85400428316565,
7,3,0,1,2,2,1,1,1,0,1,1,0,0,0,0,118,118,118,0,0,0,0,,,,,,,809.1802874002606,None,809.4880325011909,None,810.3354599010199,None,s,1,0.5851084999740124,810.3354599010199,None,None,None,,,,,,,20,19,male,20,2022_May_10_1411,Partial repeat,2021.2.3,59.85400428316565,
7,3,0,1,2,2,1,1,1,0,1,1,0,0,0,0,118,118,118,1,0,1,0,,,,,,,,,810.9421494994313,None,811.7545806001872,None,l,1,0.7500886004418135,811.7545806001872,None,None,None,,,,,,,20,19,male,20,2022_May_10_1411,Partial repeat,2021.2.3,59.85400428316565,
7,3,0,1,2,2,1,1,1,0,1,1,0,0,0,0,118,118,118,,,,,,,,,,,,,,,,,,,,,,,,,,,,,,20,19,male,20,2022_May_10_1411,Partial repeat,2021.2.3,59.85400428316565,
1,4,0,1,3,3,2,2,0,0,1,1,1,0,0,0,119,119,119,0,0,0,0,,,,,,,812.5180297009647,None,812.7941541001201,None,813.7922728005797,None,l,1,0.6644135992974043,813.7922728005797,None,None,None,,,,,,,20,19,male,20,2022_May_10_1411,Partial repeat,2021.2.3,59.85400428316565,
1,4,0,1,3,3,2,2,0,0,1,1,1,0,0,0,119,119,119,1,0,1,0,,,,,,,,,814.4846660997719,None,815.2949749007821,None,l,1,0.5295933000743389,815.2949749007821,None,None,None,,,,,,,20,19,male,20,2022_May_10_1411,Partial repeat,2021.2.3,59.85400428316565,
1,4,0,1,3,3,2,2,0,0,1,1,1,0,0,0,119,119,119,,,,,,,,,,,,,,,,,,,,,,,,,,,,,,20,19,male,20,2022_May_10_1411,Partial repeat,2021.2.3,59.85400428316565,
3,2,0,1,3,3,2,2,0,1,1,1,0,0,0,0,120,120,120,0,0,0,0,,,,,,,815.8450364004821,None,816.5517758000642,None,817.3999482002109,None,l,1,0.5765976998955011,817.3999482002109,None,None,None,,,,,,,20,19,male,20,2022_May_10_1411,Partial repeat,2021.2.3,59.85400428316565,
3,2,0,1,3,3,2,2,0,1,1,1,0,0,0,0,120,120,120,1,0,1,0,,,,,,,,,817.9858518000692,None,818.9881533998996,None,l,0,0.5404437985271215,818.9881533998996,None,819.5581849999726,None,,,,,,,20,19,male,20,2022_May_10_1411,Partial repeat,2021.2.3,59.85400428316565,
3,2,0,1,3,3,2,2,0,1,1,1,0,0,0,0,120,120,120,,,,,,,,,,,,,,,,,,,,,,,,,,,,,,20,19,male,20,2022_May_10_1411,Partial repeat,2021.2.3,59.85400428316565,
2,8,0,1,3,2,1,1,0,1,0,1,0,0,0,0,121,121,121,0,0,0,0,,,,,,,820.0586061999202,None,820.4760023001581,None,821.3401849009097,None,l,1,0.5564099010080099,821.3401849009097,None,None,None,,,,,,,20,19,male,20,2022_May_10_1411,Partial repeat,2021.2.3,59.85400428316565,
2,8,0,1,3,2,1,1,0,1,0,1,0,0,0,0,121,121,121,1,0,1,0,,,,,,,,,821.9046117011458,None,822.7426768001169,None,s,1,0.5858803000301123,822.7426768001169,None,None,None,,,,,,,20,19,male,20,2022_May_10_1411,Partial repeat,2021.2.3,59.85400428316565,
2,8,0,1,3,2,1,1,0,1,0,1,0,0,0,0,121,121,121,,,,,,,,,,,,,,,,,,,,,,,,,,,,,,20,19,male,20,2022_May_10_1411,Partial repeat,2021.2.3,59.85400428316565,
5,2,0,1,2,2,2,2,0,1,1,1,0,0,0,0,122,122,122,0,0,0,0,,,,,,,823.352434201166,None,823.6322195995599,None,824.4459004011005,None,l,1,0.6827271990478039,824.4459004011005,None,None,None,,,,,,,20,19,male,20,2022_May_10_1411,Partial repeat,2021.2.3,59.85400428316565,
5,2,0,1,2,2,2,2,0,1,1,1,0,0,0,0,122,122,122,1,0,1,0,,,,,,,,,825.1366277001798,None,826.0334908012301,None,s,1,0.5910625997930765,826.0334908012301,None,None,None,,,,,,,20,19,male,20,2022_May_10_1411,Partial repeat,2021.2.3,59.85400428316565,
5,2,0,1,2,2,2,2,0,1,1,1,0,0,0,0,122,122,122,,,,,,,,,,,,,,,,,,,,,,,,,,,,,,20,19,male,20,2022_May_10_1411,Partial repeat,2021.2.3,59.85400428316565,
4,1,0,1,2,3,2,2,1,0,0,1,0,0,0,0,123,123,123,0,0,0,0,,,,,,,826.6471689995378,None,826.8384575005621,None,827.8026676997542,None,s,1,0.6138931009918451,827.8026676997542,None,None,None,,,,,,,20,19,male,20,2022_May_10_1411,Partial repeat,2021.2.3,59.85400428316565,
4,1,0,1,2,3,2,2,1,0,0,1,0,0,0,0,123,123,123,1,0,1,0,,,,,,,,,828.4294540993869,None,829.322107899934,None,l,1,0.6464476007968187,829.322107899934,None,None,None,,,,,,,20,19,male,20,2022_May_10_1411,Partial repeat,2021.2.3,59.85400428316565,
4,1,0,1,2,3,2,2,1,0,0,1,0,0,0,0,123,123,123,,,,,,,,,,,,,,,,,,,,,,,,,,,,,,20,19,male,20,2022_May_10_1411,Partial repeat,2021.2.3,59.85400428316565,
8,3,0,1,2,3,2,2,0,1,0,1,0,0,0,0,124,124,124,0,0,0,0,,,,,,,829.9951374996454,None,830.245047500357,None,831.075665300712,None,l,1,0.6208909992128611,831.075665300712,None,None,None,,,,,,,20,19,male,20,2022_May_10_1411,Partial repeat,2021.2.3,59.85400428316565,
8,3,0,1,2,3,2,2,0,1,0,1,0,0,0,0,124,124,124,1,0,1,0,,,,,,,,,831.7197763994336,None,832.5450659003109,None,s,1,0.7114971987903118,832.5450659003109,None,None,None,,,,,,,20,19,male,20,2022_May_10_1411,Partial repeat,2021.2.3,59.85400428316565,
8,3,0,1,2,3,2,2,0,1,0,1,0,0,0,0,124,124,124,,,,,,,,,,,,,,,,,,,,,,,,,,,,,,20,19,male,20,2022_May_10_1411,Partial repeat,2021.2.3,59.85400428316565,
5,4,0,1,3,2,1,2,0,1,0,0,0,0,0,0,125,125,125,0,0,0,0,,,,,,,833.2858962994069,None,833.6015908010304,None,834.3151275999844,None,l,1,0.6214276012033224,834.3151275999844,None,None,None,,,,,,,20,19,male,20,2022_May_10_1411,Partial repeat,2021.2.3,59.85400428316565,
5,4,0,1,3,2,1,2,0,1,0,0,0,0,0,0,125,125,125,1,0,1,0,,,,,,,,,834.9507341012359,None,835.8681444004178,None,s,1,0.6364062000066042,835.8681444004178,None,None,None,,,,,,,20,19,male,20,2022_May_10_1411,Partial repeat,2021.2.3,59.85400428316565,
5,4,0,1,3,2,1,2,0,1,0,0,0,0,0,0,125,125,125,,,,,,,,,,,,,,,,,,,,,,,,,,,,,,20,19,male,20,2022_May_10_1411,Partial repeat,2021.2.3,59.85400428316565,
5,6,0,1,2,3,1,2,1,1,0,0,1,0,0,0,126,126,126,0,0,0,0,,,,,,,836.5247163008898,None,836.7911125011742,None,837.7895916998386,None,s,1,0.6029173005372286,837.7895916998386,None,None,None,,,,,,,20,19,male,20,2022_May_10_1411,Partial repeat,2021.2.3,59.85400428316565,
5,6,0,1,2,3,1,2,1,1,0,0,1,0,0,0,126,126,126,1,0,1,0,,,,,,,,,838.4200771003962,None,839.2248414997011,None,s,1,0.6076925992965698,839.2248414997011,None,None,None,,,,,,,20,19,male,20,2022_May_10_1411,Partial repeat,2021.2.3,59.85400428316565,
5,6,0,1,2,3,1,2,1,1,0,0,1,0,0,0,126,126,126,,,,,,,,,,,,,,,,,,,,,,,,,,,,,,20,19,male,20,2022_May_10_1411,Partial repeat,2021.2.3,59.85400428316565,
1,5,0,1,3,2,2,1,1,1,0,0,1,0,0,0,127,127,127,0,0,0,0,,,,,,,839.8601508997381,None,840.2478232998401,None,841.2631196007133,None,s,1,0.657430000603199,841.2631196007133,None,None,None,,,,,,,20,19,male,20,2022_May_10_1411,Partial repeat,2021.2.3,59.85400428316565,
1,5,0,1,3,2,2,1,1,1,0,0,1,0,0,0,127,127,127,1,0,1,0,,,,,,,,,841.9392684008926,None,842.6984532997012,None,s,1,0.5500978007912636,842.6984532997012,None,None,None,,,,,,,20,19,male,20,2022_May_10_1411,Partial repeat,2021.2.3,59.85400428316565,
1,5,0,1,3,2,2,1,1,1,0,0,1,0,0,0,127,127,127,,,,,,,,,,,,,,,,,,,,,,,,,,,,,,20,19,male,20,2022_May_10_1411,Partial repeat,2021.2.3,59.85400428316565,
5,5,0,1,2,2,1,2,0,0,1,0,1,1,0,0,128,128,128,0,0,0,0,,,,,,,847.247334100306,None,849.4157055001706,None,850.2630103006959,None,l,1,0.6655196007341146,850.2630103006959,None,None,None,,,,,,,20,19,male,20,2022_May_10_1411,Partial repeat,2021.2.3,59.85400428316565,
5,5,0,1,2,2,1,2,0,0,1,0,1,1,0,0,128,128,128,1,0,1,0,,,,,,,,,850.9437416009605,None,851.7157671004534,None,l,1,0.45284169912338257,851.7157671004534,None,None,None,,,,,,,20,19,male,20,2022_May_10_1411,Partial repeat,2021.2.3,59.85400428316565,
5,5,0,1,2,2,1,2,0,0,1,0,1,1,0,0,128,128,128,,,,,,,,,,,,,,,,,,,,,,,,,,,,,,20,19,male,20,2022_May_10_1411,Partial repeat,2021.2.3,59.85400428316565,
5,5,0,1,3,2,1,1,0,1,0,1,0,1,0,0,129,129,129,0,0,0,0,,,,,,,852.196937000379,None,853.3065815009177,None,854.0870230998844,None,l,1,0.5455181002616882,854.0870230998844,None,None,None,,,,,,,20,19,male,20,2022_May_10_1411,Partial repeat,2021.2.3,59.85400428316565,
5,5,0,1,3,2,1,1,0,1,0,1,0,1,0,0,129,129,129,1,0,1,0,,,,,,,,,854.6495730001479,None,855.6067615002394,None,s,1,0.5378146003931761,855.6067615002394,None,None,None,,,,,,,20,19,male,20,2022_May_10_1411,Partial repeat,2021.2.3,59.85400428316565,
5,5,0,1,3,2,1,1,0,1,0,1,0,1,0,0,129,129,129,,,,,,,,,,,,,,,,,,,,,,,,,,,,,,20,19,male,20,2022_May_10_1411,Partial repeat,2021.2.3,59.85400428316565,
5,5,0,1,2,2,1,2,1,0,1,0,0,1,0,0,130,130,130,0,0,0,0,,,,,,,856.1548220999539,None,856.7967198994011,None,857.7107317000628,None,s,1,0.5858145002275705,857.7107317000628,None,None,None,,,,,,,20,19,male,20,2022_May_10_1411,Partial repeat,2021.2.3,59.85400428316565,
5,5,0,1,2,2,1,2,1,0,1,0,0,1,0,0,130,130,130,1,0,1,0,,,,,,,,,858.3219086006284,None,859.1301074009389,None,l,1,0.46243800036609173,859.1301074009389,None,None,None,,,,,,,20,19,male,20,2022_May_10_1411,Partial repeat,2021.2.3,59.85400428316565,
5,5,0,1,2,2,1,2,1,0,1,0,0,1,0,0,130,130,130,,,,,,,,,,,,,,,,,,,,,,,,,,,,,,20,19,male,20,2022_May_10_1411,Partial repeat,2021.2.3,59.85400428316565,
5,5,0,1,2,3,2,2,0,0,0,1,1,1,0,0,131,131,131,0,0,0,0,,,,,,,859.6114847995341,None,860.0029045995325,None,860.8000921998173,None,l,1,0.5444444008171558,860.8000921998173,None,None,None,,,,,,,20,19,male,20,2022_May_10_1411,Partial repeat,2021.2.3,59.85400428316565,
5,5,0,1,2,3,2,2,0,0,0,1,1,1,0,0,131,131,131,1,0,1,0,,,,,,,,,861.3663745000958,None,862.3364043999463,None,l,1,0.47213250026106834,862.3364043999463,None,None,None,,,,,,,20,19,male,20,2022_May_10_1411,Partial repeat,2021.2.3,59.85400428316565,
5,5,0,1,2,3,2,2,0,0,0,1,1,1,0,0,131,131,131,,,,,,,,,,,,,,,,,,,,,,,,,,,,,,20,19,male,20,2022_May_10_1411,Partial repeat,2021.2.3,59.85400428316565,
5,5,0,1,3,3,2,1,0,1,1,0,0,1,0,0,132,132,132,0,0,0,0,,,,,,,862.8389616999775,None,863.2259168997407,None,864.0897286999971,None,l,1,0.4867851994931698,864.0897286999971,None,None,None,,,,,,,20,19,male,20,2022_May_10_1411,Partial repeat,2021.2.3,59.85400428316565,
5,5,0,1,3,3,2,1,0,1,1,0,0,1,0,0,132,132,132,1,0,1,0,,,,,,,,,864.5922270007432,None,865.3600287996233,None,s,1,0.4805437996983528,865.3600287996233,None,None,None,,,,,,,20,19,male,20,2022_May_10_1411,Partial repeat,2021.2.3,59.85400428316565,
5,5,0,1,3,3,2,1,0,1,1,0,0,1,0,0,132,132,132,,,,,,,,,,,,,,,,,,,,,,,,,,,,,,20,19,male,20,2022_May_10_1411,Partial repeat,2021.2.3,59.85400428316565,
5,5,0,1,2,3,1,2,1,0,0,0,0,1,0,0,133,133,133,0,0,0,0,,,,,,,865.8649527002126,None,866.2484619002789,None,867.0621314011514,None,s,1,0.5864100996404886,867.0621314011514,None,None,None,,,,,,,20,19,male,20,2022_May_10_1411,Partial repeat,2021.2.3,59.85400428316565,
5,5,0,1,2,3,1,2,1,0,0,0,0,1,0,0,133,133,133,1,0,1,0,,,,,,,,,867.6646197009832,None,868.6319567002356,None,l,1,0.38466580025851727,868.6319567002356,None,None,None,,,,,,,20,19,male,20,2022_May_10_1411,Partial repeat,2021.2.3,59.85400428316565,
5,5,0,1,2,3,1,2,1,0,0,0,0,1,0,0,133,133,133,,,,,,,,,,,,,,,,,,,,,,,,,,,,,,20,19,male,20,2022_May_10_1411,Partial repeat,2021.2.3,59.85400428316565,
5,5,0,1,2,2,2,1,1,1,1,0,1,1,0,0,134,134,134,0,0,0,0,,,,,,,869.029603401199,None,869.4212755002081,None,870.1684253010899,None,s,1,0.44010530039668083,870.1684253010899,None,None,None,,,,,,,20,19,male,20,2022_May_10_1411,Partial repeat,2021.2.3,59.85400428316565,
5,5,0,1,2,2,2,1,1,1,1,0,1,1,0,0,134,134,134,1,0,1,0,,,,,,,,,870.6229264009744,None,871.5387437995523,None,s,1,0.4058019984513521,871.5387437995523,None,None,None,,,,,,,20,19,male,20,2022_May_10_1411,Partial repeat,2021.2.3,59.85400428316565,
5,5,0,1,2,2,2,1,1,1,1,0,1,1,0,0,134,134,134,,,,,,,,,,,,,,,,,,,,,,,,,,,,,,20,19,male,20,2022_May_10_1411,Partial repeat,2021.2.3,59.85400428316565,
5,5,0,1,2,3,2,1,0,0,0,0,1,1,0,0,135,135,135,0,0,0,0,,,,,,,871.9554345011711,None,872.3436227012426,None,873.1084934994578,None,l,1,0.4921099003404379,873.1084934994578,None,None,None,,,,,,,20,19,male,20,2022_May_10_1411,Partial repeat,2021.2.3,59.85400428316565,
5,5,0,1,2,3,2,1,0,0,0,0,1,1,0,0,135,135,135,1,0,1,0,,,,,,,,,873.6092486009002,None,874.6268889997154,None,l,1,0.3736437000334263,874.6268889997154,None,None,None,,,,,,,20,19,male,20,2022_May_10_1411,Partial repeat,2021.2.3,59.85400428316565,
5,5,0,1,2,3,2,1,0,0,0,0,1,1,0,0,135,135,135,,,,,,,,,,,,,,,,,,,,,,,,,,,,,,20,19,male,20,2022_May_10_1411,Partial repeat,2021.2.3,59.85400428316565,
5,5,0,1,2,2,2,2,1,0,1,1,0,1,0,0,136,136,136,0,0,0,0,,,,,,,875.0229628998786,None,875.2826461996883,None,876.0298347994685,None,s,1,0.4986947011202574,876.0298347994685,None,None,None,,,,,,,20,19,male,20,2022_May_10_1411,Partial repeat,2021.2.3,59.85400428316565,
5,5,0,1,2,2,2,2,1,0,1,1,0,1,0,0,136,136,136,1,0,1,0,,,,,,,,,876.5503330007195,None,877.2991364002228,None,l,1,0.6933862995356321,877.2991364002228,None,None,None,,,,,,,20,19,male,20,2022_May_10_1411,Partial repeat,2021.2.3,59.85400428316565,
5,5,0,1,2,2,2,2,1,0,1,1,0,1,0,0,136,136,136,,,,,,,,,,,,,,,,,,,,,,,,,,,,,,20,19,male,20,2022_May_10_1411,Partial repeat,2021.2.3,59.85400428316565,
5,5,0,1,3,2,2,2,0,0,0,1,1,1,0,0,137,137,137,0,0,0,0,,,,,,,878.0184515994042,None,878.2884807996452,None,879.1858385000378,None,l,1,0.49469090066850185,879.1858385000378,None,None,None,,,,,,,20,19,male,20,2022_May_10_1411,Partial repeat,2021.2.3,59.85400428316565,
5,5,0,1,3,2,2,2,0,0,0,1,1,1,0,0,137,137,137,1,0,1,0,,,,,,,,,879.7052055001259,None,880.622597400099,None,l,1,0.4579386003315449,880.622597400099,None,None,None,,,,,,,20,19,male,20,2022_May_10_1411,Partial repeat,2021.2.3,59.85400428316565,
5,5,0,1,3,2,2,2,0,0,0,1,1,1,0,0,137,137,137,,,,,,,,,,,,,,,,,,,,,,,,,,,,,,20,19,male,20,2022_May_10_1411,Partial repeat,2021.2.3,59.85400428316565,
5,5,0,1,3,3,1,2,1,0,1,0,0,1,0,0,138,138,138,0,0,0,0,,,,,,,881.1059873010963,None,881.5781902000308,None,882.5924853999168,None,s,1,0.5200363006442785,882.5924853999168,None,None,None,,,,,,,20,19,male,20,2022_May_10_1411,Partial repeat,2021.2.3,59.85400428316565,
5,5,0,1,3,3,1,2,1,0,1,0,0,1,0,0,138,138,138,1,0,1,0,,,,,,,,,883.1339213997126,None,883.9125011004508,None,l,1,0.5920298993587494,883.9125011004508,None,None,None,,,,,,,20,19,male,20,2022_May_10_1411,Partial repeat,2021.2.3,59.85400428316565,
5,5,0,1,3,3,1,2,1,0,1,0,0,1,0,0,138,138,138,,,,,,,,,,,,,,,,,,,,,,,,,,,,,,20,19,male,20,2022_May_10_1411,Partial repeat,2021.2.3,59.85400428316565,
5,5,0,1,2,3,2,2,0,1,0,1,0,1,0,0,139,139,139,0,0,0,0,,,,,,,884.5286893006414,None,884.9180606007576,None,885.8320716004819,None,l,1,0.49646029993891716,885.8320716004819,None,None,None,,,,,,,20,19,male,20,2022_May_10_1411,Partial repeat,2021.2.3,59.85400428316565,
5,5,0,1,2,3,2,2,0,1,0,1,0,1,0,0,139,139,139,1,0,1,0,,,,,,,,,886.353383699432,None,887.0844657998532,None,s,1,0.5400513000786304,887.0844657998532,None,None,None,,,,,,,20,19,male,20,2022_May_10_1411,Partial repeat,2021.2.3,59.85400428316565,
5,5,0,1,2,3,2,2,0,1,0,1,0,1,0,0,139,139,139,,,,,,,,,,,,,,,,,,,,,,,,,,,,,,20,19,male,20,2022_May_10_1411,Partial repeat,2021.2.3,59.85400428316565,
5,5,0,1,2,2,1,2,0,1,1,0,0,1,0,0,140,140,140,0,0,0,0,,,,,,,887.6364339999855,None,888.0575422011316,None,888.9550049006939,None,l,1,0.47752320021390915,888.9550049006939,None,None,None,,,,,,,20,19,male,20,2022_May_10_1411,Partial repeat,2021.2.3,59.85400428316565,
5,5,0,1,2,2,1,2,0,1,1,0,0,1,0,0,140,140,140,1,0,1,0,,,,,,,,,889.4554533995688,None,890.457719700411,None,s,1,0.5748101994395256,890.457719700411,None,None,None,,,,,,,20,19,male,20,2022_May_10_1411,Partial repeat,2021.2.3,59.85400428316565,
5,5,0,1,2,2,1,2,0,1,1,0,0,1,0,0,140,140,140,,,,,,,,,,,,,,,,,,,,,,,,,,,,,,20,19,male,20,2022_May_10_1411,Partial repeat,2021.2.3,59.85400428316565,
5,5,0,1,2,3,1,2,0,0,0,0,1,1,0,0,141,141,141,0,0,0,0,,,,,,,891.0466393008828,None,891.647865600884,None,892.5621122010052,None,l,1,0.5104501005262136,892.5621122010052,None,None,None,,,,,,,20,19,male,20,2022_May_10_1411,Partial repeat,2021.2.3,59.85400428316565,
5,5,0,1,2,3,1,2,0,0,0,0,1,1,0,0,141,141,141,1,0,1,0,,,,,,,,,893.0806853007525,None,894.0985153000802,None,l,1,0.4699822012335062,894.0985153000802,None,None,None,,,,,,,20,19,male,20,2022_May_10_1411,Partial repeat,2021.2.3,59.85400428316565,
5,5,0,1,2,3,1,2,0,0,0,0,1,1,0,0,141,141,141,,,,,,,,,,,,,,,,,,,,,,,,,,,,,,20,19,male,20,2022_May_10_1411,Partial repeat,2021.2.3,59.85400428316565,
5,5,0,1,3,2,1,1,0,0,0,1,1,1,0,0,142,142,142,0,0,0,0,,,,,,,894.5987308993936,None,895.6055712010711,None,896.370074801147,None,l,1,0.44645010121166706,896.370074801147,None,None,None,,,,,,,20,19,male,20,2022_May_10_1411,Partial repeat,2021.2.3,59.85400428316565,
5,5,0,1,3,2,1,1,0,0,0,1,1,1,0,0,142,142,142,1,0,1,0,,,,,,,,,896.8388733994216,None,897.8063770998269,None,l,1,0.41018559969961643,897.8063770998269,None,None,None,,,,,,,20,19,male,20,2022_May_10_1411,Partial repeat,2021.2.3,59.85400428316565,
5,5,0,1,3,2,1,1,0,0,0,1,1,1,0,0,142,142,142,,,,,,,,,,,,,,,,,,,,,,,,,,,,,,20,19,male,20,2022_May_10_1411,Partial repeat,2021.2.3,59.85400428316565,
5,5,0,1,3,3,1,2,0,1,1,0,0,1,0,0,143,143,143,0,0,0,0,,,,,,,898.2372501995414,None,898.8452362995595,None,899.8592888005078,None,l,1,0.5172022003680468,899.8592888005078,None,None,None,,,,,,,20,19,male,20,2022_May_10_1411,Partial repeat,2021.2.3,59.85400428316565,
5,5,0,1,3,3,1,2,0,1,1,0,0,1,0,0,143,143,143,1,0,1,0,,,,,,,,,900.399614000693,None,901.2286304011941,None,s,1,0.651893001049757,901.2286304011941,None,None,None,,,,,,,20,19,male,20,2022_May_10_1411,Partial repeat,2021.2.3,59.85400428316565,
5,5,0,1,3,3,1,2,0,1,1,0,0,1,0,0,143,143,143,,,,,,,,,,,,,,,,,,,,,,,,,,,,,,20,19,male,20,2022_May_10_1411,Partial repeat,2021.2.3,59.85400428316565,
5,5,0,1,3,3,1,1,0,0,1,1,1,1,0,0,144,144,144,0,0,0,0,,,,,,,901.9012855999172,None,902.2184107005596,None,902.9487068001181,None,l,1,0.5319126006215811,902.9487068001181,None,None,None,,,,,,,20,19,male,20,2022_May_10_1411,Partial repeat,2021.2.3,59.85400428316565,
5,5,0,1,3,3,1,1,0,0,1,1,1,1,0,0,144,144,144,1,0,1,0,,,,,,,,,903.4908838998526,None,904.3517119009048,None,l,1,0.5287760011851788,904.3517119009048,None,None,None,,,,,,,20,19,male,20,2022_May_10_1411,Partial repeat,2021.2.3,59.85400428316565,
5,5,0,1,3,3,1,1,0,0,1,1,1,1,0,0,144,144,144,,,,,,,,,,,,,,,,,,,,,,,,,,,,,,20,19,male,20,2022_May_10_1411,Partial repeat,2021.2.3,59.85400428316565,
5,5,0,1,2,3,2,1,0,1,0,0,0,1,0,0,145,145,145,0,0,0,0,,,,,,,904.8961338996887,None,905.1741562001407,None,906.0216253995895,None,l,1,0.4909809995442629,906.0216253995895,None,None,None,,,,,,,20,19,male,20,2022_May_10_1411,Partial repeat,2021.2.3,59.85400428316565,
5,5,0,1,2,3,2,1,0,1,0,0,0,1,0,0,145,145,145,1,0,1,0,,,,,,,,,906.5211810003966,None,907.4908774010837,None,s,1,0.6056371014565229,907.4908774010837,None,None,None,,,,,,,20,19,male,20,2022_May_10_1411,Partial repeat,2021.2.3,59.85400428316565,
5,5,0,1,2,3,2,1,0,1,0,0,0,1,0,0,145,145,145,,,,,,,,,,,,,,,,,,,,,,,,,,,,,,20,19,male,20,2022_May_10_1411,Partial repeat,2021.2.3,59.85400428316565,
5,5,0,1,2,3,1,2,0,1,0,0,0,1,0,0,146,146,146,0,0,0,0,,,,,,,908.1217446997762,None,908.4305227007717,None,909.1949736010283,None,l,1,0.5335999000817537,909.1949736010283,None,None,None,,,,,,,20,19,male,20,2022_May_10_1411,Partial repeat,2021.2.3,59.85400428316565,
5,5,0,1,2,3,1,2,0,1,0,0,0,1,0,0,146,146,146,1,0,1,0,,,,,,,,,909.7552738003433,None,910.4800068009645,None,s,1,0.416516600176692,910.4800068009645,None,None,None,,,,,,,20,19,male,20,2022_May_10_1411,Partial repeat,2021.2.3,59.85400428316565,
5,5,0,1,2,3,1,2,0,1,0,0,0,1,0,0,146,146,146,,,,,,,,,,,,,,,,,,,,,,,,,,,,,,20,19,male,20,2022_May_10_1411,Partial repeat,2021.2.3,59.85400428316565,
5,5,0,1,2,3,1,1,1,0,0,1,0,1,0,0,147,147,147,0,0,0,0,,,,,,,910.9203935004771,None,911.1859032995999,None,911.9666141010821,None,s,1,0.4419038984924555,911.9666141010821,None,None,None,,,,,,,20,19,male,20,2022_May_10_1411,Partial repeat,2021.2.3,59.85400428316565,
5,5,0,1,2,3,1,1,1,0,0,1,0,1,0,0,147,147,147,1,0,1,0,,,,,,,,,912.4209816008806,None,913.2362230997533,None,l,1,0.53226020000875,913.2362230997533,None,None,None,,,,,,,20,19,male,20,2022_May_10_1411,Partial repeat,2021.2.3,59.85400428316565,
5,5,0,1,2,3,1,1,1,0,0,1,0,1,0,0,147,147,147,,,,,,,,,,,,,,,,,,,,,,,,,,,,,,20,19,male,20,2022_May_10_1411,Partial repeat,2021.2.3,59.85400428316565,
5,5,0,1,3,3,1,2,0,0,1,0,1,1,0,0,148,148,148,0,0,0,0,,,,,,,913.785567400977,None,914.0414154995233,None,915.0392579995096,None,l,1,0.4812380988150835,915.0392579995096,None,None,None,,,,,,,20,19,male,20,2022_May_10_1411,Partial repeat,2021.2.3,59.85400428316565,
5,5,0,1,3,3,1,2,0,0,1,0,1,1,0,0,148,148,148,1,0,1,0,,,,,,,,,915.5367056000978,None,916.4083907995373,None,l,1,0.4481640998274088,916.4083907995373,None,None,None,,,,,,,20,19,male,20,2022_May_10_1411,Partial repeat,2021.2.3,59.85400428316565,
5,5,0,1,3,3,1,2,0,0,1,0,1,1,0,0,148,148,148,,,,,,,,,,,,,,,,,,,,,,,,,,,,,,20,19,male,20,2022_May_10_1411,Partial repeat,2021.2.3,59.85400428316565,
5,5,0,1,2,3,2,1,1,1,0,0,1,1,0,0,149,149,149,0,0,0,0,,,,,,,916.8684800006449,None,917.1307522002608,None,918.0614519994706,None,s,1,0.4430599007755518,918.0614519994706,None,None,None,,,,,,,20,19,male,20,2022_May_10_1411,Partial repeat,2021.2.3,59.85400428316565,
5,5,0,1,2,3,2,1,1,1,0,0,1,1,0,0,149,149,149,1,0,1,0,,,,,,,,,918.5219269003719,None,919.3308084011078,None,s,1,0.5097035989165306,919.3308084011078,None,None,None,,,,,,,20,19,male,20,2022_May_10_1411,Partial repeat,2021.2.3,59.85400428316565,
5,5,0,1,2,3,2,1,1,1,0,0,1,1,0,0,149,149,149,,,,,,,,,,,,,,,,,,,,,,,,,,,,,,20,19,male,20,2022_May_10_1411,Partial repeat,2021.2.3,59.85400428316565,
5,5,0,1,2,2,2,2,0,0,1,1,1,1,0,0,150,150,150,0,0,0,0,,,,,,,919.8556613996625,None,920.3036554995924,None,921.0841533001512,None,l,1,0.5403572991490364,921.0841533001512,None,None,None,,,,,,,20,19,male,20,2022_May_10_1411,Partial repeat,2021.2.3,59.85400428316565,
5,5,0,1,2,2,2,2,0,0,1,1,1,1,0,0,150,150,150,1,0,1,0,,,,,,,,,921.646561499685,None,922.3700927998871,None,l,1,0.4624135009944439,922.3700927998871,None,None,None,,,,,,,20,19,male,20,2022_May_10_1411,Partial repeat,2021.2.3,59.85400428316565,
5,5,0,1,2,2,2,2,0,0,1,1,1,1,0,0,150,150,150,,,,,,,,,,,,,,,,,,,,,,,,,,,,,,20,19,male,20,2022_May_10_1411,Partial repeat,2021.2.3,59.85400428316565,
5,5,0,1,3,2,2,1,0,1,0,0,0,1,0,0,151,151,151,0,0,0,0,,,,,,,922.8549352996051,None,923.3093775995076,None,924.2401100005955,None,l,1,0.5844867005944252,924.2401100005955,None,None,None,,,,,,,20,19,male,20,2022_May_10_1411,Partial repeat,2021.2.3,59.85400428316565,
5,5,0,1,3,2,2,1,0,1,0,0,0,1,0,0,151,151,151,1,0,1,0,,,,,,,,,924.845610300079,None,925.7096708994359,None,s,1,0.5228186007589102,925.7096708994359,None,None,None,,,,,,,20,19,male,20,2022_May_10_1411,Partial repeat,2021.2.3,59.85400428316565,
5,5,0,1,3,2,2,1,0,1,0,0,0,1,0,0,151,151,151,,,,,,,,,,,,,,,,,,,,,,,,,,,,,,20,19,male,20,2022_May_10_1411,Partial repeat,2021.2.3,59.85400428316565,
5,5,0,1,3,2,2,2,0,1,0,1,0,1,0,0,152,152,152,0,0,0,0,,,,,,,926.2582267001271,None,926.6325989011675,None,927.5130976997316,None,l,1,0.5673977006226778,927.5130976997316,None,None,None,,,,,,,20,19,male,20,2022_May_10_1411,Partial repeat,2021.2.3,59.85400428316565,
5,5,0,1,3,2,2,2,0,1,0,1,0,1,0,0,152,152,152,1,0,1,0,,,,,,,,,928.096563199535,None,928.882463099435,None,s,1,0.49409020133316517,928.882463099435,None,None,None,,,,,,,20,19,male,20,2022_May_10_1411,Partial repeat,2021.2.3,59.85400428316565,
5,5,0,1,3,2,2,2,0,1,0,1,0,1,0,0,152,152,152,,,,,,,,,,,,,,,,,,,,,,,,,,,,,,20,19,male,20,2022_May_10_1411,Partial repeat,2021.2.3,59.85400428316565,
