prime_tar_pos,probe_tar_pos,dimension,tar_color,prime_dist_color,probe_dist_color,prime_dist_shape,probe_dist_shape,prime_tar_dot_pos,probe_tar_dot_pos,col_rep,shape_rep,resp_rep,pos_fixed,sparse,MainLoop.thisRepN,MainLoop.thisTrialN,MainLoop.thisN,MainLoop.thisIndex,PrimeProbe.thisRepN,PrimeProbe.thisTrialN,PrimeProbe.thisN,PrimeProbe.thisIndex,Instruction.started,Instruction.stopped,instruction_key.keys,instruction_key.rt,instruction_key.started,instruction_key.stopped,PairStartText.started,PairStartText.stopped,FixCross.started,FixCross.stopped,SearchFixCross.started,SearchFixCross.stopped,key_resp.keys,key_resp.corr,key_resp.rt,key_resp.started,key_resp.stopped,feedback_text.started,feedback_text.stopped,text_finish.started,text_finish.stopped,finish_key.keys,finish_key.rt,finish_key.started,finish_key.stopped,participant,age,gender,group,date,expName,psychopyVersion,frameRate,
,,,,,,,,,,,,,,,,,,,,,,,616.4853486996144,None,space,21.776009099557996,616.4853486996144,None,,,,,,,,,,,,,,,,,,,,21,23,female,21,2022_May_11_1023,Partial repeat,2021.2.3,59.86521957525461,
6,7,0,1,3,2,1,2,0,1,0,0,0,0,0,0,0,0,0,0,0,0,0,,,,,,,638.453551499173,None,640.4098157994449,None,641.3951008003205,None,s,0,1.3300398997962475,641.3951008003205,None,642.7487796004862,None,,,,,,,21,23,female,21,2022_May_11_1023,Partial repeat,2021.2.3,59.86521957525461,
6,7,0,1,3,2,1,2,0,1,0,0,0,0,0,0,0,0,0,1,0,1,0,,,,,,,,,643.2481737993658,None,644.0951217003167,None,s,1,7.302064599469304,644.0951217003167,None,None,None,,,,,,,21,23,female,21,2022_May_11_1023,Partial repeat,2021.2.3,59.86521957525461,
6,7,0,1,3,2,1,2,0,1,0,0,0,0,0,0,0,0,0,,,,,,,,,,,,,,,,,,,,,,,,,,,,,,21,23,female,21,2022_May_11_1023,Partial repeat,2021.2.3,59.86521957525461,
5,8,0,1,2,2,1,1,1,0,1,1,0,0,0,0,1,1,1,0,0,0,0,,,,,,,651.4091947991401,None,656.5240985993296,None,657.320943299681,None,s,1,2.4201643001288176,657.320943299681,None,None,None,,,,,,,21,23,female,21,2022_May_11_1023,Partial repeat,2021.2.3,59.86521957525461,
5,8,0,1,2,2,1,1,1,0,1,1,0,0,0,0,1,1,1,1,0,1,0,,,,,,,,,659.7569331992418,None,660.6609460003674,None,l,1,6.712151300162077,660.6609460003674,None,None,None,,,,,,,21,23,female,21,2022_May_11_1023,Partial repeat,2021.2.3,59.86521957525461,
5,8,0,1,2,2,1,1,1,0,1,1,0,0,0,0,1,1,1,,,,,,,,,,,,,,,,,,,,,,,,,,,,,,21,23,female,21,2022_May_11_1023,Partial repeat,2021.2.3,59.86521957525461,
3,4,0,1,3,2,2,1,0,0,0,0,1,0,0,0,2,2,2,0,0,0,0,,,,,,,667.387941699475,None,669.2487531993538,None,670.0122305992991,None,l,1,0.9608657006174326,670.0122305992991,None,None,None,,,,,,,21,23,female,21,2022_May_11_1023,Partial repeat,2021.2.3,59.86521957525461,
3,4,0,1,3,2,2,1,0,0,0,0,1,0,0,0,2,2,2,1,0,1,0,,,,,,,,,670.9881299994886,None,671.9159428998828,None,l,1,0.889181999489665,671.9159428998828,None,None,None,,,,,,,21,23,female,21,2022_May_11_1023,Partial repeat,2021.2.3,59.86521957525461,
3,4,0,1,3,2,2,1,0,0,0,0,1,0,0,0,2,2,2,,,,,,,,,,,,,,,,,,,,,,,,,,,,,,21,23,female,21,2022_May_11_1023,Partial repeat,2021.2.3,59.86521957525461,
2,5,0,1,2,3,2,2,1,0,0,1,0,0,0,0,3,3,3,0,0,0,0,,,,,,,672.8337155003101,None,674.275292199105,None,675.2223786003888,None,s,1,0.718724699690938,675.2223786003888,None,None,None,,,,,,,21,23,female,21,2022_May_11_1023,Partial repeat,2021.2.3,59.86521957525461,
2,5,0,1,2,3,2,2,1,0,0,1,0,0,0,0,3,3,3,1,0,1,0,,,,,,,,,675.9660682994872,None,676.8256135992706,None,s,0,1.4114771988242865,676.8256135992706,None,678.252711199224,None,,,,,,,21,23,female,21,2022_May_11_1023,Partial repeat,2021.2.3,59.86521957525461,
2,5,0,1,2,3,2,2,1,0,0,1,0,0,0,0,3,3,3,,,,,,,,,,,,,,,,,,,,,,,,,,,,,,21,23,female,21,2022_May_11_1023,Partial repeat,2021.2.3,59.86521957525461,
8,7,0,1,2,2,2,2,0,0,1,1,1,0,0,0,4,4,4,0,0,0,0,,,,,,,678.7674112990499,None,681.2889398988336,None,682.2361882999539,None,l,1,0.5449074003845453,682.2361882999539,None,None,None,,,,,,,21,23,female,21,2022_May_11_1023,Partial repeat,2021.2.3,59.86521957525461,
8,7,0,1,2,2,2,2,0,0,1,1,1,0,0,0,4,4,4,1,0,1,0,,,,,,,,,682.7945956997573,None,683.6556906998158,None,l,1,0.6054043993353844,683.6556906998158,None,None,None,,,,,,,21,23,female,21,2022_May_11_1023,Partial repeat,2021.2.3,59.86521957525461,
8,7,0,1,2,2,2,2,0,0,1,1,1,0,0,0,4,4,4,,,,,,,,,,,,,,,,,,,,,,,,,,,,,,21,23,female,21,2022_May_11_1023,Partial repeat,2021.2.3,59.86521957525461,
8,6,0,1,2,2,2,1,0,0,1,0,1,0,0,0,5,5,5,0,0,0,0,,,,,,,684.2826189994812,None,685.263342699036,None,686.0604175999761,None,l,1,0.544676199555397,686.0604175999761,None,None,None,,,,,,,21,23,female,21,2022_May_11_1023,Partial repeat,2021.2.3,59.86521957525461,
8,6,0,1,2,2,2,1,0,0,1,0,1,0,0,0,5,5,5,1,0,1,0,,,,,,,,,686.6193447001278,None,687.3628134001046,None,l,1,0.5542788002640009,687.3628134001046,None,None,None,,,,,,,21,23,female,21,2022_May_11_1023,Partial repeat,2021.2.3,59.86521957525461,
8,6,0,1,2,2,2,1,0,0,1,0,1,0,0,0,5,5,5,,,,,,,,,,,,,,,,,,,,,,,,,,,,,,21,23,female,21,2022_May_11_1023,Partial repeat,2021.2.3,59.86521957525461,
4,8,0,1,2,3,1,2,0,1,0,0,0,0,0,0,6,6,6,0,0,0,0,,,,,,,687.942012200132,None,688.9037268999964,None,689.7674483004957,None,l,1,0.7096432000398636,689.7674483004957,None,None,None,,,,,,,21,23,female,21,2022_May_11_1023,Partial repeat,2021.2.3,59.86521957525461,
4,8,0,1,2,3,1,2,0,1,0,0,0,0,0,0,6,6,6,1,0,1,0,,,,,,,,,690.4911551997066,None,691.2536012995988,None,s,1,0.6714968010783195,691.2536012995988,None,None,None,,,,,,,21,23,female,21,2022_May_11_1023,Partial repeat,2021.2.3,59.86521957525461,
4,8,0,1,2,3,1,2,0,1,0,0,0,0,0,0,6,6,6,,,,,,,,,,,,,,,,,,,,,,,,,,,,,,21,23,female,21,2022_May_11_1023,Partial repeat,2021.2.3,59.86521957525461,
1,4,0,1,3,2,2,2,0,0,0,1,1,0,0,0,7,7,7,0,0,0,0,,,,,,,691.9462688993663,None,692.7945824991912,None,693.5914708003402,None,l,1,0.5576227009296417,693.5914708003402,None,None,None,,,,,,,21,23,female,21,2022_May_11_1023,Partial repeat,2021.2.3,59.86521957525461,
1,4,0,1,3,2,2,2,0,0,0,1,1,0,0,0,7,7,7,1,0,1,0,,,,,,,,,694.166848199442,None,695.1780781988055,None,l,1,0.5710176005959511,695.1780781988055,None,None,None,,,,,,,21,23,female,21,2022_May_11_1023,Partial repeat,2021.2.3,59.86521957525461,
1,4,0,1,3,2,2,2,0,0,0,1,1,0,0,0,7,7,7,,,,,,,,,,,,,,,,,,,,,,,,,,,,,,21,23,female,21,2022_May_11_1023,Partial repeat,2021.2.3,59.86521957525461,
3,8,0,1,2,2,1,2,1,1,1,0,1,0,0,0,8,8,8,0,0,0,0,,,,,,,695.764108799398,None,696.7355981990695,None,697.61637420021,None,s,1,0.700696799904108,697.61637420021,None,None,None,,,,,,,21,23,female,21,2022_May_11_1023,Partial repeat,2021.2.3,59.86521957525461,
3,8,0,1,2,2,1,2,1,1,1,0,1,0,0,0,8,8,8,1,0,1,0,,,,,,,,,698.326416099444,None,699.0697875991464,None,s,1,0.6713021993637085,699.0697875991464,None,None,None,,,,,,,21,23,female,21,2022_May_11_1023,Partial repeat,2021.2.3,59.86521957525461,
3,8,0,1,2,2,1,2,1,1,1,0,1,0,0,0,8,8,8,,,,,,,,,,,,,,,,,,,,,,,,,,,,,,21,23,female,21,2022_May_11_1023,Partial repeat,2021.2.3,59.86521957525461,
5,3,0,1,2,3,2,2,1,1,0,1,1,0,0,0,9,9,9,0,0,0,0,,,,,,,699.7598075997084,None,700.676666200161,None,701.6905735991895,None,s,1,1.058508601039648,701.6905735991895,None,None,None,,,,,,,21,23,female,21,2022_May_11_1023,Partial repeat,2021.2.3,59.86521957525461,
5,3,0,1,2,3,2,2,1,1,0,1,1,0,0,0,9,9,9,1,0,1,0,,,,,,,,,702.7740866001695,None,703.5442511998117,None,s,1,0.6528426017612219,703.5442511998117,None,None,None,,,,,,,21,23,female,21,2022_May_11_1023,Partial repeat,2021.2.3,59.86521957525461,
5,3,0,1,2,3,2,2,1,1,0,1,1,0,0,0,9,9,9,,,,,,,,,,,,,,,,,,,,,,,,,,,,,,21,23,female,21,2022_May_11_1023,Partial repeat,2021.2.3,59.86521957525461,
8,1,0,1,2,2,1,2,0,1,1,0,0,0,0,0,10,10,10,0,0,0,0,,,,,,,704.2173072993755,None,704.9182110000402,None,705.8654493000358,None,l,1,0.5717072002589703,705.8654493000358,None,None,None,,,,,,,21,23,female,21,2022_May_11_1023,Partial repeat,2021.2.3,59.86521957525461,
8,1,0,1,2,2,1,2,0,1,1,0,0,0,0,0,10,10,10,1,0,1,0,,,,,,,,,706.4637177996337,None,707.4518695995212,None,s,1,0.6412762012332678,707.4518695995212,None,None,None,,,,,,,21,23,female,21,2022_May_11_1023,Partial repeat,2021.2.3,59.86521957525461,
8,1,0,1,2,2,1,2,0,1,1,0,0,0,0,0,10,10,10,,,,,,,,,,,,,,,,,,,,,,,,,,,,,,21,23,female,21,2022_May_11_1023,Partial repeat,2021.2.3,59.86521957525461,
3,1,0,1,2,2,1,1,1,1,1,1,1,0,0,0,11,11,11,0,0,0,0,,,,,,,708.1208960991353,None,709.0429388005286,None,710.0568745993078,None,l,0,0.6281872000545263,710.0568745993078,None,710.6974515002221,None,,,,,,,21,23,female,21,2022_May_11_1023,Partial repeat,2021.2.3,59.86521957525461,
3,1,0,1,2,2,1,1,1,1,1,1,1,0,0,0,11,11,11,1,0,1,0,,,,,,,,,711.1970933992416,None,711.977192800492,None,l,0,1.3158985991030931,711.977192800492,None,713.3139271996915,None,,,,,,,21,23,female,21,2022_May_11_1023,Partial repeat,2021.2.3,59.86521957525461,
3,1,0,1,2,2,1,1,1,1,1,1,1,0,0,0,11,11,11,,,,,,,,,,,,,,,,,,,,,,,,,,,,,,21,23,female,21,2022_May_11_1023,Partial repeat,2021.2.3,59.86521957525461,
1,7,0,1,3,2,2,2,1,0,0,1,0,0,0,0,12,12,12,0,0,0,0,,,,,,,713.8188920989633,None,715.3051204998046,None,716.3023476991802,None,s,1,0.6387885008007288,716.3023476991802,None,None,None,,,,,,,21,23,female,21,2022_May_11_1023,Partial repeat,2021.2.3,59.86521957525461,
1,7,0,1,3,2,2,2,1,0,0,1,0,0,0,0,12,12,12,1,0,1,0,,,,,,,,,716.9682966005057,None,717.821921300143,None,l,1,0.6311706993728876,717.821921300143,None,None,None,,,,,,,21,23,female,21,2022_May_11_1023,Partial repeat,2021.2.3,59.86521957525461,
1,7,0,1,3,2,2,2,1,0,0,1,0,0,0,0,12,12,12,,,,,,,,,,,,,,,,,,,,,,,,,,,,,,21,23,female,21,2022_May_11_1023,Partial repeat,2021.2.3,59.86521957525461,
7,2,0,1,2,2,1,2,0,0,1,0,1,0,0,0,13,13,13,0,0,0,0,,,,,,,718.4680164996535,None,719.1792868990451,None,719.9260786995292,None,l,1,0.639061501249671,719.9260786995292,None,None,None,,,,,,,21,23,female,21,2022_May_11_1023,Partial repeat,2021.2.3,59.86521957525461,
7,2,0,1,2,2,1,2,0,0,1,0,1,0,0,0,13,13,13,1,0,1,0,,,,,,,,,720.5926095992327,None,721.4961564000696,None,l,1,0.6289430987089872,721.4961564000696,None,None,None,,,,,,,21,23,female,21,2022_May_11_1023,Partial repeat,2021.2.3,59.86521957525461,
7,2,0,1,2,2,1,2,0,0,1,0,1,0,0,0,13,13,13,,,,,,,,,,,,,,,,,,,,,,,,,,,,,,21,23,female,21,2022_May_11_1023,Partial repeat,2021.2.3,59.86521957525461,
4,2,0,1,3,3,1,1,1,1,1,1,1,0,0,0,14,14,14,0,0,0,0,,,,,,,722.1471044998616,None,722.8865478988737,None,723.6500585991889,None,s,1,0.5790226012468338,723.6500585991889,None,None,None,,,,,,,21,23,female,21,2022_May_11_1023,Partial repeat,2021.2.3,59.86521957525461,
4,2,0,1,3,3,1,1,1,1,1,1,1,0,0,0,14,14,14,1,0,1,0,,,,,,,,,724.2509179003537,None,725.153118699789,None,s,1,0.4679296016693115,725.153118699789,None,None,None,,,,,,,21,23,female,21,2022_May_11_1023,Partial repeat,2021.2.3,59.86521957525461,
4,2,0,1,3,3,1,1,1,1,1,1,1,0,0,0,14,14,14,,,,,,,,,,,,,,,,,,,,,,,,,,,,,,21,23,female,21,2022_May_11_1023,Partial repeat,2021.2.3,59.86521957525461,
6,6,0,1,2,3,2,1,1,0,0,0,0,0,0,0,15,15,15,0,0,0,0,,,,,,,725.6520779002458,None,727.0446303989738,None,727.9750095997006,None,s,1,0.5420706998556852,727.9750095997006,None,None,None,,,,,,,21,23,female,21,2022_May_11_1023,Partial repeat,2021.2.3,59.86521957525461,
6,6,0,1,2,3,2,1,1,0,0,0,0,0,0,0,15,15,15,1,0,1,0,,,,,,,,,728.5283502005041,None,729.3109459001571,None,s,0,0.46217150054872036,729.3109459001571,None,729.7866700999439,None,,,,,,,21,23,female,21,2022_May_11_1023,Partial repeat,2021.2.3,59.86521957525461,
6,6,0,1,2,3,2,1,1,0,0,0,0,0,0,0,15,15,15,,,,,,,,,,,,,,,,,,,,,,,,,,,,,,21,23,female,21,2022_May_11_1023,Partial repeat,2021.2.3,59.86521957525461,
3,2,0,1,3,3,1,2,0,1,1,0,0,0,0,0,16,16,16,0,0,0,0,,,,,,,730.3009852990508,None,738.0660798996687,None,738.8964799996465,None,s,0,0.5166039001196623,738.8964799996465,None,739.4334046002477,None,,,,,,,21,23,female,21,2022_May_11_1023,Partial repeat,2021.2.3,59.86521957525461,
3,2,0,1,3,3,1,2,0,1,1,0,0,0,0,0,16,16,16,1,0,1,0,,,,,,,,,739.9363901987672,None,740.6842902004719,None,s,1,0.7767974995076656,740.6842902004719,None,None,None,,,,,,,21,23,female,21,2022_May_11_1023,Partial repeat,2021.2.3,59.86521957525461,
3,2,0,1,3,3,1,2,0,1,1,0,0,0,0,0,16,16,16,,,,,,,,,,,,,,,,,,,,,,,,,,,,,,21,23,female,21,2022_May_11_1023,Partial repeat,2021.2.3,59.86521957525461,
3,5,0,1,3,3,2,1,1,0,1,0,0,0,0,0,17,17,17,0,0,0,0,,,,,,,741.4789799004793,None,743.5935001000762,None,744.3242412991822,None,s,1,0.544837599620223,744.3242412991822,None,None,None,,,,,,,21,23,female,21,2022_May_11_1023,Partial repeat,2021.2.3,59.86521957525461,
3,5,0,1,3,3,2,1,1,0,1,0,0,0,0,0,17,17,17,1,0,1,0,,,,,,,,,744.8813012987375,None,745.6928960997611,None,s,0,0.5361905004829168,745.6928960997611,None,746.2541205994785,None,,,,,,,21,23,female,21,2022_May_11_1023,Partial repeat,2021.2.3,59.86521957525461,
3,5,0,1,3,3,2,1,1,0,1,0,0,0,0,0,17,17,17,,,,,,,,,,,,,,,,,,,,,,,,,,,,,,21,23,female,21,2022_May_11_1023,Partial repeat,2021.2.3,59.86521957525461,
2,1,0,1,2,3,1,1,0,1,0,1,0,0,0,0,18,18,18,0,0,0,0,,,,,,,746.766330299899,None,748.1356358993798,None,749.0170521996915,None,s,0,1.2840319983661175,749.0170521996915,None,750.3158328998834,None,,,,,,,21,23,female,21,2022_May_11_1023,Partial repeat,2021.2.3,59.86521957525461,
2,1,0,1,2,3,1,1,0,1,0,1,0,0,0,0,18,18,18,1,0,1,0,,,,,,,,,750.82417050004,None,751.7545571997762,None,s,1,0.7145096007734537,751.7545571997762,None,None,None,,,,,,,21,23,female,21,2022_May_11_1023,Partial repeat,2021.2.3,59.86521957525461,
2,1,0,1,2,3,1,1,0,1,0,1,0,0,0,0,18,18,18,,,,,,,,,,,,,,,,,,,,,,,,,,,,,,21,23,female,21,2022_May_11_1023,Partial repeat,2021.2.3,59.86521957525461,
2,2,0,1,3,3,1,1,1,0,1,1,0,0,0,0,19,19,19,0,0,0,0,,,,,,,752.4840440005064,None,753.2957092002034,None,754.2762122005224,None,s,1,0.624873299151659,754.2762122005224,None,None,None,,,,,,,21,23,female,21,2022_May_11_1023,Partial repeat,2021.2.3,59.86521957525461,
2,2,0,1,3,3,1,1,1,0,1,1,0,0,0,0,19,19,19,1,0,1,0,,,,,,,,,754.9248751997948,None,755.7294423989952,None,l,1,0.563646899536252,755.7294423989952,None,None,None,,,,,,,21,23,female,21,2022_May_11_1023,Partial repeat,2021.2.3,59.86521957525461,
2,2,0,1,3,3,1,1,1,0,1,1,0,0,0,0,19,19,19,,,,,,,,,,,,,,,,,,,,,,,,,,,,,,21,23,female,21,2022_May_11_1023,Partial repeat,2021.2.3,59.86521957525461,
1,2,0,1,3,3,1,2,1,0,1,0,0,0,0,0,20,20,20,0,0,0,0,,,,,,,756.313154399395,None,757.1698941998184,None,758.0838214997202,None,s,1,0.7292588986456394,758.0838214997202,None,None,None,,,,,,,21,23,female,21,2022_May_11_1023,Partial repeat,2021.2.3,59.86521957525461,
1,2,0,1,3,3,1,2,1,0,1,0,0,0,0,0,20,20,20,1,0,1,0,,,,,,,,,758.8272002991289,None,759.5866225995123,None,l,1,0.5144686996936798,759.5866225995123,None,None,None,,,,,,,21,23,female,21,2022_May_11_1023,Partial repeat,2021.2.3,59.86521957525461,
1,2,0,1,3,3,1,2,1,0,1,0,0,0,0,0,20,20,20,,,,,,,,,,,,,,,,,,,,,,,,,,,,,,21,23,female,21,2022_May_11_1023,Partial repeat,2021.2.3,59.86521957525461,
6,3,0,1,3,3,2,1,0,0,1,0,1,0,0,0,21,21,21,0,0,0,0,,,,,,,760.1286725997925,None,761.0107509996742,None,761.7744596004486,None,l,1,0.9026909004896879,761.7744596004486,None,None,None,,,,,,,21,23,female,21,2022_May_11_1023,Partial repeat,2021.2.3,59.86521957525461,
6,3,0,1,3,3,2,1,0,0,1,0,1,0,0,0,21,21,21,1,0,1,0,,,,,,,,,762.6891530994326,None,763.6446918994188,None,l,1,0.592501800507307,763.6446918994188,None,None,None,,,,,,,21,23,female,21,2022_May_11_1023,Partial repeat,2021.2.3,59.86521957525461,
6,3,0,1,3,3,2,1,0,0,1,0,1,0,0,0,21,21,21,,,,,,,,,,,,,,,,,,,,,,,,,,,,,,21,23,female,21,2022_May_11_1023,Partial repeat,2021.2.3,59.86521957525461,
5,4,0,1,2,3,2,1,0,1,0,0,0,0,0,0,22,22,22,0,0,0,0,,,,,,,764.2490288000554,None,765.2690168004483,None,766.0159575995058,None,l,1,0.557123800739646,766.0159575995058,None,None,None,,,,,,,21,23,female,21,2022_May_11_1023,Partial repeat,2021.2.3,59.86521957525461,
5,4,0,1,2,3,2,1,0,1,0,0,0,0,0,0,22,22,22,1,0,1,0,,,,,,,,,766.5943870004267,None,767.5689890999347,None,s,1,0.5560874007642269,767.5689890999347,None,None,None,,,,,,,21,23,female,21,2022_May_11_1023,Partial repeat,2021.2.3,59.86521957525461,
5,4,0,1,2,3,2,1,0,1,0,0,0,0,0,0,22,22,22,,,,,,,,,,,,,,,,,,,,,,,,,,,,,,21,23,female,21,2022_May_11_1023,Partial repeat,2021.2.3,59.86521957525461,
7,8,0,1,2,3,1,2,0,0,0,0,1,0,0,0,23,23,23,0,0,0,0,,,,,,,768.1485098004341,None,768.8760081995279,None,769.6560737993568,None,l,1,0.5410054996609688,769.6560737993568,None,None,None,,,,,,,21,23,female,21,2022_May_11_1023,Partial repeat,2021.2.3,59.86521957525461,
7,8,0,1,2,3,1,2,0,0,0,0,1,0,0,0,23,23,23,1,0,1,0,,,,,,,,,770.2148147001863,None,771.2257390003651,None,l,1,0.4913366995751858,771.2257390003651,None,None,None,,,,,,,21,23,female,21,2022_May_11_1023,Partial repeat,2021.2.3,59.86521957525461,
7,8,0,1,2,3,1,2,0,0,0,0,1,0,0,0,23,23,23,,,,,,,,,,,,,,,,,,,,,,,,,,,,,,21,23,female,21,2022_May_11_1023,Partial repeat,2021.2.3,59.86521957525461,
6,1,0,1,3,2,2,1,1,0,0,0,0,0,0,0,24,24,24,0,0,0,0,,,,,,,771.7430395986885,None,772.2826527003199,None,773.2298032995313,None,s,1,0.4872562997043133,773.2298032995313,None,None,None,,,,,,,21,23,female,21,2022_May_11_1023,Partial repeat,2021.2.3,59.86521957525461,
6,1,0,1,3,2,2,1,1,0,0,0,0,0,0,0,24,24,24,1,0,1,0,,,,,,,,,773.7441485002637,None,774.6995474994183,None,l,1,0.5455302000045776,774.6995474994183,None,None,None,,,,,,,21,23,female,21,2022_May_11_1023,Partial repeat,2021.2.3,59.86521957525461,
6,1,0,1,3,2,2,1,1,0,0,0,0,0,0,0,24,24,24,,,,,,,,,,,,,,,,,,,,,,,,,,,,,,21,23,female,21,2022_May_11_1023,Partial repeat,2021.2.3,59.86521957525461,
5,2,0,1,2,2,2,1,1,0,1,0,0,0,0,0,25,25,25,0,0,0,0,,,,,,,775.260625898838,None,775.7726875990629,None,776.7040142994374,None,s,1,0.5891620982438326,776.7040142994374,None,None,None,,,,,,,21,23,female,21,2022_May_11_1023,Partial repeat,2021.2.3,59.86521957525461,
5,2,0,1,2,2,2,1,1,0,1,0,0,0,0,0,25,25,25,1,0,1,0,,,,,,,,,777.3027804996818,None,778.039298100397,None,l,1,0.5417775008827448,778.039298100397,None,None,None,,,,,,,21,23,female,21,2022_May_11_1023,Partial repeat,2021.2.3,59.86521957525461,
5,2,0,1,2,2,2,1,1,0,1,0,0,0,0,0,25,25,25,,,,,,,,,,,,,,,,,,,,,,,,,,,,,,21,23,female,21,2022_May_11_1023,Partial repeat,2021.2.3,59.86521957525461,
8,4,0,1,3,2,1,2,1,1,0,0,1,0,0,0,26,26,26,0,0,0,0,,,,,,,778.5982015002519,None,779.1126252003014,None,780.0438892990351,None,s,1,0.6251860000193119,780.0438892990351,None,None,None,,,,,,,21,23,female,21,2022_May_11_1023,Partial repeat,2021.2.3,59.86521957525461,
8,4,0,1,3,2,1,2,1,1,0,0,1,0,0,0,26,26,26,1,0,1,0,,,,,,,,,780.6852623987943,None,781.5794664993882,None,s,1,0.6656126994639635,781.5794664993882,None,None,None,,,,,,,21,23,female,21,2022_May_11_1023,Partial repeat,2021.2.3,59.86521957525461,
8,4,0,1,3,2,1,2,1,1,0,0,1,0,0,0,26,26,26,,,,,,,,,,,,,,,,,,,,,,,,,,,,,,21,23,female,21,2022_May_11_1023,Partial repeat,2021.2.3,59.86521957525461,
4,4,0,1,2,2,1,1,0,1,1,1,0,0,0,0,27,27,27,0,0,0,0,,,,,,,782.2670328989625,None,782.7863763999194,None,783.6667438000441,None,l,1,0.7383376006036997,783.6667438000441,None,None,None,,,,,,,21,23,female,21,2022_May_11_1023,Partial repeat,2021.2.3,59.86521957525461,
4,4,0,1,2,2,1,1,0,1,1,1,0,0,0,0,27,27,27,1,0,1,0,,,,,,,,,784.4278184995055,None,785.3202723991126,None,s,1,0.6048416998237371,785.3202723991126,None,None,None,,,,,,,21,23,female,21,2022_May_11_1023,Partial repeat,2021.2.3,59.86521957525461,
4,4,0,1,2,2,1,1,0,1,1,1,0,0,0,0,27,27,27,,,,,,,,,,,,,,,,,,,,,,,,,,,,,,21,23,female,21,2022_May_11_1023,Partial repeat,2021.2.3,59.86521957525461,
7,1,0,1,2,3,2,1,1,1,0,0,1,0,0,0,28,28,28,0,0,0,0,,,,,,,785.9463098999113,None,786.4769013989717,None,787.4075553994626,None,l,0,0.6135653015226126,787.4075553994626,None,788.0292964987457,None,,,,,,,21,23,female,21,2022_May_11_1023,Partial repeat,2021.2.3,59.86521957525461,
7,1,0,1,2,3,2,1,1,1,0,0,1,0,0,0,28,28,28,1,0,1,0,,,,,,,,,788.5308986995369,None,789.3112850990146,None,s,1,0.7257368005812168,789.3112850990146,None,None,None,,,,,,,21,23,female,21,2022_May_11_1023,Partial repeat,2021.2.3,59.86521957525461,
7,1,0,1,2,3,2,1,1,1,0,0,1,0,0,0,28,28,28,,,,,,,,,,,,,,,,,,,,,,,,,,,,,,21,23,female,21,2022_May_11_1023,Partial repeat,2021.2.3,59.86521957525461,
5,1,0,1,3,2,1,1,1,0,0,1,0,0,0,0,29,29,29,0,0,0,0,,,,,,,790.0567074995488,None,790.6349358987063,None,791.6325858999044,None,s,1,0.5724651999771595,791.6325858999044,None,None,None,,,,,,,21,23,female,21,2022_May_11_1023,Partial repeat,2021.2.3,59.86521957525461,
5,1,0,1,3,2,1,1,1,0,0,1,0,0,0,0,29,29,29,1,0,1,0,,,,,,,,,792.2324355989695,None,793.1185486000031,None,l,1,0.6146208997815847,793.1185486000031,None,None,None,,,,,,,21,23,female,21,2022_May_11_1023,Partial repeat,2021.2.3,59.86521957525461,
5,1,0,1,3,2,1,1,1,0,0,1,0,0,0,0,29,29,29,,,,,,,,,,,,,,,,,,,,,,,,,,,,,,21,23,female,21,2022_May_11_1023,Partial repeat,2021.2.3,59.86521957525461,
7,6,0,1,3,3,2,2,1,0,1,1,0,0,0,0,30,30,30,0,0,0,0,,,,,,,793.7631866987795,None,794.375595798716,None,795.3895986992866,None,s,1,0.6474821008741856,795.3895986992866,None,None,None,,,,,,,21,23,female,21,2022_May_11_1023,Partial repeat,2021.2.3,59.86521957525461,
7,6,0,1,3,3,2,2,1,0,1,1,0,0,0,0,30,30,30,1,0,1,0,,,,,,,,,796.052069298923,None,796.9426851999015,None,l,1,0.7823824007064104,796.9426851999015,None,None,None,,,,,,,21,23,female,21,2022_May_11_1023,Partial repeat,2021.2.3,59.86521957525461,
7,6,0,1,3,3,2,2,1,0,1,1,0,0,0,0,30,30,30,,,,,,,,,,,,,,,,,,,,,,,,,,,,,,21,23,female,21,2022_May_11_1023,Partial repeat,2021.2.3,59.86521957525461,
4,7,0,1,3,3,1,2,0,0,1,0,1,0,0,0,31,31,31,0,0,0,0,,,,,,,797.7431741002947,None,798.4335433989763,None,799.3974328003824,None,l,1,0.6556499991565943,799.3974328003824,None,None,None,,,,,,,21,23,female,21,2022_May_11_1023,Partial repeat,2021.2.3,59.86521957525461,
4,7,0,1,3,3,1,2,0,0,1,0,1,0,0,0,31,31,31,1,0,1,0,,,,,,,,,800.0795824993402,None,800.8003292996436,None,l,1,0.5887546986341476,800.8003292996436,None,None,None,,,,,,,21,23,female,21,2022_May_11_1023,Partial repeat,2021.2.3,59.86521957525461,
4,7,0,1,3,3,1,2,0,0,1,0,1,0,0,0,31,31,31,,,,,,,,,,,,,,,,,,,,,,,,,,,,,,21,23,female,21,2022_May_11_1023,Partial repeat,2021.2.3,59.86521957525461,
1,5,0,1,3,3,1,1,0,0,1,1,1,0,0,0,32,32,32,0,0,0,0,,,,,,,801.4071813989431,None,802.0238517988473,None,802.8875124994665,None,l,1,0.4456190001219511,802.8875124994665,None,None,None,,,,,,,21,23,female,21,2022_May_11_1023,Partial repeat,2021.2.3,59.86521957525461,
1,5,0,1,3,3,1,1,0,0,1,1,1,0,0,0,32,32,32,1,0,1,0,,,,,,,,,803.3610407989472,None,804.1069029998034,None,l,1,0.47417169995605946,804.1069029998034,None,None,None,,,,,,,21,23,female,21,2022_May_11_1023,Partial repeat,2021.2.3,59.86521957525461,
1,5,0,1,3,3,1,1,0,0,1,1,1,0,0,0,32,32,32,,,,,,,,,,,,,,,,,,,,,,,,,,,,,,21,23,female,21,2022_May_11_1023,Partial repeat,2021.2.3,59.86521957525461,
5,6,0,1,2,2,1,2,1,0,1,0,0,0,0,0,33,33,33,0,0,0,0,,,,,,,804.6044739987701,None,805.1966634001583,None,806.0604819003493,None,s,1,0.5126463994383812,806.0604819003493,None,None,None,,,,,,,21,23,female,21,2022_May_11_1023,Partial repeat,2021.2.3,59.86521957525461,
5,6,0,1,2,2,1,2,1,0,1,0,0,0,0,0,33,33,33,1,0,1,0,,,,,,,,,806.5975746996701,None,807.3964463993907,None,l,1,0.5766602996736765,807.3964463993907,None,None,None,,,,,,,21,23,female,21,2022_May_11_1023,Partial repeat,2021.2.3,59.86521957525461,
5,6,0,1,2,2,1,2,1,0,1,0,0,0,0,0,33,33,33,,,,,,,,,,,,,,,,,,,,,,,,,,,,,,21,23,female,21,2022_May_11_1023,Partial repeat,2021.2.3,59.86521957525461,
4,3,0,1,3,2,2,2,0,1,0,1,0,0,0,0,34,34,34,0,0,0,0,,,,,,,808.0000809002668,None,808.5866147987545,None,809.3169362992048,None,l,1,0.6081750001758337,809.3169362992048,None,None,None,,,,,,,21,23,female,21,2022_May_11_1023,Partial repeat,2021.2.3,59.86521957525461,
4,3,0,1,3,2,2,2,0,1,0,1,0,0,0,0,34,34,34,1,0,1,0,,,,,,,,,809.9539473000914,None,810.786212598905,None,s,1,0.530935000628233,810.786212598905,None,None,None,,,,,,,21,23,female,21,2022_May_11_1023,Partial repeat,2021.2.3,59.86521957525461,
4,3,0,1,3,2,2,2,0,1,0,1,0,0,0,0,34,34,34,,,,,,,,,,,,,,,,,,,,,,,,,,,,,,21,23,female,21,2022_May_11_1023,Partial repeat,2021.2.3,59.86521957525461,
6,2,0,1,3,2,1,1,0,0,0,1,1,0,0,0,35,35,35,0,0,0,0,,,,,,,811.3294874001294,None,811.8763576000929,None,812.6232427004725,None,s,0,0.6538133006542921,812.6232427004725,None,813.3035222999752,None,,,,,,,21,23,female,21,2022_May_11_1023,Partial repeat,2021.2.3,59.86521957525461,
6,2,0,1,3,2,1,1,0,0,0,1,1,0,0,0,35,35,35,1,0,1,0,,,,,,,,,813.813462799415,None,814.5766761992127,None,l,1,0.5323970001190901,814.5766761992127,None,None,None,,,,,,,21,23,female,21,2022_May_11_1023,Partial repeat,2021.2.3,59.86521957525461,
6,2,0,1,3,2,1,1,0,0,0,1,1,0,0,0,35,35,35,,,,,,,,,,,,,,,,,,,,,,,,,,,,,,21,23,female,21,2022_May_11_1023,Partial repeat,2021.2.3,59.86521957525461,
2,7,0,1,2,2,2,2,1,0,1,1,0,0,0,0,36,36,36,0,0,0,0,,,,,,,815.1371010988951,None,815.6503717992455,None,816.4307842999697,None,s,1,0.5503665003925562,816.4307842999697,None,None,None,,,,,,,21,23,female,21,2022_May_11_1023,Partial repeat,2021.2.3,59.86521957525461,
2,7,0,1,2,2,2,2,1,0,1,1,0,0,0,0,36,36,36,1,0,1,0,,,,,,,,,816.9916500989348,None,817.8167511988431,None,l,1,0.5482985004782677,817.8167511988431,None,None,None,,,,,,,21,23,female,21,2022_May_11_1023,Partial repeat,2021.2.3,59.86521957525461,
2,7,0,1,2,2,2,2,1,0,1,1,0,0,0,0,36,36,36,,,,,,,,,,,,,,,,,,,,,,,,,,,,,,21,23,female,21,2022_May_11_1023,Partial repeat,2021.2.3,59.86521957525461,
7,3,0,1,3,2,2,1,0,1,0,0,0,0,0,0,37,37,37,0,0,0,0,,,,,,,818.3814253993332,None,818.8732390999794,None,819.8542229998857,None,l,1,0.542849300429225,819.8542229998857,None,None,None,,,,,,,21,23,female,21,2022_May_11_1023,Partial repeat,2021.2.3,59.86521957525461,
7,3,0,1,3,2,2,1,0,1,0,0,0,0,0,0,37,37,37,1,0,1,0,,,,,,,,,820.4120939988643,None,821.2399307005107,None,s,1,0.5652107000350952,821.2399307005107,None,None,None,,,,,,,21,23,female,21,2022_May_11_1023,Partial repeat,2021.2.3,59.86521957525461,
7,3,0,1,3,2,2,1,0,1,0,0,0,0,0,0,37,37,37,,,,,,,,,,,,,,,,,,,,,,,,,,,,,,21,23,female,21,2022_May_11_1023,Partial repeat,2021.2.3,59.86521957525461,
4,1,0,1,3,3,2,2,1,1,1,1,1,0,0,0,38,38,38,0,0,0,0,,,,,,,821.8294178005308,None,822.2632342986763,None,823.2605836987495,None,l,0,0.6404881998896599,823.2605836987495,None,823.9235040992498,None,,,,,,,21,23,female,21,2022_May_11_1023,Partial repeat,2021.2.3,59.86521957525461,
4,1,0,1,3,3,2,2,1,1,1,1,1,0,0,0,38,38,38,1,0,1,0,,,,,,,,,824.4340505003929,None,825.2308373004198,None,s,1,0.7262339014559984,825.2308373004198,None,None,None,,,,,,,21,23,female,21,2022_May_11_1023,Partial repeat,2021.2.3,59.86521957525461,
4,1,0,1,3,3,2,2,1,1,1,1,1,0,0,0,38,38,38,,,,,,,,,,,,,,,,,,,,,,,,,,,,,,21,23,female,21,2022_May_11_1023,Partial repeat,2021.2.3,59.86521957525461,
8,8,0,1,3,3,2,2,0,0,1,1,1,0,0,0,39,39,39,0,0,0,0,,,,,,,825.980770200491,None,826.5215060990304,None,827.3351229988039,None,l,1,0.7659400012344122,827.3351229988039,None,None,None,,,,,,,21,23,female,21,2022_May_11_1023,Partial repeat,2021.2.3,59.86521957525461,
8,8,0,1,3,3,2,2,0,0,1,1,1,0,0,0,39,39,39,1,0,1,0,,,,,,,,,828.1170135997236,None,829.1229727994651,None,l,1,0.6581504996865988,829.1229727994651,None,None,None,,,,,,,21,23,female,21,2022_May_11_1023,Partial repeat,2021.2.3,59.86521957525461,
8,8,0,1,3,3,2,2,0,0,1,1,1,0,0,0,39,39,39,,,,,,,,,,,,,,,,,,,,,,,,,,,,,,21,23,female,21,2022_May_11_1023,Partial repeat,2021.2.3,59.86521957525461,
7,5,0,1,3,3,1,1,0,1,1,1,0,0,0,0,40,40,40,0,0,0,0,,,,,,,829.8107377998531,None,830.4124197997153,None,831.142754400149,None,l,1,0.598327299579978,831.142754400149,None,None,None,,,,,,,21,23,female,21,2022_May_11_1023,Partial repeat,2021.2.3,59.86521957525461,
7,5,0,1,3,3,1,1,0,1,1,1,0,0,0,0,40,40,40,1,0,1,0,,,,,,,,,831.765000699088,None,832.5286641996354,None,s,1,0.6363901998847723,832.5286641996354,None,None,None,,,,,,,21,23,female,21,2022_May_11_1023,Partial repeat,2021.2.3,59.86521957525461,
7,5,0,1,3,3,1,1,0,1,1,1,0,0,0,0,40,40,40,,,,,,,,,,,,,,,,,,,,,,,,,,,,,,21,23,female,21,2022_May_11_1023,Partial repeat,2021.2.3,59.86521957525461,
2,3,0,1,3,2,2,2,1,1,0,1,1,0,0,0,41,41,41,0,0,0,0,,,,,,,833.1758967991918,None,833.7522550988942,None,834.6993621997535,None,s,1,0.6417069006711245,834.6993621997535,None,None,None,,,,,,,21,23,female,21,2022_May_11_1023,Partial repeat,2021.2.3,59.86521957525461,
2,3,0,1,3,2,2,2,1,1,0,1,1,0,0,0,41,41,41,1,0,1,0,,,,,,,,,835.3616206999868,None,836.3693639989942,None,s,1,0.5396967995911837,836.3693639989942,None,None,None,,,,,,,21,23,female,21,2022_May_11_1023,Partial repeat,2021.2.3,59.86521957525461,
2,3,0,1,3,2,2,2,1,1,0,1,1,0,0,0,41,41,41,,,,,,,,,,,,,,,,,,,,,,,,,,,,,,21,23,female,21,2022_May_11_1023,Partial repeat,2021.2.3,59.86521957525461,
3,6,0,1,2,3,2,1,0,0,0,0,1,0,0,0,42,42,42,0,0,0,0,,,,,,,836.9313978999853,None,837.6765509992838,None,838.4402708988637,None,l,1,0.764843700453639,838.4402708988637,None,None,None,,,,,,,21,23,female,21,2022_May_11_1023,Partial repeat,2021.2.3,59.86521957525461,
3,6,0,1,2,3,2,1,0,0,0,0,1,0,0,0,42,42,42,1,0,1,0,,,,,,,,,839.232033399865,None,840.0097030997276,None,l,1,0.6033665016293526,840.0097030997276,None,None,None,,,,,,,21,23,female,21,2022_May_11_1023,Partial repeat,2021.2.3,59.86521957525461,
3,6,0,1,2,3,2,1,0,0,0,0,1,0,0,0,42,42,42,,,,,,,,,,,,,,,,,,,,,,,,,,,,,,21,23,female,21,2022_May_11_1023,Partial repeat,2021.2.3,59.86521957525461,
3,7,0,1,3,2,1,2,0,0,0,0,1,0,0,0,43,43,43,0,0,0,0,,,,,,,840.6293554995209,None,841.3002744987607,None,842.0807550996542,None,l,1,0.5403069015592337,842.0807550996542,None,None,None,,,,,,,21,23,female,21,2022_May_11_1023,Partial repeat,2021.2.3,59.86521957525461,
3,7,0,1,3,2,1,2,0,0,0,0,1,0,0,0,43,43,43,1,0,1,0,,,,,,,,,842.644402699545,None,843.4333285987377,None,l,1,0.5078243985772133,843.4333285987377,None,None,None,,,,,,,21,23,female,21,2022_May_11_1023,Partial repeat,2021.2.3,59.86521957525461,
3,7,0,1,3,2,1,2,0,0,0,0,1,0,0,0,43,43,43,,,,,,,,,,,,,,,,,,,,,,,,,,,,,,21,23,female,21,2022_May_11_1023,Partial repeat,2021.2.3,59.86521957525461,
4,5,0,1,2,3,2,2,0,0,0,1,1,0,0,0,44,44,44,0,0,0,0,,,,,,,843.952447200194,None,844.5399011988193,None,845.2702443003654,None,l,1,0.6068261004984379,845.2702443003654,None,None,None,,,,,,,21,23,female,21,2022_May_11_1023,Partial repeat,2021.2.3,59.86521957525461,
4,5,0,1,2,3,2,2,0,0,0,1,1,0,0,0,44,44,44,1,0,1,0,,,,,,,,,845.8932252004743,None,846.6892951000482,None,l,1,0.5237742997705936,846.6892951000482,None,None,None,,,,,,,21,23,female,21,2022_May_11_1023,Partial repeat,2021.2.3,59.86521957525461,
4,5,0,1,2,3,2,2,0,0,0,1,1,0,0,0,44,44,44,,,,,,,,,,,,,,,,,,,,,,,,,,,,,,21,23,female,21,2022_May_11_1023,Partial repeat,2021.2.3,59.86521957525461,
4,6,0,1,3,3,2,1,1,1,1,0,1,0,0,0,45,45,45,0,0,0,0,,,,,,,847.2291892003268,None,847.8964418005198,None,848.8105221986771,None,s,1,0.6265427991747856,848.8105221986771,None,None,None,,,,,,,21,23,female,21,2022_May_11_1023,Partial repeat,2021.2.3,59.86521957525461,
4,6,0,1,3,3,2,1,1,1,1,0,1,0,0,0,45,45,45,1,0,1,0,,,,,,,,,849.4513451997191,None,850.2798779997975,None,s,1,0.46918429993093014,850.2798779997975,None,None,None,,,,,,,21,23,female,21,2022_May_11_1023,Partial repeat,2021.2.3,59.86521957525461,
4,6,0,1,3,3,2,1,1,1,1,0,1,0,0,0,45,45,45,,,,,,,,,,,,,,,,,,,,,,,,,,,,,,21,23,female,21,2022_May_11_1023,Partial repeat,2021.2.3,59.86521957525461,
5,7,0,1,3,2,1,1,0,1,0,1,0,0,0,0,46,46,46,0,0,0,0,,,,,,,850.763627499342,None,851.3698613997549,None,852.2002542987466,None,l,1,0.5808131992816925,852.2002542987466,None,None,None,,,,,,,21,23,female,21,2022_May_11_1023,Partial repeat,2021.2.3,59.86521957525461,
5,7,0,1,3,2,1,1,0,1,0,1,0,0,0,0,46,46,46,1,0,1,0,,,,,,,,,852.7985426988453,None,853.6362925004214,None,s,1,0.5847156010568142,853.6362925004214,None,None,None,,,,,,,21,23,female,21,2022_May_11_1023,Partial repeat,2021.2.3,59.86521957525461,
5,7,0,1,3,2,1,1,0,1,0,1,0,0,0,0,46,46,46,,,,,,,,,,,,,,,,,,,,,,,,,,,,,,21,23,female,21,2022_May_11_1023,Partial repeat,2021.2.3,59.86521957525461,
2,4,0,1,2,3,1,2,1,0,0,0,0,0,0,0,47,47,47,0,0,0,0,,,,,,,854.240301400423,None,854.6929410994053,None,855.6900434996933,None,l,0,0.6750987991690636,855.6900434996933,None,856.3919280003756,None,,,,,,,21,23,female,21,2022_May_11_1023,Partial repeat,2021.2.3,59.86521957525461,
2,4,0,1,2,3,1,2,1,0,0,0,0,0,0,0,47,47,47,1,0,1,0,,,,,,,,,856.8973044995219,None,857.6778263989836,None,l,1,0.5752357989549637,857.6778263989836,None,None,None,,,,,,,21,23,female,21,2022_May_11_1023,Partial repeat,2021.2.3,59.86521957525461,
2,4,0,1,2,3,1,2,1,0,0,0,0,0,0,0,47,47,47,,,,,,,,,,,,,,,,,,,,,,,,,,,,,,21,23,female,21,2022_May_11_1023,Partial repeat,2021.2.3,59.86521957525461,
7,4,0,1,3,2,1,2,1,0,0,0,0,0,0,0,48,48,48,0,0,0,0,,,,,,,858.2817700989544,None,860.504298299551,None,861.3347957003862,None,s,1,0.8942705001682043,861.3347957003862,None,None,None,,,,,,,21,23,female,21,2022_May_11_1023,Partial repeat,2021.2.3,59.86521957525461,
7,4,0,1,3,2,1,2,1,0,0,0,0,0,0,0,48,48,48,1,0,1,0,,,,,,,,,862.2503861989826,None,863.1068872995675,None,l,1,0.5542265009135008,863.1068872995675,None,None,None,,,,,,,21,23,female,21,2022_May_11_1023,Partial repeat,2021.2.3,59.86521957525461,
7,4,0,1,3,2,1,2,1,0,0,0,0,0,0,0,48,48,48,,,,,,,,,,,,,,,,,,,,,,,,,,,,,,21,23,female,21,2022_May_11_1023,Partial repeat,2021.2.3,59.86521957525461,
8,5,0,1,3,2,2,1,1,1,0,0,1,0,0,0,49,49,49,0,0,0,0,,,,,,,863.6904245000333,None,864.1614145990461,None,865.1252708993852,None,s,1,1.823794599622488,865.1252708993852,None,None,None,,,,,,,21,23,female,21,2022_May_11_1023,Partial repeat,2021.2.3,59.86521957525461,
8,5,0,1,3,2,2,1,1,1,0,0,1,0,0,0,49,49,49,1,0,1,0,,,,,,,,,866.9747901987284,None,867.7139644995332,None,s,1,0.5471769999712706,867.7139644995332,None,None,None,,,,,,,21,23,female,21,2022_May_11_1023,Partial repeat,2021.2.3,59.86521957525461,
8,5,0,1,3,2,2,1,1,1,0,0,1,0,0,0,49,49,49,,,,,,,,,,,,,,,,,,,,,,,,,,,,,,21,23,female,21,2022_May_11_1023,Partial repeat,2021.2.3,59.86521957525461,
6,4,0,1,2,2,2,1,1,1,1,0,1,0,0,0,50,50,50,0,0,0,0,,,,,,,868.2780801001936,None,868.7870668005198,None,869.6006511002779,None,s,1,0.5723818000406027,869.6006511002779,None,None,None,,,,,,,21,23,female,21,2022_May_11_1023,Partial repeat,2021.2.3,59.86521957525461,
6,4,0,1,2,2,2,1,1,1,1,0,1,0,0,0,50,50,50,1,0,1,0,,,,,,,,,870.2012593001127,None,871.0868689995259,None,s,1,0.5502911005169153,871.0868689995259,None,None,None,,,,,,,21,23,female,21,2022_May_11_1023,Partial repeat,2021.2.3,59.86521957525461,
6,4,0,1,2,2,2,1,1,1,1,0,1,0,0,0,50,50,50,,,,,,,,,,,,,,,,,,,,,,,,,,,,,,21,23,female,21,2022_May_11_1023,Partial repeat,2021.2.3,59.86521957525461,
1,6,0,1,2,3,2,2,0,1,0,1,0,0,0,0,51,51,51,0,0,0,0,,,,,,,871.6501736994833,None,872.2771924994886,None,873.2418951001018,None,l,1,0.571127999573946,873.2418951001018,None,None,None,,,,,,,21,23,female,21,2022_May_11_1023,Partial repeat,2021.2.3,59.86521957525461,
1,6,0,1,2,3,2,2,0,1,0,1,0,0,0,0,51,51,51,1,0,1,0,,,,,,,,,873.8223521988839,None,874.6272796001285,None,s,1,0.5537323988974094,874.6272796001285,None,None,None,,,,,,,21,23,female,21,2022_May_11_1023,Partial repeat,2021.2.3,59.86521957525461,
1,6,0,1,2,3,2,2,0,1,0,1,0,0,0,0,51,51,51,,,,,,,,,,,,,,,,,,,,,,,,,,,,,,21,23,female,21,2022_May_11_1023,Partial repeat,2021.2.3,59.86521957525461,
6,5,0,1,3,3,2,1,0,1,1,0,0,0,0,0,52,52,52,0,0,0,0,,,,,,,875.210297100246,None,875.6671727001667,None,876.414145000279,None,l,1,0.5748935993760824,876.414145000279,None,None,None,,,,,,,21,23,female,21,2022_May_11_1023,Partial repeat,2021.2.3,59.86521957525461,
6,5,0,1,3,3,2,1,0,1,1,0,0,0,0,0,52,52,52,1,0,1,0,,,,,,,,,877.0089791994542,None,877.850167600438,None,s,1,0.5469722002744675,877.850167600438,None,None,None,,,,,,,21,23,female,21,2022_May_11_1023,Partial repeat,2021.2.3,59.86521957525461,
6,5,0,1,3,3,2,1,0,1,1,0,0,0,0,0,52,52,52,,,,,,,,,,,,,,,,,,,,,,,,,,,,,,21,23,female,21,2022_May_11_1023,Partial repeat,2021.2.3,59.86521957525461,
8,2,0,1,2,3,1,1,1,0,0,1,0,0,0,0,53,53,53,0,0,0,0,,,,,,,878.4082658998668,None,878.873318599537,None,879.6049131993204,None,s,1,0.7521518990397453,879.6049131993204,None,None,None,,,,,,,21,23,female,21,2022_May_11_1023,Partial repeat,2021.2.3,59.86521957525461,
8,2,0,1,2,3,1,1,1,0,0,1,0,0,0,0,53,53,53,1,0,1,0,,,,,,,,,880.3711606990546,None,881.1731869988143,None,l,1,0.6158545985817909,881.1731869988143,None,None,None,,,,,,,21,23,female,21,2022_May_11_1023,Partial repeat,2021.2.3,59.86521957525461,
8,2,0,1,2,3,1,1,1,0,0,1,0,0,0,0,53,53,53,,,,,,,,,,,,,,,,,,,,,,,,,,,,,,21,23,female,21,2022_May_11_1023,Partial repeat,2021.2.3,59.86521957525461,
3,3,0,1,2,2,2,2,1,1,1,1,1,0,0,0,54,54,54,0,0,0,0,,,,,,,881.8200383987278,None,882.2465882990509,None,883.0434466004372,None,s,1,0.5696064010262489,883.0434466004372,None,None,None,,,,,,,21,23,female,21,2022_May_11_1023,Partial repeat,2021.2.3,59.86521957525461,
3,3,0,1,2,2,2,2,1,1,1,1,1,0,0,0,54,54,54,1,0,1,0,,,,,,,,,883.6222885996103,None,884.5800892990083,None,s,1,0.5930668991059065,884.5800892990083,None,None,None,,,,,,,21,23,female,21,2022_May_11_1023,Partial repeat,2021.2.3,59.86521957525461,
3,3,0,1,2,2,2,2,1,1,1,1,1,0,0,0,54,54,54,,,,,,,,,,,,,,,,,,,,,,,,,,,,,,21,23,female,21,2022_May_11_1023,Partial repeat,2021.2.3,59.86521957525461,
6,8,0,1,2,3,1,2,1,1,0,0,1,0,0,0,55,55,55,0,0,0,0,,,,,,,885.2032442986965,None,885.7200298998505,None,886.5336857996881,None,s,1,0.639368599280715,886.5336857996881,None,None,None,,,,,,,21,23,female,21,2022_May_11_1023,Partial repeat,2021.2.3,59.86521957525461,
6,8,0,1,2,3,1,2,1,1,0,0,1,0,0,0,55,55,55,1,0,1,0,,,,,,,,,887.1962695997208,None,888.0202280003577,None,s,1,0.6328663006424904,888.0202280003577,None,None,None,,,,,,,21,23,female,21,2022_May_11_1023,Partial repeat,2021.2.3,59.86521957525461,
6,8,0,1,2,3,1,2,1,1,0,0,1,0,0,0,55,55,55,,,,,,,,,,,,,,,,,,,,,,,,,,,,,,21,23,female,21,2022_May_11_1023,Partial repeat,2021.2.3,59.86521957525461,
8,3,0,1,3,3,1,2,1,1,1,0,1,0,0,0,56,56,56,0,0,0,0,,,,,,,888.6698578000069,None,889.2101582996547,None,889.9737372994423,None,s,1,0.5434373002499342,889.9737372994423,None,None,None,,,,,,,21,23,female,21,2022_May_11_1023,Partial repeat,2021.2.3,59.86521957525461,
8,3,0,1,3,3,1,2,1,1,1,0,1,0,0,0,56,56,56,1,0,1,0,,,,,,,,,890.5290149990469,None,891.3930211998522,None,s,1,0.5880385003983974,891.3930211998522,None,None,None,,,,,,,21,23,female,21,2022_May_11_1023,Partial repeat,2021.2.3,59.86521957525461,
8,3,0,1,3,3,1,2,1,1,1,0,1,0,0,0,56,56,56,,,,,,,,,,,,,,,,,,,,,,,,,,,,,,21,23,female,21,2022_May_11_1023,Partial repeat,2021.2.3,59.86521957525461,
1,3,0,1,3,2,1,1,1,1,0,1,1,0,0,0,57,57,57,0,0,0,0,,,,,,,891.9987920988351,None,892.5333028994501,None,893.2971126995981,None,s,1,0.5719993002712727,893.2971126995981,None,None,None,,,,,,,21,23,female,21,2022_May_11_1023,Partial repeat,2021.2.3,59.86521957525461,
1,3,0,1,3,2,1,1,1,1,0,1,1,0,0,0,57,57,57,1,0,1,0,,,,,,,,,893.8798209987581,None,894.8672936987132,None,s,1,0.585734698921442,894.8672936987132,None,None,None,,,,,,,21,23,female,21,2022_May_11_1023,Partial repeat,2021.2.3,59.86521957525461,
1,3,0,1,3,2,1,1,1,1,0,1,1,0,0,0,57,57,57,,,,,,,,,,,,,,,,,,,,,,,,,,,,,,21,23,female,21,2022_May_11_1023,Partial repeat,2021.2.3,59.86521957525461,
7,7,0,1,3,3,2,2,0,1,1,1,0,0,0,0,58,58,58,0,0,0,0,,,,,,,895.4673953987658,None,898.9123704992235,None,899.909581400454,None,l,1,0.7355776000767946,899.909581400454,None,None,None,,,,,,,21,23,female,21,2022_May_11_1023,Partial repeat,2021.2.3,59.86521957525461,
7,7,0,1,3,3,2,2,0,1,1,1,0,0,0,0,58,58,58,1,0,1,0,,,,,,,,,900.6559746991843,None,901.5631382986903,None,s,1,0.5939237009733915,901.5631382986903,None,None,None,,,,,,,21,23,female,21,2022_May_11_1023,Partial repeat,2021.2.3,59.86521957525461,
7,7,0,1,3,3,2,2,0,1,1,1,0,0,0,0,58,58,58,,,,,,,,,,,,,,,,,,,,,,,,,,,,,,21,23,female,21,2022_May_11_1023,Partial repeat,2021.2.3,59.86521957525461,
5,5,0,1,2,2,1,1,0,0,1,1,1,0,0,0,59,59,59,0,0,0,0,,,,,,,902.1717837993056,None,902.6195228993893,None,903.3999113999307,None,l,1,1.1491548009216785,903.3999113999307,None,None,None,,,,,,,21,23,female,21,2022_May_11_1023,Partial repeat,2021.2.3,59.86521957525461,
5,5,0,1,2,2,1,1,0,0,1,1,1,0,0,0,59,59,59,1,0,1,0,,,,,,,,,904.568224100396,None,905.5208214987069,None,l,1,0.476214999333024,905.5208214987069,None,None,None,,,,,,,21,23,female,21,2022_May_11_1023,Partial repeat,2021.2.3,59.86521957525461,
5,5,0,1,2,2,1,1,0,0,1,1,1,0,0,0,59,59,59,,,,,,,,,,,,,,,,,,,,,,,,,,,,,,21,23,female,21,2022_May_11_1023,Partial repeat,2021.2.3,59.86521957525461,
1,8,0,1,2,3,1,1,0,0,0,1,1,0,0,0,60,60,60,0,0,0,0,,,,,,,906.0185607988387,None,906.460385799408,None,907.4077933989465,None,l,1,0.5092837996780872,907.4077933989465,None,None,None,,,,,,,21,23,female,21,2022_May_11_1023,Partial repeat,2021.2.3,59.86521957525461,
1,8,0,1,2,3,1,1,0,0,0,1,1,0,0,0,60,60,60,1,0,1,0,,,,,,,,,907.9427891001105,None,908.8770532999188,None,l,1,0.4640749003738165,908.8770532999188,None,None,None,,,,,,,21,23,female,21,2022_May_11_1023,Partial repeat,2021.2.3,59.86521957525461,
1,8,0,1,2,3,1,1,0,0,0,1,1,0,0,0,60,60,60,,,,,,,,,,,,,,,,,,,,,,,,,,,,,,21,23,female,21,2022_May_11_1023,Partial repeat,2021.2.3,59.86521957525461,
2,6,0,1,2,3,1,1,1,1,0,1,1,0,0,0,61,61,61,0,0,0,0,,,,,,,909.3552205991,None,909.8501297999173,None,910.7640311997384,None,s,1,0.5851324014365673,910.7640311997384,None,None,None,,,,,,,21,23,female,21,2022_May_11_1023,Partial repeat,2021.2.3,59.86521957525461,
2,6,0,1,2,3,1,1,1,1,0,1,1,0,0,0,61,61,61,1,0,1,0,,,,,,,,,911.3592680003494,None,912.2841721996665,None,s,1,0.4490057993680239,912.2841721996665,None,None,None,,,,,,,21,23,female,21,2022_May_11_1023,Partial repeat,2021.2.3,59.86521957525461,
2,6,0,1,2,3,1,1,1,1,0,1,1,0,0,0,61,61,61,,,,,,,,,,,,,,,,,,,,,,,,,,,,,,21,23,female,21,2022_May_11_1023,Partial repeat,2021.2.3,59.86521957525461,
2,8,0,1,2,2,2,2,0,1,1,1,0,0,0,0,62,62,62,0,0,0,0,,,,,,,912.7442506998777,None,913.2903418987989,None,914.187295999378,None,l,1,0.7377113997936249,914.187295999378,None,None,None,,,,,,,21,23,female,21,2022_May_11_1023,Partial repeat,2021.2.3,59.86521957525461,
2,8,0,1,2,2,2,2,0,1,1,1,0,0,0,0,62,62,62,1,0,1,0,,,,,,,,,914.9519122987986,None,915.8407914992422,None,s,1,0.5483702011406422,915.8407914992422,None,None,None,,,,,,,21,23,female,21,2022_May_11_1023,Partial repeat,2021.2.3,59.86521957525461,
2,8,0,1,2,2,2,2,0,1,1,1,0,0,0,0,62,62,62,,,,,,,,,,,,,,,,,,,,,,,,,,,,,,21,23,female,21,2022_May_11_1023,Partial repeat,2021.2.3,59.86521957525461,
1,1,0,1,2,2,2,1,0,1,1,0,0,0,0,0,63,63,63,0,0,0,0,,,,,,,916.4024443998933,None,916.9140437003225,None,917.862594999373,None,l,1,0.49445270001888275,917.862594999373,None,None,None,,,,,,,21,23,female,21,2022_May_11_1023,Partial repeat,2021.2.3,59.86521957525461,
1,1,0,1,2,2,2,1,0,1,1,0,0,0,0,0,63,63,63,1,0,1,0,,,,,,,,,918.3728408999741,None,919.3811402004212,None,s,1,0.5759231988340616,919.3811402004212,None,None,None,,,,,,,21,23,female,21,2022_May_11_1023,Partial repeat,2021.2.3,59.86521957525461,
1,1,0,1,2,2,2,1,0,1,1,0,0,0,0,0,63,63,63,,,,,,,,,,,,,,,,,,,,,,,,,,,,,,21,23,female,21,2022_May_11_1023,Partial repeat,2021.2.3,59.86521957525461,
8,8,0,1,3,3,1,1,1,1,1,1,1,1,0,0,64,64,64,0,0,0,0,,,,,,,925.2603440992534,None,926.3658236004412,None,927.2294332999736,None,s,1,0.6236206013709307,927.2294332999736,None,None,None,,,,,,,21,23,female,21,2022_May_11_1023,Partial repeat,2021.2.3,59.86521957525461,
8,8,0,1,3,3,1,1,1,1,1,1,1,1,0,0,64,64,64,1,0,1,0,,,,,,,,,927.8724415004253,None,928.7326466999948,None,s,1,0.47240740060806274,928.7326466999948,None,None,None,,,,,,,21,23,female,21,2022_May_11_1023,Partial repeat,2021.2.3,59.86521957525461,
8,8,0,1,3,3,1,1,1,1,1,1,1,1,0,0,64,64,64,,,,,,,,,,,,,,,,,,,,,,,,,,,,,,21,23,female,21,2022_May_11_1023,Partial repeat,2021.2.3,59.86521957525461,
8,8,0,1,3,2,2,1,0,0,0,0,1,1,0,0,65,65,65,0,0,0,0,,,,,,,929.232033399865,None,929.8559035994112,None,930.5874645002186,None,l,1,0.5456857997924089,930.5874645002186,None,None,None,,,,,,,21,23,female,21,2022_May_11_1023,Partial repeat,2021.2.3,59.86521957525461,
8,8,0,1,3,2,2,1,0,0,0,0,1,1,0,0,65,65,65,1,0,1,0,,,,,,,,,931.1422684993595,None,932.0887735001743,None,l,1,0.460258599370718,932.0887735001743,None,None,None,,,,,,,21,23,female,21,2022_May_11_1023,Partial repeat,2021.2.3,59.86521957525461,
8,8,0,1,3,2,2,1,0,0,0,0,1,1,0,0,65,65,65,,,,,,,,,,,,,,,,,,,,,,,,,,,,,,21,23,female,21,2022_May_11_1023,Partial repeat,2021.2.3,59.86521957525461,
8,8,0,1,3,2,2,2,0,1,0,1,0,1,0,0,66,66,66,0,0,0,0,,,,,,,932.5675233993679,None,933.1122427005321,None,933.9591907002032,None,l,1,0.48599350079894066,933.9591907002032,None,None,None,,,,,,,21,23,female,21,2022_May_11_1023,Partial repeat,2021.2.3,59.86521957525461,
8,8,0,1,3,2,2,2,0,1,0,1,0,1,0,0,66,66,66,1,0,1,0,,,,,,,,,934.4717980995774,None,935.3287885002792,None,s,1,0.5083620995283127,935.3287885002792,None,None,None,,,,,,,21,23,female,21,2022_May_11_1023,Partial repeat,2021.2.3,59.86521957525461,
8,8,0,1,3,2,2,2,0,1,0,1,0,1,0,0,66,66,66,,,,,,,,,,,,,,,,,,,,,,,,,,,,,,21,23,female,21,2022_May_11_1023,Partial repeat,2021.2.3,59.86521957525461,
8,8,0,1,3,3,2,2,1,1,1,1,1,1,0,0,67,67,67,0,0,0,0,,,,,,,935.8496780991554,None,936.3516947999597,None,937.1319992989302,None,s,1,0.5770564004778862,937.1319992989302,None,None,None,,,,,,,21,23,female,21,2022_May_11_1023,Partial repeat,2021.2.3,59.86521957525461,
8,8,0,1,3,3,2,2,1,1,1,1,1,1,0,0,67,67,67,1,0,1,0,,,,,,,,,937.7320860996842,None,938.5347242988646,None,s,1,0.4543701000511646,938.5347242988646,None,None,None,,,,,,,21,23,female,21,2022_May_11_1023,Partial repeat,2021.2.3,59.86521957525461,
8,8,0,1,3,3,2,2,1,1,1,1,1,1,0,0,67,67,67,,,,,,,,,,,,,,,,,,,,,,,,,,,,,,21,23,female,21,2022_May_11_1023,Partial repeat,2021.2.3,59.86521957525461,
8,8,0,1,3,3,1,2,0,1,1,0,0,1,0,0,68,68,68,0,0,0,0,,,,,,,939.0194220989943,None,939.6081351991743,None,940.4887560997158,None,l,1,0.4203337002545595,940.4887560997158,None,None,None,,,,,,,21,23,female,21,2022_May_11_1023,Partial repeat,2021.2.3,59.86521957525461,
8,8,0,1,3,3,1,2,0,1,1,0,0,1,0,0,68,68,68,1,0,1,0,,,,,,,,,940.9245247002691,None,941.7578566987067,None,s,1,0.44724599830806255,941.7578566987067,None,None,None,,,,,,,21,23,female,21,2022_May_11_1023,Partial repeat,2021.2.3,59.86521957525461,
8,8,0,1,3,3,1,2,0,1,1,0,0,1,0,0,68,68,68,,,,,,,,,,,,,,,,,,,,,,,,,,,,,,21,23,female,21,2022_May_11_1023,Partial repeat,2021.2.3,59.86521957525461,
8,8,0,1,2,2,1,1,1,1,1,1,1,1,0,0,69,69,69,0,0,0,0,,,,,,,942.2355081997812,None,942.7810586001724,None,943.6451162993908,None,l,0,0.535996800288558,943.6451162993908,None,944.2038055993617,None,,,,,,,21,23,female,21,2022_May_11_1023,Partial repeat,2021.2.3,59.86521957525461,
8,8,0,1,2,2,1,1,1,1,1,1,1,1,0,0,69,69,69,1,0,1,0,,,,,,,,,944.7181682996452,None,945.5325507987291,None,s,1,0.7125410996377468,945.5325507987291,None,None,None,,,,,,,21,23,female,21,2022_May_11_1023,Partial repeat,2021.2.3,59.86521957525461,
8,8,0,1,2,2,1,1,1,1,1,1,1,1,0,0,69,69,69,,,,,,,,,,,,,,,,,,,,,,,,,,,,,,21,23,female,21,2022_May_11_1023,Partial repeat,2021.2.3,59.86521957525461,
8,8,0,1,3,3,2,1,0,1,1,0,0,1,0,0,70,70,70,0,0,0,0,,,,,,,946.2652298994362,None,946.9223809987307,None,947.8361785002053,None,l,1,1.5369495991617441,947.8361785002053,None,None,None,,,,,,,21,23,female,21,2022_May_11_1023,Partial repeat,2021.2.3,59.86521957525461,
8,8,0,1,3,3,2,1,0,1,1,0,0,1,0,0,70,70,70,1,0,1,0,,,,,,,,,949.3832360003144,None,950.1242082994431,None,s,1,0.5448497999459505,950.1242082994431,None,None,None,,,,,,,21,23,female,21,2022_May_11_1023,Partial repeat,2021.2.3,59.86521957525461,
8,8,0,1,3,3,2,1,0,1,1,0,0,1,0,0,70,70,70,,,,,,,,,,,,,,,,,,,,,,,,,,,,,,21,23,female,21,2022_May_11_1023,Partial repeat,2021.2.3,59.86521957525461,
8,8,0,1,3,3,2,1,1,1,1,0,1,1,0,0,71,71,71,0,0,0,0,,,,,,,950.687016999349,None,951.4312459994107,None,952.2113907001913,None,s,1,0.8497070986777544,952.2113907001913,None,None,None,,,,,,,21,23,female,21,2022_May_11_1023,Partial repeat,2021.2.3,59.86521957525461,
8,8,0,1,3,3,2,1,1,1,1,0,1,1,0,0,71,71,71,1,0,1,0,,,,,,,,,953.0690253991634,None,954.0482649989426,None,s,1,0.44476510025560856,954.0482649989426,None,None,None,,,,,,,21,23,female,21,2022_May_11_1023,Partial repeat,2021.2.3,59.86521957525461,
8,8,0,1,3,3,2,1,1,1,1,0,1,1,0,0,71,71,71,,,,,,,,,,,,,,,,,,,,,,,,,,,,,,21,23,female,21,2022_May_11_1023,Partial repeat,2021.2.3,59.86521957525461,
8,8,0,1,3,3,1,2,1,0,1,0,0,1,0,0,72,72,72,0,0,0,0,,,,,,,954.5239841993898,None,955.1049766987562,None,955.9186160992831,None,s,1,0.5024435985833406,955.9186160992831,None,None,None,,,,,,,21,23,female,21,2022_May_11_1023,Partial repeat,2021.2.3,59.86521957525461,
8,8,0,1,3,3,1,2,1,0,1,0,0,1,0,0,72,72,72,1,0,1,0,,,,,,,,,956.4340470004827,None,957.2211888004094,None,l,1,0.439860200509429,957.2211888004094,None,None,None,,,,,,,21,23,female,21,2022_May_11_1023,Partial repeat,2021.2.3,59.86521957525461,
8,8,0,1,3,3,1,2,1,0,1,0,0,1,0,0,72,72,72,,,,,,,,,,,,,,,,,,,,,,,,,,,,,,21,23,female,21,2022_May_11_1023,Partial repeat,2021.2.3,59.86521957525461,
8,8,0,1,2,3,2,2,1,1,0,1,1,1,0,0,73,73,73,0,0,0,0,,,,,,,957.6760744992644,None,958.2778265997767,None,959.2918592002243,None,s,1,0.5693197995424271,959.2918592002243,None,None,None,,,,,,,21,23,female,21,2022_May_11_1023,Partial repeat,2021.2.3,59.86521957525461,
8,8,0,1,2,3,2,2,1,1,0,1,1,1,0,0,73,73,73,1,0,1,0,,,,,,,,,959.8888322003186,None,960.7949802987278,None,s,1,0.4340735003352165,960.7949802987278,None,None,None,,,,,,,21,23,female,21,2022_May_11_1023,Partial repeat,2021.2.3,59.86521957525461,
8,8,0,1,2,3,2,2,1,1,0,1,1,1,0,0,73,73,73,,,,,,,,,,,,,,,,,,,,,,,,,,,,,,21,23,female,21,2022_May_11_1023,Partial repeat,2021.2.3,59.86521957525461,
8,8,0,1,2,2,1,1,0,0,1,1,1,1,0,0,74,74,74,0,0,0,0,,,,,,,961.2476160991937,None,961.9850788004696,None,962.9988662991673,None,l,1,0.526188001036644,962.9988662991673,None,None,None,,,,,,,21,23,female,21,2022_May_11_1023,Partial repeat,2021.2.3,59.86521957525461,
8,8,0,1,2,2,1,1,0,0,1,1,1,1,0,0,74,74,74,1,0,1,0,,,,,,,,,963.5382711999118,None,964.5185666996986,None,l,1,0.4144852999597788,964.5185666996986,None,None,None,,,,,,,21,23,female,21,2022_May_11_1023,Partial repeat,2021.2.3,59.86521957525461,
8,8,0,1,2,2,1,1,0,0,1,1,1,1,0,0,74,74,74,,,,,,,,,,,,,,,,,,,,,,,,,,,,,,21,23,female,21,2022_May_11_1023,Partial repeat,2021.2.3,59.86521957525461,
8,8,0,1,2,2,2,1,1,1,1,0,1,1,0,0,75,75,75,0,0,0,0,,,,,,,964.9530350994319,None,965.4919098988175,None,966.3390726987273,None,s,1,0.44997959956526756,966.3390726987273,None,None,None,,,,,,,21,23,female,21,2022_May_11_1023,Partial repeat,2021.2.3,59.86521957525461,
8,8,0,1,2,2,2,1,1,1,1,0,1,1,0,0,75,75,75,1,0,1,0,,,,,,,,,966.8130773995072,None,967.6079147998244,None,s,1,0.3812288995832205,967.6079147998244,None,None,None,,,,,,,21,23,female,21,2022_May_11_1023,Partial repeat,2021.2.3,59.86521957525461,
8,8,0,1,2,2,2,1,1,1,1,0,1,1,0,0,75,75,75,,,,,,,,,,,,,,,,,,,,,,,,,,,,,,21,23,female,21,2022_May_11_1023,Partial repeat,2021.2.3,59.86521957525461,
8,8,0,1,2,3,1,2,0,1,0,0,0,1,0,0,76,76,76,0,0,0,0,,,,,,,968.0010401997715,None,968.5311412997544,None,969.3950407989323,None,l,1,0.40208879858255386,969.3950407989323,None,None,None,,,,,,,21,23,female,21,2022_May_11_1023,Partial repeat,2021.2.3,59.86521957525461,
8,8,0,1,2,3,1,2,0,1,0,0,0,1,0,0,76,76,76,1,0,1,0,,,,,,,,,969.8237497992814,None,970.6974881999195,None,s,1,0.49155949987471104,970.6974881999195,None,None,None,,,,,,,21,23,female,21,2022_May_11_1023,Partial repeat,2021.2.3,59.86521957525461,
8,8,0,1,2,3,1,2,0,1,0,0,0,1,0,0,76,76,76,,,,,,,,,,,,,,,,,,,,,,,,,,,,,,21,23,female,21,2022_May_11_1023,Partial repeat,2021.2.3,59.86521957525461,
8,8,0,1,2,2,1,2,0,0,1,0,1,1,0,0,77,77,77,0,0,0,0,,,,,,,971.220154799521,None,971.7541006002575,None,972.6181649994105,None,l,1,0.43492850102484226,972.6181649994105,None,None,None,,,,,,,21,23,female,21,2022_May_11_1023,Partial repeat,2021.2.3,59.86521957525461,
8,8,0,1,2,2,1,2,0,0,1,0,1,1,0,0,77,77,77,1,0,1,0,,,,,,,,,973.0700233001262,None,973.8033396992832,None,l,1,0.44972999952733517,973.8033396992832,None,None,None,,,,,,,21,23,female,21,2022_May_11_1023,Partial repeat,2021.2.3,59.86521957525461,
8,8,0,1,2,2,1,2,0,0,1,0,1,1,0,0,77,77,77,,,,,,,,,,,,,,,,,,,,,,,,,,,,,,21,23,female,21,2022_May_11_1023,Partial repeat,2021.2.3,59.86521957525461,
8,8,0,1,2,3,1,1,0,0,0,1,1,1,0,0,78,78,78,0,0,0,0,,,,,,,974.2793300990015,None,974.8434369005263,None,975.7072850000113,None,l,1,0.4577680993825197,975.7072850000113,None,None,None,,,,,,,21,23,female,21,2022_May_11_1023,Partial repeat,2021.2.3,59.86521957525461,
8,8,0,1,2,3,1,1,0,0,0,1,1,1,0,0,78,78,78,1,0,1,0,,,,,,,,,976.1769836004823,None,977.0265600997955,None,l,1,0.3864538986235857,977.0265600997955,None,None,None,,,,,,,21,23,female,21,2022_May_11_1023,Partial repeat,2021.2.3,59.86521957525461,
8,8,0,1,2,3,1,1,0,0,0,1,1,1,0,0,78,78,78,,,,,,,,,,,,,,,,,,,,,,,,,,,,,,21,23,female,21,2022_May_11_1023,Partial repeat,2021.2.3,59.86521957525461,
8,8,0,1,2,2,1,1,0,1,1,1,0,1,0,0,79,79,79,0,0,0,0,,,,,,,977.4393830001354,None,978.0663568992168,None,978.8133552987128,None,l,1,0.3596912007778883,978.8133552987128,None,None,None,,,,,,,21,23,female,21,2022_May_11_1023,Partial repeat,2021.2.3,59.86521957525461,
8,8,0,1,2,2,1,1,0,1,1,1,0,1,0,0,79,79,79,1,0,1,0,,,,,,,,,979.196058800444,None,980.0825915988535,None,s,1,0.4025583993643522,980.0825915988535,None,None,None,,,,,,,21,23,female,21,2022_May_11_1023,Partial repeat,2021.2.3,59.86521957525461,
8,8,0,1,2,2,1,1,0,1,1,1,0,1,0,0,79,79,79,,,,,,,,,,,,,,,,,,,,,,,,,,,,,,21,23,female,21,2022_May_11_1023,Partial repeat,2021.2.3,59.86521957525461,
8,8,0,1,2,3,2,2,0,0,0,1,1,1,0,0,80,80,80,0,0,0,0,,,,,,,980.4971427991986,None,981.0889269001782,None,981.9861916992813,None,l,1,0.4509277995675802,981.9861916992813,None,None,None,,,,,,,21,23,female,21,2022_May_11_1023,Partial repeat,2021.2.3,59.86521957525461,
8,8,0,1,2,3,2,2,0,0,0,1,1,1,0,0,80,80,80,1,0,1,0,,,,,,,,,982.4572099987417,None,983.3890051003546,None,l,1,0.41603909991681576,983.3890051003546,None,None,None,,,,,,,21,23,female,21,2022_May_11_1023,Partial repeat,2021.2.3,59.86521957525461,
8,8,0,1,2,3,2,2,0,0,0,1,1,1,0,0,80,80,80,,,,,,,,,,,,,,,,,,,,,,,,,,,,,,21,23,female,21,2022_May_11_1023,Partial repeat,2021.2.3,59.86521957525461,
8,8,0,1,3,3,1,1,1,0,1,1,0,1,0,0,81,81,81,0,0,0,0,,,,,,,983.8259308990091,None,984.3619432002306,None,985.2760731000453,None,s,1,0.3929622992873192,985.2760731000453,None,None,None,,,,,,,21,23,female,21,2022_May_11_1023,Partial repeat,2021.2.3,59.86521957525461,
8,8,0,1,3,3,1,1,1,0,1,1,0,1,0,0,81,81,81,1,0,1,0,,,,,,,,,985.684531699866,None,986.662035100162,None,l,1,0.4869918990880251,986.662035100162,None,None,None,,,,,,,21,23,female,21,2022_May_11_1023,Partial repeat,2021.2.3,59.86521957525461,
8,8,0,1,3,3,1,1,1,0,1,1,0,1,0,0,81,81,81,,,,,,,,,,,,,,,,,,,,,,,,,,,,,,21,23,female,21,2022_May_11_1023,Partial repeat,2021.2.3,59.86521957525461,
8,8,0,1,3,2,2,1,0,1,0,0,0,1,0,0,82,82,82,0,0,0,0,,,,,,,987.1600449997932,None,987.7351434994489,None,988.5490415003151,None,l,1,0.42400189861655235,988.5490415003151,None,None,None,,,,,,,21,23,female,21,2022_May_11_1023,Partial repeat,2021.2.3,59.86521957525461,
8,8,0,1,3,2,2,1,0,1,0,0,0,1,0,0,82,82,82,1,0,1,0,,,,,,,,,988.9985936004668,None,989.7846198994666,None,s,1,0.5003405995666981,989.7846198994666,None,None,None,,,,,,,21,23,female,21,2022_May_11_1023,Partial repeat,2021.2.3,59.86521957525461,
8,8,0,1,3,2,2,1,0,1,0,0,0,1,0,0,82,82,82,,,,,,,,,,,,,,,,,,,,,,,,,,,,,,21,23,female,21,2022_May_11_1023,Partial repeat,2021.2.3,59.86521957525461,
8,8,0,1,2,2,2,1,0,1,1,0,0,1,0,0,83,83,83,0,0,0,0,,,,,,,990.2961809001863,None,991.208558999002,None,992.2284316997975,None,l,1,0.39256579987704754,992.2284316997975,None,None,None,,,,,,,21,23,female,21,2022_May_11_1023,Partial repeat,2021.2.3,59.86521957525461,
8,8,0,1,2,2,2,1,0,1,1,0,0,1,0,0,83,83,83,1,0,1,0,,,,,,,,,992.6332878991961,None,993.4915734995157,None,s,1,0.4494380000978708,993.4915734995157,None,None,None,,,,,,,21,23,female,21,2022_May_11_1023,Partial repeat,2021.2.3,59.86521957525461,
8,8,0,1,2,2,2,1,0,1,1,0,0,1,0,0,83,83,83,,,,,,,,,,,,,,,,,,,,,,,,,,,,,,21,23,female,21,2022_May_11_1023,Partial repeat,2021.2.3,59.86521957525461,
8,8,0,1,3,3,1,2,0,0,1,0,1,1,0,0,84,84,84,0,0,0,0,,,,,,,993.9673718996346,None,994.5317279994488,None,995.4287126995623,None,l,1,0.4163250997662544,995.4287126995623,None,None,None,,,,,,,21,23,female,21,2022_May_11_1023,Partial repeat,2021.2.3,59.86521957525461,
8,8,0,1,3,3,1,2,0,0,1,0,1,1,0,0,84,84,84,1,0,1,0,,,,,,,,,995.8602763004601,None,996.8146870993078,None,l,1,0.3663759008049965,996.8146870993078,None,None,None,,,,,,,21,23,female,21,2022_May_11_1023,Partial repeat,2021.2.3,59.86521957525461,
8,8,0,1,3,3,1,2,0,0,1,0,1,1,0,0,84,84,84,,,,,,,,,,,,,,,,,,,,,,,,,,,,,,21,23,female,21,2022_May_11_1023,Partial repeat,2021.2.3,59.86521957525461,
8,8,0,1,2,2,1,2,0,1,1,0,0,1,0,0,85,85,85,0,0,0,0,,,,,,,997.2084404993802,None,997.7546321991831,None,998.5190145000815,None,l,1,0.39001959934830666,998.5190145000815,None,None,None,,,,,,,21,23,female,21,2022_May_11_1023,Partial repeat,2021.2.3,59.86521957525461,
8,8,0,1,2,2,1,2,0,1,1,0,0,1,0,0,85,85,85,1,0,1,0,,,,,,,,,998.9323979001492,None,999.7869099993259,None,s,1,0.41008069925010204,999.7869099993259,None,None,None,,,,,,,21,23,female,21,2022_May_11_1023,Partial repeat,2021.2.3,59.86521957525461,
8,8,0,1,2,2,1,2,0,1,1,0,0,1,0,0,85,85,85,,,,,,,,,,,,,,,,,,,,,,,,,,,,,,21,23,female,21,2022_May_11_1023,Partial repeat,2021.2.3,59.86521957525461,
8,8,0,1,2,2,2,2,0,1,1,1,0,1,0,0,86,86,86,0,0,0,0,,,,,,,1000.2226189989597,None,1000.8437235988677,None,1001.6576137002558,None,l,1,0.46744609996676445,1001.6576137002558,None,None,None,,,,,,,21,23,female,21,2022_May_11_1023,Partial repeat,2021.2.3,59.86521957525461,
8,8,0,1,2,2,2,2,0,1,1,1,0,1,0,0,86,86,86,1,0,1,0,,,,,,,,,1002.150264499709,None,1002.8933054003865,None,s,1,0.5037399996072054,1002.8933054003865,None,None,None,,,,,,,21,23,female,21,2022_May_11_1023,Partial repeat,2021.2.3,59.86521957525461,
8,8,0,1,2,2,2,2,0,1,1,1,0,1,0,0,86,86,86,,,,,,,,,,,,,,,,,,,,,,,,,,,,,,21,23,female,21,2022_May_11_1023,Partial repeat,2021.2.3,59.86521957525461,
8,8,0,1,3,2,1,1,1,1,0,1,1,1,0,0,87,87,87,0,0,0,0,,,,,,,1003.4124967996031,None,1003.933341300115,None,1004.9304977990687,None,s,1,0.45053819939494133,1004.9304977990687,None,None,None,,,,,,,21,23,female,21,2022_May_11_1023,Partial repeat,2021.2.3,59.86521957525461,
8,8,0,1,3,2,1,1,1,1,0,1,1,1,0,0,87,87,87,1,0,1,0,,,,,,,,,1005.4033236987889,None,1006.3167492989451,None,s,1,0.39224729873239994,1006.3167492989451,None,None,None,,,,,,,21,23,female,21,2022_May_11_1023,Partial repeat,2021.2.3,59.86521957525461,
8,8,0,1,3,2,1,1,1,1,0,1,1,1,0,0,87,87,87,,,,,,,,,,,,,,,,,,,,,,,,,,,,,,21,23,female,21,2022_May_11_1023,Partial repeat,2021.2.3,59.86521957525461,
8,8,0,1,3,2,1,2,1,1,0,0,1,1,0,0,88,88,88,0,0,0,0,,,,,,,1006.7290982995182,None,1007.6068869996816,None,1008.3715719990432,None,s,1,0.46541669964790344,1008.3715719990432,None,None,None,,,,,,,21,23,female,21,2022_May_11_1023,Partial repeat,2021.2.3,59.86521957525461,
8,8,0,1,3,2,1,2,1,1,0,0,1,1,0,0,88,88,88,1,0,1,0,,,,,,,,,1008.8446724005044,None,1009.5905307997018,None,s,1,0.37449139915406704,1009.5905307997018,None,None,None,,,,,,,21,23,female,21,2022_May_11_1023,Partial repeat,2021.2.3,59.86521957525461,
8,8,0,1,3,2,1,2,1,1,0,0,1,1,0,0,88,88,88,,,,,,,,,,,,,,,,,,,,,,,,,,,,,,21,23,female,21,2022_May_11_1023,Partial repeat,2021.2.3,59.86521957525461,
8,8,0,1,2,2,2,2,1,1,1,1,1,1,0,0,89,89,89,0,0,0,0,,,,,,,1009.9814750999212,None,1010.5961092989892,None,1011.526848198846,None,s,1,0.3741218987852335,1011.526848198846,None,None,None,,,,,,,21,23,female,21,2022_May_11_1023,Partial repeat,2021.2.3,59.86521957525461,
8,8,0,1,2,2,2,2,1,1,1,1,1,1,0,0,89,89,89,1,0,1,0,,,,,,,,,1011.9202052988112,None,1012.7956737000495,None,s,1,0.4573676995933056,1012.7956737000495,None,None,None,,,,,,,21,23,female,21,2022_May_11_1023,Partial repeat,2021.2.3,59.86521957525461,
8,8,0,1,2,2,2,2,1,1,1,1,1,1,0,0,89,89,89,,,,,,,,,,,,,,,,,,,,,,,,,,,,,,21,23,female,21,2022_May_11_1023,Partial repeat,2021.2.3,59.86521957525461,
8,8,0,1,3,3,2,2,0,0,1,1,1,1,0,0,90,90,90,0,0,0,0,,,,,,,1013.2810050994158,None,1014.3534919004887,None,1015.1516561005265,None,l,1,0.4133526999503374,1015.1516561005265,None,None,None,,,,,,,21,23,female,21,2022_May_11_1023,Partial repeat,2021.2.3,59.86521957525461,
8,8,0,1,3,3,2,2,0,0,1,1,1,1,0,0,90,90,90,1,0,1,0,,,,,,,,,1015.5972057003528,None,1016.5705228988081,None,l,1,0.3944769985973835,1016.5705228988081,None,None,None,,,,,,,21,23,female,21,2022_May_11_1023,Partial repeat,2021.2.3,59.86521957525461,
8,8,0,1,3,3,2,2,0,0,1,1,1,1,0,0,90,90,90,,,,,,,,,,,,,,,,,,,,,,,,,,,,,,21,23,female,21,2022_May_11_1023,Partial repeat,2021.2.3,59.86521957525461,
8,8,0,1,3,2,1,2,1,0,0,0,0,1,0,0,91,91,91,0,0,0,0,,,,,,,1016.9800990987569,None,1017.609720999375,None,1018.6243874002248,None,s,1,0.4206550996750593,1018.6243874002248,None,None,None,,,,,,,21,23,female,21,2022_May_11_1023,Partial repeat,2021.2.3,59.86521957525461,
8,8,0,1,3,2,1,2,1,0,0,0,0,1,0,0,91,91,91,1,0,1,0,,,,,,,,,1019.0677747987211,None,1019.792663699016,None,l,1,0.5723744984716177,1019.792663699016,None,None,None,,,,,,,21,23,female,21,2022_May_11_1023,Partial repeat,2021.2.3,59.86521957525461,
8,8,0,1,3,2,1,2,1,0,0,0,0,1,0,0,91,91,91,,,,,,,,,,,,,,,,,,,,,,,,,,,,,,21,23,female,21,2022_May_11_1023,Partial repeat,2021.2.3,59.86521957525461,
8,8,0,1,2,3,1,1,1,0,0,1,0,1,0,0,92,92,92,0,0,0,0,,,,,,,1020.379634199664,None,1021.200288599357,None,1022.1142247989774,None,s,1,0.3468148987740278,1022.1142247989774,None,None,None,,,,,,,21,23,female,21,2022_May_11_1023,Partial repeat,2021.2.3,59.86521957525461,
8,8,0,1,2,3,1,1,1,0,0,1,0,1,0,0,92,92,92,1,0,1,0,,,,,,,,,1022.4781595990062,None,1023.4164744000882,None,l,1,0.420558400452137,1023.4164744000882,None,None,None,,,,,,,21,23,female,21,2022_May_11_1023,Partial repeat,2021.2.3,59.86521957525461,
8,8,0,1,2,3,1,1,1,0,0,1,0,1,0,0,92,92,92,,,,,,,,,,,,,,,,,,,,,,,,,,,,,,21,23,female,21,2022_May_11_1023,Partial repeat,2021.2.3,59.86521957525461,
8,8,0,1,3,2,2,2,1,1,0,1,1,1,0,0,93,93,93,0,0,0,0,,,,,,,1023.8523642998189,None,1024.6403270997107,None,1025.5543227996677,None,s,1,0.3707226999104023,1025.5543227996677,None,None,None,,,,,,,21,23,female,21,2022_May_11_1023,Partial repeat,2021.2.3,59.86521957525461,
8,8,0,1,3,2,2,2,1,1,0,1,1,1,0,0,93,93,93,1,0,1,0,,,,,,,,,1025.942499499768,None,1026.773292100057,None,s,1,0.3357472997158766,1026.773292100057,None,None,None,,,,,,,21,23,female,21,2022_May_11_1023,Partial repeat,2021.2.3,59.86521957525461,
8,8,0,1,3,2,2,2,1,1,0,1,1,1,0,0,93,93,93,,,,,,,,,,,,,,,,,,,,,,,,,,,,,,21,23,female,21,2022_May_11_1023,Partial repeat,2021.2.3,59.86521957525461,
8,8,0,1,3,3,2,2,0,1,1,1,0,1,0,0,94,94,94,0,0,0,0,,,,,,,1027.125913599506,None,1027.6795512996614,None,1028.443289699033,None,l,1,0.42576250061392784,1028.443289699033,None,None,None,,,,,,,21,23,female,21,2022_May_11_1023,Partial repeat,2021.2.3,59.86521957525461,
8,8,0,1,3,3,2,2,0,1,1,1,0,1,0,0,94,94,94,1,0,1,0,,,,,,,,,1028.8916319999844,None,1029.8791592996567,None,s,1,0.3578571006655693,1029.8791592996567,None,None,None,,,,,,,21,23,female,21,2022_May_11_1023,Partial repeat,2021.2.3,59.86521957525461,
8,8,0,1,3,3,2,2,0,1,1,1,0,1,0,0,94,94,94,,,,,,,,,,,,,,,,,,,,,,,,,,,,,,21,23,female,21,2022_May_11_1023,Partial repeat,2021.2.3,59.86521957525461,
8,8,0,1,2,3,2,2,1,0,0,1,0,1,0,0,95,95,95,0,0,0,0,,,,,,,1030.2636235002428,None,1030.7853001002222,None,1031.6660511996597,None,s,1,0.3790576998144388,1031.6660511996597,None,None,None,,,,,,,21,23,female,21,2022_May_11_1023,Partial repeat,2021.2.3,59.86521957525461,
8,8,0,1,2,3,2,2,1,0,0,1,0,1,0,0,95,95,95,1,0,1,0,,,,,,,,,1032.0712681002915,None,1033.0352534987032,None,l,1,0.3857924994081259,1033.0352534987032,None,None,None,,,,,,,21,23,female,21,2022_May_11_1023,Partial repeat,2021.2.3,59.86521957525461,
8,8,0,1,2,3,2,2,1,0,0,1,0,1,0,0,95,95,95,,,,,,,,,,,,,,,,,,,,,,,,,,,,,,21,23,female,21,2022_May_11_1023,Partial repeat,2021.2.3,59.86521957525461,
8,8,0,1,2,3,2,1,1,1,0,0,1,1,0,0,96,96,96,0,0,0,0,,,,,,,1033.4489265996963,None,1035.0438307002187,None,1035.974456800148,None,s,1,0.398701099678874,1035.974456800148,None,None,None,,,,,,,21,23,female,21,2022_May_11_1023,Partial repeat,2021.2.3,59.86521957525461,
8,8,0,1,2,3,2,1,1,1,0,0,1,1,0,0,96,96,96,1,0,1,0,,,,,,,,,1036.4004052001983,None,1037.3438118994236,None,s,1,0.413229500874877,1037.3438118994236,None,None,None,,,,,,,21,23,female,21,2022_May_11_1023,Partial repeat,2021.2.3,59.86521957525461,
8,8,0,1,2,3,2,1,1,1,0,0,1,1,0,0,96,96,96,,,,,,,,,,,,,,,,,,,,,,,,,,,,,,21,23,female,21,2022_May_11_1023,Partial repeat,2021.2.3,59.86521957525461,
8,8,0,1,3,2,2,2,0,0,0,1,1,1,0,0,97,97,97,0,0,0,0,,,,,,,1037.7786520998925,None,1038.2668142002076,None,1039.247340399772,None,l,1,0.5176727995276451,1039.247340399772,None,None,None,,,,,,,21,23,female,21,2022_May_11_1023,Partial repeat,2021.2.3,59.86521957525461,
8,8,0,1,3,2,2,2,0,0,0,1,1,1,0,0,97,97,97,1,0,1,0,,,,,,,,,1039.7807777002454,None,1040.7335751000792,None,l,1,0.39147450029850006,1040.7335751000792,None,None,None,,,,,,,21,23,female,21,2022_May_11_1023,Partial repeat,2021.2.3,59.86521957525461,
8,8,0,1,3,2,2,2,0,0,0,1,1,1,0,0,97,97,97,,,,,,,,,,,,,,,,,,,,,,,,,,,,,,21,23,female,21,2022_May_11_1023,Partial repeat,2021.2.3,59.86521957525461,
8,8,0,1,3,2,2,2,1,0,0,1,0,1,0,0,98,98,98,0,0,0,0,,,,,,,1041.1444624997675,None,1041.7067972999066,None,1042.5203958004713,None,s,1,0.500636599957943,1042.5203958004713,None,None,None,,,,,,,21,23,female,21,2022_May_11_1023,Partial repeat,2021.2.3,59.86521957525461,
8,8,0,1,3,2,2,2,1,0,0,1,0,1,0,0,98,98,98,1,0,1,0,,,,,,,,,1043.036186799407,None,1044.0401830002666,None,l,1,0.4449170008301735,1044.0401830002666,None,None,None,,,,,,,21,23,female,21,2022_May_11_1023,Partial repeat,2021.2.3,59.86521957525461,
8,8,0,1,3,2,2,2,1,0,0,1,0,1,0,0,98,98,98,,,,,,,,,,,,,,,,,,,,,,,,,,,,,,21,23,female,21,2022_May_11_1023,Partial repeat,2021.2.3,59.86521957525461,
8,8,0,1,2,3,2,2,0,1,0,1,0,1,0,0,99,99,99,0,0,0,0,,,,,,,1044.5144167989492,None,1045.0133018996567,None,1045.8482764996588,None,l,1,0.436735600233078,1045.8482764996588,None,None,None,,,,,,,21,23,female,21,2022_May_11_1023,Partial repeat,2021.2.3,59.86521957525461,
8,8,0,1,2,3,2,2,0,1,0,1,0,1,0,0,99,99,99,1,0,1,0,,,,,,,,,1046.3018005993217,None,1047.1629654001445,None,s,1,0.41008290089666843,1047.1629654001445,None,None,None,,,,,,,21,23,female,21,2022_May_11_1023,Partial repeat,2021.2.3,59.86521957525461,
8,8,0,1,2,3,2,2,0,1,0,1,0,1,0,0,99,99,99,,,,,,,,,,,,,,,,,,,,,,,,,,,,,,21,23,female,21,2022_May_11_1023,Partial repeat,2021.2.3,59.86521957525461,
8,8,0,1,2,2,2,1,0,0,1,0,1,1,0,0,100,100,100,0,0,0,0,,,,,,,1047.5974019989371,None,1049.6052765995264,None,1050.5360627993941,None,l,1,0.4610830992460251,1050.5360627993941,None,None,None,,,,,,,21,23,female,21,2022_May_11_1023,Partial repeat,2021.2.3,59.86521957525461,
8,8,0,1,2,2,2,1,0,0,1,0,1,1,0,0,100,100,100,1,0,1,0,,,,,,,,,1051.0081546995789,None,1051.9558156002313,None,l,1,0.6573316995054483,1051.9558156002313,None,None,None,,,,,,,21,23,female,21,2022_May_11_1023,Partial repeat,2021.2.3,59.86521957525461,
8,8,0,1,2,2,2,1,0,0,1,0,1,1,0,0,100,100,100,,,,,,,,,,,,,,,,,,,,,,,,,,,,,,21,23,female,21,2022_May_11_1023,Partial repeat,2021.2.3,59.86521957525461,
8,8,0,1,2,3,2,1,0,0,0,0,1,1,0,0,101,101,101,0,0,0,0,,,,,,,1052.6257265992463,None,1053.1290808003396,None,1054.143170999363,None,l,1,0.38192239962518215,1054.143170999363,None,None,None,,,,,,,21,23,female,21,2022_May_11_1023,Partial repeat,2021.2.3,59.86521957525461,
8,8,0,1,2,3,2,1,0,0,0,0,1,1,0,0,101,101,101,1,0,1,0,,,,,,,,,1054.5338320992887,None,1055.4792120996863,None,l,1,0.4778346009552479,1055.4792120996863,None,None,None,,,,,,,21,23,female,21,2022_May_11_1023,Partial repeat,2021.2.3,59.86521957525461,
8,8,0,1,2,3,2,1,0,0,0,0,1,1,0,0,101,101,101,,,,,,,,,,,,,,,,,,,,,,,,,,,,,,21,23,female,21,2022_May_11_1023,Partial repeat,2021.2.3,59.86521957525461,
8,8,0,1,3,3,1,1,0,0,1,1,1,1,0,0,102,102,102,0,0,0,0,,,,,,,1055.978588199243,None,1056.4688192997128,None,1057.3829161990434,None,l,1,0.39011669903993607,1057.3829161990434,None,None,None,,,,,,,21,23,female,21,2022_May_11_1023,Partial repeat,2021.2.3,59.86521957525461,
8,8,0,1,3,3,1,1,0,0,1,1,1,1,0,0,102,102,102,1,0,1,0,,,,,,,,,1057.7942337989807,None,1058.7188006993383,None,l,1,0.35828590020537376,1058.7188006993383,None,None,None,,,,,,,21,23,female,21,2022_May_11_1023,Partial repeat,2021.2.3,59.86521957525461,
8,8,0,1,3,3,1,1,0,0,1,1,1,1,0,0,102,102,102,,,,,,,,,,,,,,,,,,,,,,,,,,,,,,21,23,female,21,2022_May_11_1023,Partial repeat,2021.2.3,59.86521957525461,
8,8,0,1,2,2,2,1,1,0,1,0,0,1,0,0,103,103,103,0,0,0,0,,,,,,,1059.0874477997422,None,1059.6083640996367,None,1060.4388386998326,None,s,1,0.4942396003752947,1060.4388386998326,None,None,None,,,,,,,21,23,female,21,2022_May_11_1023,Partial repeat,2021.2.3,59.86521957525461,
8,8,0,1,2,2,2,1,1,0,1,0,0,1,0,0,103,103,103,1,0,1,0,,,,,,,,,1060.9502643998712,None,1061.925084600225,None,l,1,0.3999298997223377,1061.925084600225,None,None,None,,,,,,,21,23,female,21,2022_May_11_1023,Partial repeat,2021.2.3,59.86521957525461,
8,8,0,1,2,2,2,1,1,0,1,0,0,1,0,0,103,103,103,,,,,,,,,,,,,,,,,,,,,,,,,,,,,,21,23,female,21,2022_May_11_1023,Partial repeat,2021.2.3,59.86521957525461,
8,8,0,1,3,3,1,2,1,1,1,0,1,1,0,0,104,104,104,0,0,0,0,,,,,,,1062.3566535990685,None,1062.7812099996954,None,1063.578720798716,None,s,1,0.46632480062544346,1063.578720798716,None,None,None,,,,,,,21,23,female,21,2022_May_11_1023,Partial repeat,2021.2.3,59.86521957525461,
8,8,0,1,3,3,1,2,1,1,1,0,1,1,0,0,104,104,104,1,0,1,0,,,,,,,,,1064.077247299254,None,1065.097859699279,None,s,1,0.5312674008309841,1065.097859699279,None,None,None,,,,,,,21,23,female,21,2022_May_11_1023,Partial repeat,2021.2.3,59.86521957525461,
8,8,0,1,3,3,1,2,1,1,1,0,1,1,0,0,104,104,104,,,,,,,,,,,,,,,,,,,,,,,,,,,,,,21,23,female,21,2022_May_11_1023,Partial repeat,2021.2.3,59.86521957525461,
8,8,0,1,3,2,1,1,0,1,0,1,0,1,0,0,105,105,105,0,0,0,0,,,,,,,1065.6417600996792,None,1066.1377322003245,None,1066.9513968992978,None,l,1,0.5096885003149509,1066.9513968992978,None,None,None,,,,,,,21,23,female,21,2022_May_11_1023,Partial repeat,2021.2.3,59.86521957525461,
8,8,0,1,3,2,1,1,0,1,0,1,0,1,0,0,105,105,105,1,0,1,0,,,,,,,,,1067.489303799346,None,1068.38727789931,None,s,1,0.49776170030236244,1068.38727789931,None,None,None,,,,,,,21,23,female,21,2022_May_11_1023,Partial repeat,2021.2.3,59.86521957525461,
8,8,0,1,3,2,1,1,0,1,0,1,0,1,0,0,105,105,105,,,,,,,,,,,,,,,,,,,,,,,,,,,,,,21,23,female,21,2022_May_11_1023,Partial repeat,2021.2.3,59.86521957525461,
8,8,0,1,3,3,1,1,0,1,1,1,0,1,0,0,106,106,106,0,0,0,0,,,,,,,1068.907265599817,None,1069.460867298767,None,1070.4424278996885,None,l,1,0.6106614992022514,1070.4424278996885,None,None,None,,,,,,,21,23,female,21,2022_May_11_1023,Partial repeat,2021.2.3,59.86521957525461,
8,8,0,1,3,3,1,1,0,1,1,1,0,1,0,0,106,106,106,1,0,1,0,,,,,,,,,1071.0609136000276,None,1072.0782951992005,None,s,1,0.4547434989362955,1072.0782951992005,None,None,None,,,,,,,21,23,female,21,2022_May_11_1023,Partial repeat,2021.2.3,59.86521957525461,
8,8,0,1,3,3,1,1,0,1,1,1,0,1,0,0,106,106,106,,,,,,,,,,,,,,,,,,,,,,,,,,,,,,21,23,female,21,2022_May_11_1023,Partial repeat,2021.2.3,59.86521957525461,
8,8,0,1,2,3,2,1,1,0,0,0,0,1,0,0,107,107,107,0,0,0,0,,,,,,,1072.5539187993854,None,1073.1012977994978,None,1073.8647601995617,None,s,1,0.6923270002007484,1073.8647601995617,None,None,None,,,,,,,21,23,female,21,2022_May_11_1023,Partial repeat,2021.2.3,59.86521957525461,
8,8,0,1,2,3,2,1,1,0,0,0,0,1,0,0,107,107,107,1,0,1,0,,,,,,,,,1074.5651740003377,None,1075.484768498689,None,l,1,0.43222020007669926,1075.484768498689,None,None,None,,,,,,,21,23,female,21,2022_May_11_1023,Partial repeat,2021.2.3,59.86521957525461,
8,8,0,1,2,3,2,1,1,0,0,0,0,1,0,0,107,107,107,,,,,,,,,,,,,,,,,,,,,,,,,,,,,,21,23,female,21,2022_May_11_1023,Partial repeat,2021.2.3,59.86521957525461,
8,8,0,1,2,2,1,2,1,1,1,0,1,1,0,0,108,108,108,0,0,0,0,,,,,,,1075.9374163001776,None,1076.3742198999971,None,1077.1046197004616,None,s,1,0.4524160008877516,1077.1046197004616,None,None,None,,,,,,,21,23,female,21,2022_May_11_1023,Partial repeat,2021.2.3,59.86521957525461,
8,8,0,1,2,2,1,2,1,1,1,0,1,1,0,0,108,108,108,1,0,1,0,,,,,,,,,1077.5766745992005,None,1078.3407160993665,None,s,1,0.4803278986364603,1078.3407160993665,None,None,None,,,,,,,21,23,female,21,2022_May_11_1023,Partial repeat,2021.2.3,59.86521957525461,
8,8,0,1,2,2,1,2,1,1,1,0,1,1,0,0,108,108,108,,,,,,,,,,,,,,,,,,,,,,,,,,,,,,21,23,female,21,2022_May_11_1023,Partial repeat,2021.2.3,59.86521957525461,
8,8,0,1,2,3,1,2,0,0,0,0,1,1,0,0,109,109,109,0,0,0,0,,,,,,,1078.8421625997871,None,1079.2298811990768,None,1080.2438067998737,None,l,1,0.40128459967672825,1080.2438067998737,None,None,None,,,,,,,21,23,female,21,2022_May_11_1023,Partial repeat,2021.2.3,59.86521957525461,
8,8,0,1,2,3,1,2,0,0,0,0,1,1,0,0,109,109,109,1,0,1,0,,,,,,,,,1080.6531042996794,None,1081.6634946987033,None,l,1,0.4215371012687683,1081.6634946987033,None,None,None,,,,,,,21,23,female,21,2022_May_11_1023,Partial repeat,2021.2.3,59.86521957525461,
8,8,0,1,2,3,1,2,0,0,0,0,1,1,0,0,109,109,109,,,,,,,,,,,,,,,,,,,,,,,,,,,,,,21,23,female,21,2022_May_11_1023,Partial repeat,2021.2.3,59.86521957525461,
8,8,0,1,2,2,2,2,1,0,1,1,0,1,0,0,110,110,110,0,0,0,0,,,,,,,1082.0998521987349,None,1082.586405299604,None,1083.483732799068,None,l,0,0.4973450992256403,1083.483732799068,None,1083.9968672003597,None,,,,,,,21,23,female,21,2022_May_11_1023,Partial repeat,2021.2.3,59.86521957525461,
8,8,0,1,2,2,2,2,1,0,1,1,0,1,0,0,110,110,110,1,0,1,0,,,,,,,,,1084.5068136993796,None,1085.2533657997847,None,l,1,0.39166530035436153,1085.2533657997847,None,None,None,,,,,,,21,23,female,21,2022_May_11_1023,Partial repeat,2021.2.3,59.86521957525461,
8,8,0,1,2,2,2,2,1,0,1,1,0,1,0,0,110,110,110,,,,,,,,,,,,,,,,,,,,,,,,,,,,,,21,23,female,21,2022_May_11_1023,Partial repeat,2021.2.3,59.86521957525461,
8,8,0,1,3,2,1,2,0,1,0,0,0,1,0,0,111,111,111,0,0,0,0,,,,,,,1085.6678531989455,None,1086.2101034000516,None,1086.990484599024,None,s,0,0.5185532998293638,1086.990484599024,None,1087.52218259871,None,,,,,,,21,23,female,21,2022_May_11_1023,Partial repeat,2021.2.3,59.86521957525461,
8,8,0,1,3,2,1,2,0,1,0,0,0,1,0,0,111,111,111,1,0,1,0,,,,,,,,,1088.030332699418,None,1088.877418300137,None,s,1,0.43161229975521564,1088.877418300137,None,None,None,,,,,,,21,23,female,21,2022_May_11_1023,Partial repeat,2021.2.3,59.86521957525461,
8,8,0,1,3,2,1,2,0,1,0,0,0,1,0,0,111,111,111,,,,,,,,,,,,,,,,,,,,,,,,,,,,,,21,23,female,21,2022_May_11_1023,Partial repeat,2021.2.3,59.86521957525461,
8,8,0,1,2,2,2,2,0,0,1,1,1,1,0,0,112,112,112,0,0,0,0,,,,,,,1089.3319885004312,None,1089.8672294989228,None,1090.8834898993373,None,l,1,0.45757650025188923,1090.8834898993373,None,None,None,,,,,,,21,23,female,21,2022_May_11_1023,Partial repeat,2021.2.3,59.86521957525461,
8,8,0,1,2,2,2,2,0,0,1,1,1,1,0,0,112,112,112,1,0,1,0,,,,,,,,,1091.3589935991913,None,1092.35065869987,None,l,1,0.43838359974324703,1092.35065869987,None,None,None,,,,,,,21,23,female,21,2022_May_11_1023,Partial repeat,2021.2.3,59.86521957525461,
8,8,0,1,2,2,2,2,0,0,1,1,1,1,0,0,112,112,112,,,,,,,,,,,,,,,,,,,,,,,,,,,,,,21,23,female,21,2022_May_11_1023,Partial repeat,2021.2.3,59.86521957525461,
8,8,0,1,2,3,1,1,0,1,0,1,0,1,0,0,113,113,113,0,0,0,0,,,,,,,1092.8043625000864,None,1093.8917062003165,None,1094.6385083999485,None,l,1,0.406529201194644,1094.6385083999485,None,None,None,,,,,,,21,23,female,21,2022_May_11_1023,Partial repeat,2021.2.3,59.86521957525461,
8,8,0,1,2,3,1,1,0,1,0,1,0,1,0,0,113,113,113,1,0,1,0,,,,,,,,,1095.0674584005028,None,1095.8073030002415,None,s,1,0.5177390016615391,1095.8073030002415,None,None,None,,,,,,,21,23,female,21,2022_May_11_1023,Partial repeat,2021.2.3,59.86521957525461,
8,8,0,1,2,3,1,1,0,1,0,1,0,1,0,0,113,113,113,,,,,,,,,,,,,,,,,,,,,,,,,,,,,,21,23,female,21,2022_May_11_1023,Partial repeat,2021.2.3,59.86521957525461,
8,8,0,1,2,3,1,1,1,1,0,1,1,1,0,0,114,114,114,0,0,0,0,,,,,,,1096.3465122003108,None,1096.8140719998628,None,1097.777994800359,None,s,1,0.4831383991986513,1097.777994800359,None,None,None,,,,,,,21,23,female,21,2022_May_11_1023,Partial repeat,2021.2.3,59.86521957525461,
8,8,0,1,2,3,1,1,1,1,0,1,1,1,0,0,114,114,114,1,0,1,0,,,,,,,,,1098.2711190003902,None,1099.1477311998606,None,s,1,0.4572583995759487,1099.1477311998606,None,None,None,,,,,,,21,23,female,21,2022_May_11_1023,Partial repeat,2021.2.3,59.86521957525461,
8,8,0,1,2,3,1,1,1,1,0,1,1,1,0,0,114,114,114,,,,,,,,,,,,,,,,,,,,,,,,,,,,,,21,23,female,21,2022_May_11_1023,Partial repeat,2021.2.3,59.86521957525461,
8,8,0,1,2,3,2,1,0,1,0,0,0,1,0,0,115,115,115,0,0,0,0,,,,,,,1099.6304793003947,None,1100.0703928992152,None,1101.0344517994672,None,l,1,0.46659580059349537,1101.0344517994672,None,None,None,,,,,,,21,23,female,21,2022_May_11_1023,Partial repeat,2021.2.3,59.86521957525461,
8,8,0,1,2,3,2,1,0,1,0,0,0,1,0,0,115,115,115,1,0,1,0,,,,,,,,,1101.5265755001456,None,1102.4037253987044,None,s,1,0.6334058009088039,1102.4037253987044,None,None,None,,,,,,,21,23,female,21,2022_May_11_1023,Partial repeat,2021.2.3,59.86521957525461,
8,8,0,1,2,3,2,1,0,1,0,0,0,1,0,0,115,115,115,,,,,,,,,,,,,,,,,,,,,,,,,,,,,,21,23,female,21,2022_May_11_1023,Partial repeat,2021.2.3,59.86521957525461,
8,8,0,1,3,2,2,1,1,1,0,0,1,1,0,0,116,116,116,0,0,0,0,,,,,,,1103.0496180988848,None,1103.5270718988031,None,1104.3409951999784,None,s,1,0.5680462010204792,1104.3409951999784,None,None,None,,,,,,,21,23,female,21,2022_May_11_1023,Partial repeat,2021.2.3,59.86521957525461,
8,8,0,1,3,2,2,1,1,1,0,0,1,1,0,0,116,116,116,1,0,1,0,,,,,,,,,1104.9187131002545,None,1105.6602570004761,None,s,1,0.4487601015716791,1105.6602570004761,None,None,None,,,,,,,21,23,female,21,2022_May_11_1023,Partial repeat,2021.2.3,59.86521957525461,
8,8,0,1,3,2,2,1,1,1,0,0,1,1,0,0,116,116,116,,,,,,,,,,,,,,,,,,,,,,,,,,,,,,21,23,female,21,2022_May_11_1023,Partial repeat,2021.2.3,59.86521957525461,
8,8,0,1,2,3,1,2,1,0,0,0,0,1,0,0,117,117,117,0,0,0,0,,,,,,,1106.1374394986778,None,1106.7667813003063,None,1107.5138016995043,None,s,1,0.4432760011404753,1107.5138016995043,None,None,None,,,,,,,21,23,female,21,2022_May_11_1023,Partial repeat,2021.2.3,59.86521957525461,
8,8,0,1,2,3,1,2,1,0,0,0,0,1,0,0,117,117,117,1,0,1,0,,,,,,,,,1107.985101999715,None,1108.9664344005287,None,l,1,0.47057610005140305,1108.9664344005287,None,None,None,,,,,,,21,23,female,21,2022_May_11_1023,Partial repeat,2021.2.3,59.86521957525461,
8,8,0,1,2,3,1,2,1,0,0,0,0,1,0,0,117,117,117,,,,,,,,,,,,,,,,,,,,,,,,,,,,,,21,23,female,21,2022_May_11_1023,Partial repeat,2021.2.3,59.86521957525461,
8,8,0,1,2,2,1,1,1,0,1,1,0,1,0,0,118,118,118,0,0,0,0,,,,,,,1109.4641443993896,None,1110.8413743004203,None,1111.722152499482,None,s,1,0.4109153989702463,1111.722152499482,None,None,None,,,,,,,21,23,female,21,2022_May_11_1023,Partial repeat,2021.2.3,59.86521957525461,
8,8,0,1,2,2,1,1,1,0,1,1,0,1,0,0,118,118,118,1,0,1,0,,,,,,,,,1112.1537382993847,None,1113.0576712992042,None,s,0,0.4513639993965626,1113.0576712992042,None,1113.5325962994248,None,,,,,,,21,23,female,21,2022_May_11_1023,Partial repeat,2021.2.3,59.86521957525461,
8,8,0,1,2,2,1,1,1,0,1,1,0,1,0,0,118,118,118,,,,,,,,,,,,,,,,,,,,,,,,,,,,,,21,23,female,21,2022_May_11_1023,Partial repeat,2021.2.3,59.86521957525461,
8,8,0,1,3,3,2,1,0,0,1,0,1,1,0,0,119,119,119,0,0,0,0,,,,,,,1114.047662500292,None,1115.1330653987825,None,1115.99686479941,None,l,1,0.5601711999624968,1115.99686479941,None,None,None,,,,,,,21,23,female,21,2022_May_11_1023,Partial repeat,2021.2.3,59.86521957525461,
8,8,0,1,3,3,2,1,0,0,1,0,1,1,0,0,119,119,119,1,0,1,0,,,,,,,,,1116.576209899038,None,1117.5831060986966,None,l,1,0.46992940083146095,1117.5831060986966,None,None,None,,,,,,,21,23,female,21,2022_May_11_1023,Partial repeat,2021.2.3,59.86521957525461,
8,8,0,1,3,3,2,1,0,0,1,0,1,1,0,0,119,119,119,,,,,,,,,,,,,,,,,,,,,,,,,,,,,,21,23,female,21,2022_May_11_1023,Partial repeat,2021.2.3,59.86521957525461,
8,8,0,1,3,2,2,1,1,0,0,0,0,1,0,0,120,120,120,0,0,0,0,,,,,,,1118.0810257997364,None,1118.506254600361,None,1119.3367759995162,None,s,1,0.42826989851891994,1119.3367759995162,None,None,None,,,,,,,21,23,female,21,2022_May_11_1023,Partial repeat,2021.2.3,59.86521957525461,
8,8,0,1,3,2,2,1,1,0,0,0,0,1,0,0,120,120,120,1,0,1,0,,,,,,,,,1119.7885311990976,None,1120.6900446005166,None,l,1,0.47496469877660275,1120.6900446005166,None,None,None,,,,,,,21,23,female,21,2022_May_11_1023,Partial repeat,2021.2.3,59.86521957525461,
8,8,0,1,3,2,2,1,1,0,0,0,0,1,0,0,120,120,120,,,,,,,,,,,,,,,,,,,,,,,,,,,,,,21,23,female,21,2022_May_11_1023,Partial repeat,2021.2.3,59.86521957525461,
8,8,0,1,3,3,2,1,1,0,1,0,0,1,0,0,121,121,121,0,0,0,0,,,,,,,1121.1896398998797,None,1121.612312398851,None,1122.6267489995807,None,s,1,0.8102702014148235,1122.6267489995807,None,None,None,,,,,,,21,23,female,21,2022_May_11_1023,Partial repeat,2021.2.3,59.86521957525461,
8,8,0,1,3,3,2,1,1,0,1,0,0,1,0,0,121,121,121,1,0,1,0,,,,,,,,,1123.4601700995117,None,1124.2961219996214,None,l,1,0.5329036992043257,1124.2961219996214,None,None,None,,,,,,,21,23,female,21,2022_May_11_1023,Partial repeat,2021.2.3,59.86521957525461,
8,8,0,1,3,3,2,1,1,0,1,0,0,1,0,0,121,121,121,,,,,,,,,,,,,,,,,,,,,,,,,,,,,,21,23,female,21,2022_May_11_1023,Partial repeat,2021.2.3,59.86521957525461,
8,8,0,1,3,3,2,2,1,0,1,1,0,1,0,0,122,122,122,0,0,0,0,,,,,,,1124.8599768001586,None,1125.2861288990825,None,1126.0495870988816,None,l,0,0.49145100079476833,1126.0495870988816,None,1126.562016999349,None,,,,,,,21,23,female,21,2022_May_11_1023,Partial repeat,2021.2.3,59.86521957525461,
8,8,0,1,3,3,2,2,1,0,1,1,0,1,0,0,122,122,122,1,0,1,0,,,,,,,,,1127.072887700051,None,1127.8863928988576,None,l,1,0.798632400110364,1127.8863928988576,None,None,None,,,,,,,21,23,female,21,2022_May_11_1023,Partial repeat,2021.2.3,59.86521957525461,
8,8,0,1,3,3,2,2,1,0,1,1,0,1,0,0,122,122,122,,,,,,,,,,,,,,,,,,,,,,,,,,,,,,21,23,female,21,2022_May_11_1023,Partial repeat,2021.2.3,59.86521957525461,
8,8,0,1,3,2,1,1,0,0,0,1,1,1,0,0,123,123,123,0,0,0,0,,,,,,,1128.701213799417,None,1129.5944790001959,None,1130.4424926005304,None,l,1,0.5865330006927252,1130.4424926005304,None,None,None,,,,,,,21,23,female,21,2022_May_11_1023,Partial repeat,2021.2.3,59.86521957525461,
8,8,0,1,3,2,1,1,0,0,0,1,1,1,0,0,123,123,123,1,0,1,0,,,,,,,,,1131.0558946002275,None,1131.778651598841,None,l,1,0.4743876997381449,1131.778651598841,None,None,None,,,,,,,21,23,female,21,2022_May_11_1023,Partial repeat,2021.2.3,59.86521957525461,
8,8,0,1,3,2,1,1,0,0,0,1,1,1,0,0,123,123,123,,,,,,,,,,,,,,,,,,,,,,,,,,,,,,21,23,female,21,2022_May_11_1023,Partial repeat,2021.2.3,59.86521957525461,
8,8,0,1,2,3,1,2,1,1,0,0,1,1,0,0,124,124,124,0,0,0,0,,,,,,,1132.2743646986783,None,1133.8361066002399,None,1134.6506254989654,None,s,1,0.3864015005528927,1134.6506254989654,None,None,None,,,,,,,21,23,female,21,2022_May_11_1023,Partial repeat,2021.2.3,59.86521957525461,
8,8,0,1,2,3,1,2,1,1,0,0,1,1,0,0,124,124,124,1,0,1,0,,,,,,,,,1135.059266699478,None,1136.0693554989994,None,s,1,0.5117086991667747,1136.0693554989994,None,None,None,,,,,,,21,23,female,21,2022_May_11_1023,Partial repeat,2021.2.3,59.86521957525461,
8,8,0,1,2,3,1,2,1,1,0,0,1,1,0,0,124,124,124,,,,,,,,,,,,,,,,,,,,,,,,,,,,,,21,23,female,21,2022_May_11_1023,Partial repeat,2021.2.3,59.86521957525461,
8,8,0,1,2,2,1,2,1,0,1,0,0,1,0,0,125,125,125,0,0,0,0,,,,,,,1136.6070021986961,None,1137.1759599987417,None,1138.0562324989587,None,s,1,0.588900800794363,1138.0562324989587,None,None,None,,,,,,,21,23,female,21,2022_May_11_1023,Partial repeat,2021.2.3,59.86521957525461,
8,8,0,1,2,2,1,2,1,0,1,0,0,1,0,0,125,125,125,1,0,1,0,,,,,,,,,1138.6550974994898,None,1139.5591972991824,None,l,1,0.4378348998725414,1139.5591972991824,None,None,None,,,,,,,21,23,female,21,2022_May_11_1023,Partial repeat,2021.2.3,59.86521957525461,
8,8,0,1,2,2,1,2,1,0,1,0,0,1,0,0,125,125,125,,,,,,,,,,,,,,,,,,,,,,,,,,,,,,21,23,female,21,2022_May_11_1023,Partial repeat,2021.2.3,59.86521957525461,
8,8,0,1,3,2,1,1,1,0,0,1,0,1,0,0,126,126,126,0,0,0,0,,,,,,,1140.013835599646,None,1140.448950899765,None,1141.3964619003236,None,s,1,0.6805677991360426,1141.3964619003236,None,None,None,,,,,,,21,23,female,21,2022_May_11_1023,Partial repeat,2021.2.3,59.86521957525461,
8,8,0,1,3,2,1,1,1,0,0,1,0,1,0,0,126,126,126,1,0,1,0,,,,,,,,,1142.0973118003458,None,1142.8322179988027,None,l,1,0.45277989841997623,1142.8322179988027,None,None,None,,,,,,,21,23,female,21,2022_May_11_1023,Partial repeat,2021.2.3,59.86521957525461,
8,8,0,1,3,2,1,1,1,0,0,1,0,1,0,0,126,126,126,,,,,,,,,,,,,,,,,,,,,,,,,,,,,,21,23,female,21,2022_May_11_1023,Partial repeat,2021.2.3,59.86521957525461,
8,8,0,1,3,2,1,2,0,0,0,0,1,1,0,0,127,127,127,0,0,0,0,,,,,,,1143.3127797003835,None,1143.872320799157,None,1144.6858606990427,None,l,1,0.48714019916951656,1144.6858606990427,None,None,None,,,,,,,21,23,female,21,2022_May_11_1023,Partial repeat,2021.2.3,59.86521957525461,
8,8,0,1,3,2,1,2,0,0,0,0,1,1,0,0,127,127,127,1,0,1,0,,,,,,,,,1145.1985139995813,None,1145.9718340989202,None,l,1,0.48120319843292236,1145.9718340989202,None,None,None,,,,,,,21,23,female,21,2022_May_11_1023,Partial repeat,2021.2.3,59.86521957525461,
8,8,0,1,3,2,1,2,0,0,0,0,1,1,0,0,127,127,127,,,,,,,,,,,,,,,,,,,,,,,,,,,,,,21,23,female,21,2022_May_11_1023,Partial repeat,2021.2.3,59.86521957525461,
5,2,0,1,2,3,2,2,0,1,0,1,0,0,0,0,128,128,128,0,0,0,0,,,,,,,1153.6369030997157,None,1154.3426545001566,None,1155.173519000411,None,s,0,0.5195241998881102,1155.173519000411,None,1155.7118427995592,None,,,,,,,21,23,female,21,2022_May_11_1023,Partial repeat,2021.2.3,59.86521957525461,
5,2,0,1,2,3,2,2,0,1,0,1,0,0,0,0,128,128,128,1,0,1,0,,,,,,,,,1156.2130017988384,None,1157.12682650052,None,s,1,0.6542079988867044,1157.12682650052,None,None,None,,,,,,,21,23,female,21,2022_May_11_1023,Partial repeat,2021.2.3,59.86521957525461,
5,2,0,1,2,3,2,2,0,1,0,1,0,0,0,0,128,128,128,,,,,,,,,,,,,,,,,,,,,,,,,,,,,,21,23,female,21,2022_May_11_1023,Partial repeat,2021.2.3,59.86521957525461,
6,5,0,1,3,3,1,1,0,0,1,1,1,0,0,0,129,129,129,0,0,0,0,,,,,,,1157.7974861003458,None,1158.2335809990764,None,1159.2139149997383,None,l,1,0.6551076993346214,1159.2139149997383,None,None,None,,,,,,,21,23,female,21,2022_May_11_1023,Partial repeat,2021.2.3,59.86521957525461,
6,5,0,1,3,3,1,1,0,0,1,1,1,0,0,0,129,129,129,1,0,1,0,,,,,,,,,1159.8950356002897,None,1160.8013482000679,None,l,1,0.8037136998027563,1160.8013482000679,None,None,None,,,,,,,21,23,female,21,2022_May_11_1023,Partial repeat,2021.2.3,59.86521957525461,
6,5,0,1,3,3,1,1,0,0,1,1,1,0,0,0,129,129,129,,,,,,,,,,,,,,,,,,,,,,,,,,,,,,21,23,female,21,2022_May_11_1023,Partial repeat,2021.2.3,59.86521957525461,
8,3,0,1,3,2,1,2,1,0,0,0,0,0,0,0,130,130,130,0,0,0,0,,,,,,,1161.618623798713,None,1162.208010200411,None,1163.2054558005184,None,s,1,0.5516234003007412,1163.2054558005184,None,None,None,,,,,,,21,23,female,21,2022_May_11_1023,Partial repeat,2021.2.3,59.86521957525461,
8,3,0,1,3,2,1,2,1,0,0,0,0,0,0,0,130,130,130,1,0,1,0,,,,,,,,,1163.7651447001845,None,1164.541125599295,None,s,0,0.775900200009346,1164.541125599295,None,1165.3337187003344,None,,,,,,,21,23,female,21,2022_May_11_1023,Partial repeat,2021.2.3,59.86521957525461,
8,3,0,1,3,2,1,2,1,0,0,0,0,0,0,0,130,130,130,,,,,,,,,,,,,,,,,,,,,,,,,,,,,,21,23,female,21,2022_May_11_1023,Partial repeat,2021.2.3,59.86521957525461,
2,8,0,1,3,2,1,2,0,0,0,0,1,0,0,0,131,131,131,0,0,0,0,,,,,,,1165.8484170995653,None,1166.53300049901,None,1167.347164599225,None,l,1,0.6578559000045061,1167.347164599225,None,None,None,,,,,,,21,23,female,21,2022_May_11_1023,Partial repeat,2021.2.3,59.86521957525461,
2,8,0,1,3,2,1,2,0,0,0,0,1,0,0,0,131,131,131,1,0,1,0,,,,,,,,,1168.0289447996765,None,1168.9664719998837,None,l,1,0.4545474015176296,1168.9664719998837,None,None,None,,,,,,,21,23,female,21,2022_May_11_1023,Partial repeat,2021.2.3,59.86521957525461,
2,8,0,1,3,2,1,2,0,0,0,0,1,0,0,0,131,131,131,,,,,,,,,,,,,,,,,,,,,,,,,,,,,,21,23,female,21,2022_May_11_1023,Partial repeat,2021.2.3,59.86521957525461,
8,2,0,1,2,2,2,2,0,0,1,1,1,0,0,0,132,132,132,0,0,0,0,,,,,,,1169.4458683989942,None,1169.8562128003687,None,1170.8035827986896,None,l,1,0.43344780057668686,1170.8035827986896,None,None,None,,,,,,,21,23,female,21,2022_May_11_1023,Partial repeat,2021.2.3,59.86521957525461,
8,2,0,1,2,2,2,2,0,0,1,1,1,0,0,0,132,132,132,1,0,1,0,,,,,,,,,1171.2534502986819,None,1172.0389449000359,None,l,1,0.5100893992930651,1172.0389449000359,None,None,None,,,,,,,21,23,female,21,2022_May_11_1023,Partial repeat,2021.2.3,59.86521957525461,
8,2,0,1,2,2,2,2,0,0,1,1,1,0,0,0,132,132,132,,,,,,,,,,,,,,,,,,,,,,,,,,,,,,21,23,female,21,2022_May_11_1023,Partial repeat,2021.2.3,59.86521957525461,
4,2,0,1,3,3,2,2,1,1,1,1,1,0,0,0,133,133,133,0,0,0,0,,,,,,,1172.5768218003213,None,1173.2795320004225,None,1174.0097056999803,None,s,1,0.5793235003948212,1174.0097056999803,None,None,None,,,,,,,21,23,female,21,2022_May_11_1023,Partial repeat,2021.2.3,59.86521957525461,
4,2,0,1,3,3,2,2,1,1,1,1,1,0,0,0,133,133,133,1,0,1,0,,,,,,,,,1174.6071392986923,None,1175.445774398744,None,s,1,0.5432834010571241,1175.445774398744,None,None,None,,,,,,,21,23,female,21,2022_May_11_1023,Partial repeat,2021.2.3,59.86521957525461,
4,2,0,1,3,3,2,2,1,1,1,1,1,0,0,0,133,133,133,,,,,,,,,,,,,,,,,,,,,,,,,,,,,,21,23,female,21,2022_May_11_1023,Partial repeat,2021.2.3,59.86521957525461,
3,6,0,1,3,2,2,1,0,0,0,0,1,0,0,0,134,134,134,0,0,0,0,,,,,,,1176.011851299554,None,1176.4522967003286,None,1177.2011906988919,None,l,1,0.6038361005485058,1177.2011906988919,None,None,None,,,,,,,21,23,female,21,2022_May_11_1023,Partial repeat,2021.2.3,59.86521957525461,
3,6,0,1,3,2,2,1,0,0,0,0,1,0,0,0,134,134,134,1,0,1,0,,,,,,,,,1177.8249398991466,None,1178.5850757993758,None,l,1,0.715947799384594,1178.5850757993758,None,None,None,,,,,,,21,23,female,21,2022_May_11_1023,Partial repeat,2021.2.3,59.86521957525461,
3,6,0,1,3,2,2,1,0,0,0,0,1,0,0,0,134,134,134,,,,,,,,,,,,,,,,,,,,,,,,,,,,,,21,23,female,21,2022_May_11_1023,Partial repeat,2021.2.3,59.86521957525461,
8,4,0,1,3,2,1,1,1,1,0,1,1,0,0,0,135,135,135,0,0,0,0,,,,,,,1179.3162884004414,None,1179.741971598938,None,1180.6728352997452,None,s,1,0.5241474993526936,1180.6728352997452,None,None,None,,,,,,,21,23,female,21,2022_May_11_1023,Partial repeat,2021.2.3,59.86521957525461,
8,4,0,1,3,2,1,1,1,1,0,1,1,0,0,0,135,135,135,1,0,1,0,,,,,,,,,1181.2084400001913,None,1182.158701699227,None,s,1,0.7183160986751318,1182.158701699227,None,None,None,,,,,,,21,23,female,21,2022_May_11_1023,Partial repeat,2021.2.3,59.86521957525461,
8,4,0,1,3,2,1,1,1,1,0,1,1,0,0,0,135,135,135,,,,,,,,,,,,,,,,,,,,,,,,,,,,,,21,23,female,21,2022_May_11_1023,Partial repeat,2021.2.3,59.86521957525461,
8,5,0,1,2,2,1,2,1,1,1,0,1,0,0,0,136,136,136,0,0,0,0,,,,,,,1182.895809199661,None,1183.2822935003787,None,1184.0461292993277,None,s,1,0.67088139988482,1184.0461292993277,None,None,None,,,,,,,21,23,female,21,2022_May_11_1023,Partial repeat,2021.2.3,59.86521957525461,
8,5,0,1,2,2,1,2,1,1,1,0,1,0,0,0,136,136,136,1,0,1,0,,,,,,,,,1184.7254297994077,None,1185.4818501994014,None,s,1,0.475144499912858,1185.4818501994014,None,None,None,,,,,,,21,23,female,21,2022_May_11_1023,Partial repeat,2021.2.3,59.86521957525461,
8,5,0,1,2,2,1,2,1,1,1,0,1,0,0,0,136,136,136,,,,,,,,,,,,,,,,,,,,,,,,,,,,,,21,23,female,21,2022_May_11_1023,Partial repeat,2021.2.3,59.86521957525461,
3,7,0,1,3,2,1,1,0,1,0,1,0,0,0,0,137,137,137,0,0,0,0,,,,,,,1185.9764537997544,None,1186.4885619003326,None,1187.385547298938,None,l,1,0.5315479002892971,1187.385547298938,None,None,None,,,,,,,21,23,female,21,2022_May_11_1023,Partial repeat,2021.2.3,59.86521957525461,
3,7,0,1,3,2,1,1,0,1,0,1,0,0,0,0,137,137,137,1,0,1,0,,,,,,,,,1187.927897600457,None,1188.755205400288,None,s,1,0.5618559997528791,1188.755205400288,None,None,None,,,,,,,21,23,female,21,2022_May_11_1023,Partial repeat,2021.2.3,59.86521957525461,
3,7,0,1,3,2,1,1,0,1,0,1,0,0,0,0,137,137,137,,,,,,,,,,,,,,,,,,,,,,,,,,,,,,21,23,female,21,2022_May_11_1023,Partial repeat,2021.2.3,59.86521957525461,
1,8,0,1,2,3,2,1,1,1,0,0,1,0,0,0,138,138,138,0,0,0,0,,,,,,,1189.3398224003613,None,1189.6948033999652,None,1190.4749304000288,None,s,1,0.5221023000776768,1190.4749304000288,None,None,None,,,,,,,21,23,female,21,2022_May_11_1023,Partial repeat,2021.2.3,59.86521957525461,
1,8,0,1,2,3,2,1,1,1,0,0,1,0,0,0,138,138,138,1,0,1,0,,,,,,,,,1191.0091706998646,None,1191.8948023989797,None,s,1,0.4223171006888151,1191.8948023989797,None,None,None,,,,,,,21,23,female,21,2022_May_11_1023,Partial repeat,2021.2.3,59.86521957525461,
1,8,0,1,2,3,2,1,1,1,0,0,1,0,0,0,138,138,138,,,,,,,,,,,,,,,,,,,,,,,,,,,,,,21,23,female,21,2022_May_11_1023,Partial repeat,2021.2.3,59.86521957525461,
2,4,0,1,2,3,1,2,1,1,0,0,1,0,0,0,139,139,139,0,0,0,0,,,,,,,1192.3305064998567,None,1192.6837822999805,None,1193.5810019988567,None,s,1,0.5920105986297131,1193.5810019988567,None,None,None,,,,,,,21,23,female,21,2022_May_11_1023,Partial repeat,2021.2.3,59.86521957525461,
2,4,0,1,2,3,1,2,1,1,0,0,1,0,0,0,139,139,139,1,0,1,0,,,,,,,,,1194.1988605000079,None,1195.1506980992854,None,s,1,0.4783218000084162,1195.1506980992854,None,None,None,,,,,,,21,23,female,21,2022_May_11_1023,Partial repeat,2021.2.3,59.86521957525461,
2,4,0,1,2,3,1,2,1,1,0,0,1,0,0,0,139,139,139,,,,,,,,,,,,,,,,,,,,,,,,,,,,,,21,23,female,21,2022_May_11_1023,Partial repeat,2021.2.3,59.86521957525461,
6,3,0,1,2,2,1,2,1,0,1,0,0,0,0,0,140,140,140,0,0,0,0,,,,,,,1195.6503050997853,None,1196.0070447996259,None,1196.8708027005196,None,s,1,0.5503394994884729,1196.8708027005196,None,None,None,,,,,,,21,23,female,21,2022_May_11_1023,Partial repeat,2021.2.3,59.86521957525461,
6,3,0,1,2,2,1,2,1,0,1,0,0,0,0,0,140,140,140,1,0,1,0,,,,,,,,,1197.4491770993918,None,1198.4238073993474,None,l,1,0.5012811999768019,1198.4238073993474,None,None,None,,,,,,,21,23,female,21,2022_May_11_1023,Partial repeat,2021.2.3,59.86521957525461,
6,3,0,1,2,2,1,2,1,0,1,0,0,0,0,0,140,140,140,,,,,,,,,,,,,,,,,,,,,,,,,,,,,,21,23,female,21,2022_May_11_1023,Partial repeat,2021.2.3,59.86521957525461,
6,7,0,1,3,3,1,1,1,0,1,1,0,0,0,0,141,141,141,0,0,0,0,,,,,,,1198.9467650000006,None,1199.3302248995751,None,1200.2775841001421,None,s,1,0.5034234002232552,1200.2775841001421,None,None,None,,,,,,,21,23,female,21,2022_May_11_1023,Partial repeat,2021.2.3,59.86521957525461,
6,7,0,1,3,3,1,1,1,0,1,1,0,0,0,0,141,141,141,1,0,1,0,,,,,,,,,1200.7947329003364,None,1201.663429800421,None,l,1,0.6375955995172262,1201.663429800421,None,None,None,,,,,,,21,23,female,21,2022_May_11_1023,Partial repeat,2021.2.3,59.86521957525461,
6,7,0,1,3,3,1,1,1,0,1,1,0,0,0,0,141,141,141,,,,,,,,,,,,,,,,,,,,,,,,,,,,,,21,23,female,21,2022_May_11_1023,Partial repeat,2021.2.3,59.86521957525461,
7,7,0,1,3,2,1,2,0,1,0,0,0,0,0,0,142,142,142,0,0,0,0,,,,,,,1202.3314874004573,None,1202.686653899029,None,1203.550440698862,None,l,1,0.6065803989768028,1203.550440698862,None,None,None,,,,,,,21,23,female,21,2022_May_11_1023,Partial repeat,2021.2.3,59.86521957525461,
7,7,0,1,3,2,1,2,0,1,0,0,0,0,0,0,142,142,142,1,0,1,0,,,,,,,,,1204.17086779885,None,1204.9030958004296,None,s,1,0.5419590007513762,1204.9030958004296,None,None,None,,,,,,,21,23,female,21,2022_May_11_1023,Partial repeat,2021.2.3,59.86521957525461,
7,7,0,1,3,2,1,2,0,1,0,0,0,0,0,0,142,142,142,,,,,,,,,,,,,,,,,,,,,,,,,,,,,,21,23,female,21,2022_May_11_1023,Partial repeat,2021.2.3,59.86521957525461,
6,1,0,1,2,3,2,1,0,0,0,0,1,0,0,0,143,143,143,0,0,0,0,,,,,,,1205.4652398005128,None,1205.9595714993775,None,1206.6898228991777,None,l,1,0.5473365001380444,1206.6898228991777,None,None,None,,,,,,,21,23,female,21,2022_May_11_1023,Partial repeat,2021.2.3,59.86521957525461,
6,1,0,1,2,3,2,1,0,0,0,0,1,0,0,0,143,143,143,1,0,1,0,,,,,,,,,1207.2464271001518,None,1208.0090925991535,None,l,1,0.5159355998039246,1208.0090925991535,None,None,None,,,,,,,21,23,female,21,2022_May_11_1023,Partial repeat,2021.2.3,59.86521957525461,
6,1,0,1,2,3,2,1,0,0,0,0,1,0,0,0,143,143,143,,,,,,,,,,,,,,,,,,,,,,,,,,,,,,21,23,female,21,2022_May_11_1023,Partial repeat,2021.2.3,59.86521957525461,
2,1,0,1,3,3,1,1,0,1,1,1,0,0,0,0,144,144,144,0,0,0,0,,,,,,,1208.5488731004298,None,1208.9823316000402,None,1209.7466150000691,None,l,1,0.4744035992771387,1209.7466150000691,None,None,None,,,,,,,21,23,female,21,2022_May_11_1023,Partial repeat,2021.2.3,59.86521957525461,
2,1,0,1,3,3,1,1,0,1,1,1,0,0,0,0,144,144,144,1,0,1,0,,,,,,,,,1210.24030979909,None,1211.0987263992429,None,s,1,0.5542603991925716,1211.0987263992429,None,None,None,,,,,,,21,23,female,21,2022_May_11_1023,Partial repeat,2021.2.3,59.86521957525461,
2,1,0,1,3,3,1,1,0,1,1,1,0,0,0,0,144,144,144,,,,,,,,,,,,,,,,,,,,,,,,,,,,,,21,23,female,21,2022_May_11_1023,Partial repeat,2021.2.3,59.86521957525461,
2,7,0,1,2,3,2,2,1,0,0,1,0,0,0,0,145,145,145,0,0,0,0,,,,,,,1211.6694285999984,None,1212.1384180001915,None,1212.9021859001368,None,s,1,0.5268232990056276,1212.9021859001368,None,None,None,,,,,,,21,23,female,21,2022_May_11_1023,Partial repeat,2021.2.3,59.86521957525461,
2,7,0,1,2,3,2,2,1,0,0,1,0,0,0,0,145,145,145,1,0,1,0,,,,,,,,,1213.4382135998458,None,1214.4551615994424,None,l,1,0.6218010000884533,1214.4551615994424,None,None,None,,,,,,,21,23,female,21,2022_May_11_1023,Partial repeat,2021.2.3,59.86521957525461,
2,7,0,1,2,3,2,2,1,0,0,1,0,0,0,0,145,145,145,,,,,,,,,,,,,,,,,,,,,,,,,,,,,,21,23,female,21,2022_May_11_1023,Partial repeat,2021.2.3,59.86521957525461,
2,6,0,1,2,2,2,2,1,1,1,1,1,0,0,0,146,146,146,0,0,0,0,,,,,,,1215.0967120993882,None,1215.5617982987314,None,1216.3755371998996,None,s,1,0.6054870001971722,1216.3755371998996,None,None,None,,,,,,,21,23,female,21,2022_May_11_1023,Partial repeat,2021.2.3,59.86521957525461,
2,6,0,1,2,2,2,2,1,1,1,1,1,0,0,0,146,146,146,1,0,1,0,,,,,,,,,1216.9966678991914,None,1217.8282097000629,None,l,0,0.6569004990160465,1217.8282097000629,None,1218.4940891005099,None,,,,,,,21,23,female,21,2022_May_11_1023,Partial repeat,2021.2.3,59.86521957525461,
2,6,0,1,2,2,2,2,1,1,1,1,1,0,0,0,146,146,146,,,,,,,,,,,,,,,,,,,,,,,,,,,,,,21,23,female,21,2022_May_11_1023,Partial repeat,2021.2.3,59.86521957525461,
1,6,0,1,3,3,2,1,1,1,1,0,1,0,0,0,147,147,147,0,0,0,0,,,,,,,1219.0018140990287,None,1219.7532602995634,None,1220.4844356998801,None,s,1,0.5606104992330074,1220.4844356998801,None,None,None,,,,,,,21,23,female,21,2022_May_11_1023,Partial repeat,2021.2.3,59.86521957525461,
1,6,0,1,3,3,2,1,1,1,1,0,1,0,0,0,147,147,147,1,0,1,0,,,,,,,,,1221.0569158997387,None,1221.802744500339,None,s,1,0.5862749014049768,1221.802744500339,None,None,None,,,,,,,21,23,female,21,2022_May_11_1023,Partial repeat,2021.2.3,59.86521957525461,
1,6,0,1,3,3,2,1,1,1,1,0,1,0,0,0,147,147,147,,,,,,,,,,,,,,,,,,,,,,,,,,,,,,21,23,female,21,2022_May_11_1023,Partial repeat,2021.2.3,59.86521957525461,
7,1,0,1,3,2,1,2,1,1,0,0,1,0,0,0,148,148,148,0,0,0,0,,,,,,,1222.4091707002372,None,1222.8592782001942,None,1223.6229969002306,None,s,1,0.5499875005334616,1223.6229969002306,None,None,None,,,,,,,21,23,female,21,2022_May_11_1023,Partial repeat,2021.2.3,59.86521957525461,
7,1,0,1,3,2,1,2,1,1,0,0,1,0,0,0,148,148,148,1,0,1,0,,,,,,,,,1224.20131389983,None,1225.1260658986866,None,s,1,0.5589399002492428,1225.1260658986866,None,None,None,,,,,,,21,23,female,21,2022_May_11_1023,Partial repeat,2021.2.3,59.86521957525461,
7,1,0,1,3,2,1,2,1,1,0,0,1,0,0,0,148,148,148,,,,,,,,,,,,,,,,,,,,,,,,,,,,,,21,23,female,21,2022_May_11_1023,Partial repeat,2021.2.3,59.86521957525461,
3,8,0,1,3,2,2,1,0,1,0,0,0,0,0,0,149,149,149,0,0,0,0,,,,,,,1225.7095991987735,None,1226.2158320993185,None,1227.0805171988904,None,l,1,0.5164922997355461,1227.0805171988904,None,None,None,,,,,,,21,23,female,21,2022_May_11_1023,Partial repeat,2021.2.3,59.86521957525461,
3,8,0,1,3,2,2,1,0,1,0,0,0,0,0,0,149,149,149,1,0,1,0,,,,,,,,,1227.6144321002066,None,1228.415386499837,None,s,1,0.6296274997293949,1228.415386499837,None,None,None,,,,,,,21,23,female,21,2022_May_11_1023,Partial repeat,2021.2.3,59.86521957525461,
3,8,0,1,3,2,2,1,0,1,0,0,0,0,0,0,149,149,149,,,,,,,,,,,,,,,,,,,,,,,,,,,,,,21,23,female,21,2022_May_11_1023,Partial repeat,2021.2.3,59.86521957525461,
8,6,0,1,2,3,1,2,1,0,0,0,0,0,0,0,150,150,150,0,0,0,0,,,,,,,1229.0644087996334,None,1229.4387864992023,None,1230.235715199262,None,s,1,0.4813023004680872,1230.235715199262,None,None,None,,,,,,,21,23,female,21,2022_May_11_1023,Partial repeat,2021.2.3,59.86521957525461,
8,6,0,1,2,3,1,2,1,0,0,0,0,0,0,0,150,150,150,1,0,1,0,,,,,,,,,1230.730062900111,None,1231.655120300129,None,l,1,0.5579359009861946,1231.655120300129,None,None,None,,,,,,,21,23,female,21,2022_May_11_1023,Partial repeat,2021.2.3,59.86521957525461,
8,6,0,1,2,3,1,2,1,0,0,0,0,0,0,0,150,150,150,,,,,,,,,,,,,,,,,,,,,,,,,,,,,,21,23,female,21,2022_May_11_1023,Partial repeat,2021.2.3,59.86521957525461,
