prime_tar_pos,probe_tar_pos,dimension,tar_color,prime_dist_color,probe_dist_color,prime_dist_shape,probe_dist_shape,prime_tar_dot_pos,probe_tar_dot_pos,col_rep,shape_rep,resp_rep,pos_fixed,sparse,MainLoop.thisRepN,MainLoop.thisTrialN,MainLoop.thisN,MainLoop.thisIndex,PrimeProbe.thisRepN,PrimeProbe.thisTrialN,PrimeProbe.thisN,PrimeProbe.thisIndex,Instruction.started,Instruction.stopped,instruction_key.keys,instruction_key.rt,instruction_key.started,instruction_key.stopped,PairStartText.started,PairStartText.stopped,FixCross.started,FixCross.stopped,SearchFixCross.started,SearchFixCross.stopped,key_resp.keys,key_resp.corr,key_resp.rt,key_resp.started,key_resp.stopped,feedback_text.started,feedback_text.stopped,text_finish.started,text_finish.stopped,finish_key.keys,finish_key.rt,finish_key.started,finish_key.stopped,participant,age,gender,group,date,expName,psychopyVersion,frameRate,
,,,,,,,,,,,,,,,,,,,,,,,1101.1121970992535,None,space,43.75805099867284,1101.1121970992535,None,,,,,,,,,,,,,,,,,,,,22,19,female,22,2022_May_11_1033,Partial repeat,2021.2.3,59.8937967102657,
7,7,0,1,3,3,2,1,1,1,1,0,1,1,0,0,0,0,0,0,0,0,0,,,,,,,1145.050291199237,None,1148.4163661990315,None,1149.2010442987084,None,s,1,1.6289927996695042,1149.2010442987084,None,None,None,,,,,,,22,19,female,22,2022_May_11_1033,Partial repeat,2021.2.3,59.8937967102657,
7,7,0,1,3,3,2,1,1,1,1,0,1,1,0,0,0,0,0,1,0,1,0,,,,,,,,,1150.841206099838,None,1151.701726898551,None,s,1,1.128269100561738,1151.701726898551,None,None,None,,,,,,,22,19,female,22,2022_May_11_1033,Partial repeat,2021.2.3,59.8937967102657,
7,7,0,1,3,3,2,1,1,1,1,0,1,1,0,0,0,0,0,,,,,,,,,,,,,,,,,,,,,,,,,,,,,,22,19,female,22,2022_May_11_1033,Partial repeat,2021.2.3,59.8937967102657,
7,7,0,1,2,2,1,2,1,1,1,0,1,1,0,0,1,1,1,0,0,0,0,,,,,,,1152.8559604994953,None,1156.0980753991753,None,1157.045464798808,None,s,1,1.8965706005692482,1157.045464798808,None,None,None,,,,,,,22,19,female,22,2022_May_11_1033,Partial repeat,2021.2.3,59.8937967102657,
7,7,0,1,2,2,1,2,1,1,1,0,1,1,0,0,1,1,1,1,0,1,0,,,,,,,,,1158.9506264999509,None,1159.8342905994505,None,s,1,2.4037469998002052,1159.8342905994505,None,None,None,,,,,,,22,19,female,22,2022_May_11_1033,Partial repeat,2021.2.3,59.8937967102657,
7,7,0,1,2,2,1,2,1,1,1,0,1,1,0,0,1,1,1,,,,,,,,,,,,,,,,,,,,,,,,,,,,,,22,19,female,22,2022_May_11_1033,Partial repeat,2021.2.3,59.8937967102657,
7,7,0,1,2,3,2,1,0,0,0,0,1,1,0,0,2,2,2,0,0,0,0,,,,,,,1162.248495798558,None,1165.1156523991376,None,1166.1297755986452,None,s,0,4.1561782993376255,1166.1297755986452,None,1170.2991882991046,None,,,,,,,22,19,female,22,2022_May_11_1033,Partial repeat,2021.2.3,59.8937967102657,
7,7,0,1,2,3,2,1,0,0,0,0,1,1,0,0,2,2,2,1,0,1,0,,,,,,,,,1170.810079799965,None,1171.6907279994339,None,l,1,3.555323600769043,1171.6907279994339,None,None,None,,,,,,,22,19,female,22,2022_May_11_1033,Partial repeat,2021.2.3,59.8937967102657,
7,7,0,1,2,3,2,1,0,0,0,0,1,1,0,0,2,2,2,,,,,,,,,,,,,,,,,,,,,,,,,,,,,,22,19,female,22,2022_May_11_1033,Partial repeat,2021.2.3,59.8937967102657,
7,7,0,1,2,2,1,2,0,1,1,0,0,1,0,0,3,3,3,0,0,0,0,,,,,,,1175.277401998639,None,1178.7421546000987,None,1179.5895739998668,None,l,1,0.8804187998175621,1179.5895739998668,None,None,None,,,,,,,22,19,female,22,2022_May_11_1033,Partial repeat,2021.2.3,59.8937967102657,
7,7,0,1,2,2,1,2,0,1,1,0,0,1,0,0,3,3,3,1,0,1,0,,,,,,,,,1180.4907131996006,None,1181.242455098778,None,s,1,0.7795342989265919,1181.242455098778,None,None,None,,,,,,,22,19,female,22,2022_May_11_1033,Partial repeat,2021.2.3,59.8937967102657,
7,7,0,1,2,2,1,2,0,1,1,0,0,1,0,0,3,3,3,,,,,,,,,,,,,,,,,,,,,,,,,,,,,,22,19,female,22,2022_May_11_1033,Partial repeat,2021.2.3,59.8937967102657,
7,7,0,1,2,3,2,1,1,0,0,0,0,1,0,0,4,4,4,0,0,0,0,,,,,,,1182.0441871993244,None,1183.3678187001497,None,1184.3487858995795,None,s,1,1.225194800645113,1184.3487858995795,None,None,None,,,,,,,22,19,female,22,2022_May_11_1033,Partial repeat,2021.2.3,59.8937967102657,
7,7,0,1,2,3,2,1,1,0,0,0,0,1,0,0,4,4,4,1,0,1,0,,,,,,,,,1185.5929307993501,None,1186.4526011999696,None,l,1,0.5453821010887623,1186.4526011999696,None,None,None,,,,,,,22,19,female,22,2022_May_11_1033,Partial repeat,2021.2.3,59.8937967102657,
7,7,0,1,2,3,2,1,1,0,0,0,0,1,0,0,4,4,4,,,,,,,,,,,,,,,,,,,,,,,,,,,,,,22,19,female,22,2022_May_11_1033,Partial repeat,2021.2.3,59.8937967102657,
7,7,0,1,2,2,2,2,1,1,1,1,1,1,0,0,5,5,5,0,0,0,0,,,,,,,1187.0214964989573,None,1189.796955998987,None,1190.6945415996015,None,s,1,0.727411400526762,1190.6945415996015,None,None,None,,,,,,,22,19,female,22,2022_May_11_1033,Partial repeat,2021.2.3,59.8937967102657,
7,7,0,1,2,2,2,2,1,1,1,1,1,1,0,0,5,5,5,1,0,1,0,,,,,,,,,1191.4311561994255,None,1192.430982498452,None,s,1,0.6149579994380474,1192.430982498452,None,None,None,,,,,,,22,19,female,22,2022_May_11_1033,Partial repeat,2021.2.3,59.8937967102657,
7,7,0,1,2,2,2,2,1,1,1,1,1,1,0,0,5,5,5,,,,,,,,,,,,,,,,,,,,,,,,,,,,,,22,19,female,22,2022_May_11_1033,Partial repeat,2021.2.3,59.8937967102657,
7,7,0,1,3,2,1,1,1,1,0,1,1,1,0,0,6,6,6,0,0,0,0,,,,,,,1193.062608199194,None,1195.741898600012,None,1196.5890210997313,None,s,1,0.4809623006731272,1196.5890210997313,None,None,None,,,,,,,22,19,female,22,2022_May_11_1033,Partial repeat,2021.2.3,59.8937967102657,
7,7,0,1,3,2,1,1,1,1,0,1,1,1,0,0,6,6,6,1,0,1,0,,,,,,,,,1197.0887650996447,None,1197.9754002988338,None,s,1,0.6545713003724813,1197.9754002988338,None,None,None,,,,,,,22,19,female,22,2022_May_11_1033,Partial repeat,2021.2.3,59.8937967102657,
7,7,0,1,3,2,1,1,1,1,0,1,1,1,0,0,6,6,6,,,,,,,,,,,,,,,,,,,,,,,,,,,,,,22,19,female,22,2022_May_11_1033,Partial repeat,2021.2.3,59.8937967102657,
7,7,0,1,3,2,1,2,0,1,0,0,0,1,0,0,7,7,7,0,0,0,0,,,,,,,1198.6547237988561,None,1202.3213445991278,None,1203.2018975000829,None,l,1,0.6841214001178741,1203.2018975000829,None,None,None,,,,,,,22,19,female,22,2022_May_11_1033,Partial repeat,2021.2.3,59.8937967102657,
7,7,0,1,3,2,1,2,0,1,0,0,0,1,0,0,7,7,7,1,0,1,0,,,,,,,,,1203.894243599847,None,1204.671600099653,None,l,0,0.7343597002327442,1204.671600099653,None,1205.436309998855,None,,,,,,,22,19,female,22,2022_May_11_1033,Partial repeat,2021.2.3,59.8937967102657,
7,7,0,1,3,2,1,2,0,1,0,0,0,1,0,0,7,7,7,,,,,,,,,,,,,,,,,,,,,,,,,,,,,,22,19,female,22,2022_May_11_1033,Partial repeat,2021.2.3,59.8937967102657,
7,7,0,1,2,2,2,1,1,0,1,0,0,1,0,0,8,8,8,0,0,0,0,,,,,,,1205.9451116994023,None,1206.6464376989752,None,1207.510264499113,None,s,1,1.327709598466754,1207.510264499113,None,None,None,,,,,,,22,19,female,22,2022_May_11_1033,Partial repeat,2021.2.3,59.8937967102657,
7,7,0,1,2,2,2,1,1,0,1,0,0,1,0,0,8,8,8,1,0,1,0,,,,,,,,,1208.864248899743,None,1209.832406198606,None,l,1,0.733628099784255,1209.832406198606,None,None,None,,,,,,,22,19,female,22,2022_May_11_1033,Partial repeat,2021.2.3,59.8937967102657,
7,7,0,1,2,2,2,1,1,0,1,0,0,1,0,0,8,8,8,,,,,,,,,,,,,,,,,,,,,,,,,,,,,,22,19,female,22,2022_May_11_1033,Partial repeat,2021.2.3,59.8937967102657,
7,7,0,1,3,2,2,1,1,1,0,0,1,1,0,0,9,9,9,0,0,0,0,,,,,,,1210.5930102989078,None,1214.2111456990242,None,1214.9416565988213,None,s,1,0.6003505010157824,1214.9416565988213,None,None,None,,,,,,,22,19,female,22,2022_May_11_1033,Partial repeat,2021.2.3,59.8937967102657,
7,7,0,1,3,2,2,1,1,1,0,0,1,1,0,0,9,9,9,1,0,1,0,,,,,,,,,1215.5702861994505,None,1216.3782450985163,None,s,1,0.7556955013424158,1216.3782450985163,None,None,None,,,,,,,22,19,female,22,2022_May_11_1033,Partial repeat,2021.2.3,59.8937967102657,
7,7,0,1,3,2,2,1,1,1,0,0,1,1,0,0,9,9,9,,,,,,,,,,,,,,,,,,,,,,,,,,,,,,22,19,female,22,2022_May_11_1033,Partial repeat,2021.2.3,59.8937967102657,
7,7,0,1,3,2,1,2,1,0,0,0,0,1,0,0,10,10,10,0,0,0,0,,,,,,,1217.1598594002426,None,1222.4938949998468,None,1223.5081047993153,None,s,1,0.5618603993207216,1223.5081047993153,None,None,None,,,,,,,22,19,female,22,2022_May_11_1033,Partial repeat,2021.2.3,59.8937967102657,
7,7,0,1,3,2,1,2,1,0,0,0,0,1,0,0,10,10,10,1,0,1,0,,,,,,,,,1224.0913028996438,None,1224.8606928996742,None,l,1,0.8732727002352476,1224.8606928996742,None,None,None,,,,,,,22,19,female,22,2022_May_11_1033,Partial repeat,2021.2.3,59.8937967102657,
7,7,0,1,3,2,1,2,1,0,0,0,0,1,0,0,10,10,10,,,,,,,,,,,,,,,,,,,,,,,,,,,,,,22,19,female,22,2022_May_11_1033,Partial repeat,2021.2.3,59.8937967102657,
7,7,0,1,3,2,1,1,1,0,0,1,0,1,0,0,11,11,11,0,0,0,0,,,,,,,1225.7524344995618,None,1246.1733043994755,None,1247.1891006994992,None,s,1,4.040864000096917,1247.1891006994992,None,None,None,,,,,,,22,19,female,22,2022_May_11_1033,Partial repeat,2021.2.3,59.8937967102657,
7,7,0,1,3,2,1,1,1,0,0,1,0,1,0,0,11,11,11,1,0,1,0,,,,,,,,,1251.2511697988957,None,1252.0134755987674,None,l,1,2.0085052009671926,1252.0134755987674,None,None,None,,,,,,,22,19,female,22,2022_May_11_1033,Partial repeat,2021.2.3,59.8937967102657,
7,7,0,1,3,2,1,1,1,0,0,1,0,1,0,0,11,11,11,,,,,,,,,,,,,,,,,,,,,,,,,,,,,,22,19,female,22,2022_May_11_1033,Partial repeat,2021.2.3,59.8937967102657,
7,7,0,1,3,3,2,2,1,1,1,1,1,1,0,0,12,12,12,0,0,0,0,,,,,,,1254.0328122992069,None,1256.2261849995703,None,1257.190877398476,None,s,1,0.6390694007277489,1257.190877398476,None,None,None,,,,,,,22,19,female,22,2022_May_11_1033,Partial repeat,2021.2.3,59.8937967102657,
7,7,0,1,3,3,2,2,1,1,1,1,1,1,0,0,12,12,12,1,0,1,0,,,,,,,,,1257.8431048989296,None,1258.7436653990299,None,s,1,0.630290400236845,1258.7436653990299,None,None,None,,,,,,,22,19,female,22,2022_May_11_1033,Partial repeat,2021.2.3,59.8937967102657,
7,7,0,1,3,3,2,2,1,1,1,1,1,1,0,0,12,12,12,,,,,,,,,,,,,,,,,,,,,,,,,,,,,,22,19,female,22,2022_May_11_1033,Partial repeat,2021.2.3,59.8937967102657,
7,7,0,1,2,2,1,1,0,1,1,1,0,1,0,0,13,13,13,0,0,0,0,,,,,,,1259.397139498964,None,1262.5718951001763,None,1263.5026124995202,None,l,1,0.5913343001157045,1263.5026124995202,None,None,None,,,,,,,22,19,female,22,2022_May_11_1033,Partial repeat,2021.2.3,59.8937967102657,
7,7,0,1,2,2,1,1,0,1,1,1,0,1,0,0,13,13,13,1,0,1,0,,,,,,,,,1264.1093367002904,None,1264.8718713000417,None,s,1,0.43013870157301426,1264.8718713000417,None,None,None,,,,,,,22,19,female,22,2022_May_11_1033,Partial repeat,2021.2.3,59.8937967102657,
7,7,0,1,2,2,1,1,0,1,1,1,0,1,0,0,13,13,13,,,,,,,,,,,,,,,,,,,,,,,,,,,,,,22,19,female,22,2022_May_11_1033,Partial repeat,2021.2.3,59.8937967102657,
7,7,0,1,2,3,1,2,0,1,0,0,0,1,0,0,14,14,14,0,0,0,0,,,,,,,1265.3318826984614,None,1267.5483422987163,None,1268.5623993985355,None,l,1,1.0035401992499828,1268.5623993985355,None,None,None,,,,,,,22,19,female,22,2022_May_11_1033,Partial repeat,2021.2.3,59.8937967102657,
7,7,0,1,2,3,1,2,0,1,0,0,0,1,0,0,14,14,14,1,0,1,0,,,,,,,,,1269.5897560995072,None,1270.3661155998707,None,s,1,0.6798244006931782,1270.3661155998707,None,None,None,,,,,,,22,19,female,22,2022_May_11_1033,Partial repeat,2021.2.3,59.8937967102657,
7,7,0,1,2,3,1,2,0,1,0,0,0,1,0,0,14,14,14,,,,,,,,,,,,,,,,,,,,,,,,,,,,,,22,19,female,22,2022_May_11_1033,Partial repeat,2021.2.3,59.8937967102657,
7,7,0,1,3,2,2,2,0,0,0,1,1,1,0,0,15,15,15,0,0,0,0,,,,,,,1271.0641078986228,None,1273.6933557987213,None,1274.44189879857,None,l,1,0.6680815983563662,1274.44189879857,None,None,None,,,,,,,22,19,female,22,2022_May_11_1033,Partial repeat,2021.2.3,59.8937967102657,
7,7,0,1,3,2,2,2,0,0,0,1,1,1,0,0,15,15,15,1,0,1,0,,,,,,,,,1275.1385011989623,None,1276.0105002000928,None,l,1,0.6114438008517027,1276.0105002000928,None,None,None,,,,,,,22,19,female,22,2022_May_11_1033,Partial repeat,2021.2.3,59.8937967102657,
7,7,0,1,3,2,2,2,0,0,0,1,1,1,0,0,15,15,15,,,,,,,,,,,,,,,,,,,,,,,,,,,,,,22,19,female,22,2022_May_11_1033,Partial repeat,2021.2.3,59.8937967102657,
7,7,0,1,2,2,2,1,0,1,1,0,0,1,0,0,16,16,16,0,0,0,0,,,,,,,1276.640511598438,None,1278.8869580999017,None,1279.7842491995543,None,l,1,1.1496876999735832,1279.7842491995543,None,None,None,,,,,,,22,19,female,22,2022_May_11_1033,Partial repeat,2021.2.3,59.8937967102657,
7,7,0,1,2,2,2,1,0,1,1,0,0,1,0,0,16,16,16,1,0,1,0,,,,,,,,,1280.9473907984793,None,1281.95548029989,None,s,1,0.7384543996304274,1281.95548029989,None,None,None,,,,,,,22,19,female,22,2022_May_11_1033,Partial repeat,2021.2.3,59.8937967102657,
7,7,0,1,2,2,2,1,0,1,1,0,0,1,0,0,16,16,16,,,,,,,,,,,,,,,,,,,,,,,,,,,,,,22,19,female,22,2022_May_11_1033,Partial repeat,2021.2.3,59.8937967102657,
7,7,0,1,3,2,1,1,0,1,0,1,0,1,0,0,17,17,17,0,0,0,0,,,,,,,1282.7148129995912,None,1284.4477823991328,None,1285.2294177990407,None,l,1,0.5525075998157263,1285.2294177990407,None,None,None,,,,,,,22,19,female,22,2022_May_11_1033,Partial repeat,2021.2.3,59.8937967102657,
7,7,0,1,3,2,1,1,0,1,0,1,0,1,0,0,17,17,17,1,0,1,0,,,,,,,,,1285.8094170987606,None,1286.7979263998568,None,s,1,0.512040700763464,1286.7979263998568,None,None,None,,,,,,,22,19,female,22,2022_May_11_1033,Partial repeat,2021.2.3,59.8937967102657,
7,7,0,1,3,2,1,1,0,1,0,1,0,1,0,0,17,17,17,,,,,,,,,,,,,,,,,,,,,,,,,,,,,,22,19,female,22,2022_May_11_1033,Partial repeat,2021.2.3,59.8937967102657,
7,7,0,1,2,3,1,2,1,0,0,0,0,1,0,0,18,18,18,0,0,0,0,,,,,,,1287.3239764999598,None,1289.5744217000902,None,1290.3047122992575,None,s,1,1.1172236986458302,1290.3047122992575,None,None,None,,,,,,,22,19,female,22,2022_May_11_1033,Partial repeat,2021.2.3,59.8937967102657,
7,7,0,1,2,3,1,2,1,0,0,0,0,1,0,0,18,18,18,1,0,1,0,,,,,,,,,1291.442173998803,None,1292.2751975990832,None,l,1,0.578871401026845,1292.2751975990832,None,None,None,,,,,,,22,19,female,22,2022_May_11_1033,Partial repeat,2021.2.3,59.8937967102657,
7,7,0,1,2,3,1,2,1,0,0,0,0,1,0,0,18,18,18,,,,,,,,,,,,,,,,,,,,,,,,,,,,,,22,19,female,22,2022_May_11_1033,Partial repeat,2021.2.3,59.8937967102657,
7,7,0,1,3,3,1,2,0,1,1,0,0,1,0,0,19,19,19,0,0,0,0,,,,,,,1292.8660828992724,None,1294.8177929986268,None,1295.63198130019,None,l,1,1.1898932997137308,1295.63198130019,None,None,None,,,,,,,22,19,female,22,2022_May_11_1033,Partial repeat,2021.2.3,59.8937967102657,
7,7,0,1,3,3,1,2,0,1,1,0,0,1,0,0,19,19,19,1,0,1,0,,,,,,,,,1296.8506221994758,None,1297.7192106992006,None,s,1,0.6387099996209145,1297.7192106992006,None,None,None,,,,,,,22,19,female,22,2022_May_11_1033,Partial repeat,2021.2.3,59.8937967102657,
7,7,0,1,3,3,1,2,0,1,1,0,0,1,0,0,19,19,19,,,,,,,,,,,,,,,,,,,,,,,,,,,,,,22,19,female,22,2022_May_11_1033,Partial repeat,2021.2.3,59.8937967102657,
7,7,0,1,2,2,1,1,1,1,1,1,1,1,0,0,20,20,20,0,0,0,0,,,,,,,1298.3786129001528,None,1300.5290142986923,None,1301.5268206000328,None,s,1,1.1671425998210907,1301.5268206000328,None,None,None,,,,,,,22,19,female,22,2022_May_11_1033,Partial repeat,2021.2.3,59.8937967102657,
7,7,0,1,2,2,1,1,1,1,1,1,1,1,0,0,20,20,20,1,0,1,0,,,,,,,,,1302.7028516996652,None,1303.4803484994918,None,s,1,0.597580099478364,1303.4803484994918,None,None,None,,,,,,,22,19,female,22,2022_May_11_1033,Partial repeat,2021.2.3,59.8937967102657,
7,7,0,1,2,2,1,1,1,1,1,1,1,1,0,0,20,20,20,,,,,,,,,,,,,,,,,,,,,,,,,,,,,,22,19,female,22,2022_May_11_1033,Partial repeat,2021.2.3,59.8937967102657,
7,7,0,1,3,3,2,1,1,0,1,0,0,1,0,0,21,21,21,0,0,0,0,,,,,,,1304.091695599258,None,1305.6556875985116,None,1306.5714202988893,None,s,1,0.6585184000432491,1306.5714202988893,None,None,None,,,,,,,22,19,female,22,2022_May_11_1033,Partial repeat,2021.2.3,59.8937967102657,
7,7,0,1,3,3,2,1,1,0,1,0,0,1,0,0,21,21,21,1,0,1,0,,,,,,,,,1307.259132599458,None,1308.1727868001908,None,l,1,0.6092010010033846,1308.1727868001908,None,None,None,,,,,,,22,19,female,22,2022_May_11_1033,Partial repeat,2021.2.3,59.8937967102657,
7,7,0,1,3,3,2,1,1,0,1,0,0,1,0,0,21,21,21,,,,,,,,,,,,,,,,,,,,,,,,,,,,,,22,19,female,22,2022_May_11_1033,Partial repeat,2021.2.3,59.8937967102657,
7,7,0,1,2,3,2,2,1,0,0,1,0,1,0,0,22,22,22,0,0,0,0,,,,,,,1308.8071849998087,None,1310.3313969001174,None,1311.078519899398,None,s,1,1.1034018993377686,1311.078519899398,None,None,None,,,,,,,22,19,female,22,2022_May_11_1033,Partial repeat,2021.2.3,59.8937967102657,
7,7,0,1,2,3,2,2,1,0,0,1,0,1,0,0,22,22,22,1,0,1,0,,,,,,,,,1312.2081608995795,None,1313.0494320001453,None,l,1,0.5004826001822948,1313.0494320001453,None,None,None,,,,,,,22,19,female,22,2022_May_11_1033,Partial repeat,2021.2.3,59.8937967102657,
7,7,0,1,2,3,2,2,1,0,0,1,0,1,0,0,22,22,22,,,,,,,,,,,,,,,,,,,,,,,,,,,,,,22,19,female,22,2022_May_11_1033,Partial repeat,2021.2.3,59.8937967102657,
7,7,0,1,3,2,2,1,1,0,0,0,0,1,0,0,23,23,23,0,0,0,0,,,,,,,1313.572891799733,None,1315.4246498998255,None,1316.4223064985126,None,s,1,0.7436925992369652,1316.4223064985126,None,None,None,,,,,,,22,19,female,22,2022_May_11_1033,Partial repeat,2021.2.3,59.8937967102657,
7,7,0,1,3,2,2,1,1,0,0,0,0,1,0,0,23,23,23,1,0,1,0,,,,,,,,,1317.175452399999,None,1318.1924324985594,None,l,1,0.5174874998629093,1318.1924324985594,None,None,None,,,,,,,22,19,female,22,2022_May_11_1033,Partial repeat,2021.2.3,59.8937967102657,
7,7,0,1,3,2,2,1,1,0,0,0,0,1,0,0,23,23,23,,,,,,,,,,,,,,,,,,,,,,,,,,,,,,22,19,female,22,2022_May_11_1033,Partial repeat,2021.2.3,59.8937967102657,
7,7,0,1,3,3,1,1,1,0,1,1,0,1,0,0,24,24,24,0,0,0,0,,,,,,,1318.7391488999128,None,1319.9167196992785,None,1320.7643607985228,None,l,0,0.6895349994301796,1320.7643607985228,None,1321.4741879999638,None,,,,,,,22,19,female,22,2022_May_11_1033,Partial repeat,2021.2.3,59.8937967102657,
7,7,0,1,3,3,1,1,1,0,1,1,0,1,0,0,24,24,24,1,0,1,0,,,,,,,,,1321.9874368999153,None,1322.7510170992464,None,l,1,0.9748966991901398,1322.7510170992464,None,None,None,,,,,,,22,19,female,22,2022_May_11_1033,Partial repeat,2021.2.3,59.8937967102657,
7,7,0,1,3,3,1,1,1,0,1,1,0,1,0,0,24,24,24,,,,,,,,,,,,,,,,,,,,,,,,,,,,,,22,19,female,22,2022_May_11_1033,Partial repeat,2021.2.3,59.8937967102657,
7,7,0,1,3,3,2,1,0,1,1,0,0,1,0,0,25,25,25,0,0,0,0,,,,,,,1323.7405391000211,None,1324.9933359995484,None,1325.9408999998122,None,l,1,0.6650288011878729,1325.9408999998122,None,None,None,,,,,,,22,19,female,22,2022_May_11_1033,Partial repeat,2021.2.3,59.8937967102657,
7,7,0,1,3,3,2,1,0,1,1,0,0,1,0,0,25,25,25,1,0,1,0,,,,,,,,,1326.6289687994868,None,1327.4772068988532,None,s,1,0.784714300185442,1327.4772068988532,None,None,None,,,,,,,22,19,female,22,2022_May_11_1033,Partial repeat,2021.2.3,59.8937967102657,
7,7,0,1,3,3,2,1,0,1,1,0,0,1,0,0,25,25,25,,,,,,,,,,,,,,,,,,,,,,,,,,,,,,22,19,female,22,2022_May_11_1033,Partial repeat,2021.2.3,59.8937967102657,
7,7,0,1,3,2,2,1,0,0,0,0,1,1,0,0,26,26,26,0,0,0,0,,,,,,,1328.283797699958,None,1329.8528163991868,None,1330.6341941989958,None,l,1,0.6597221996635199,1330.6341941989958,None,None,None,,,,,,,22,19,female,22,2022_May_11_1033,Partial repeat,2021.2.3,59.8937967102657,
7,7,0,1,3,2,2,1,0,0,0,0,1,1,0,0,26,26,26,1,0,1,0,,,,,,,,,1331.3060277998447,None,1332.086476199329,None,l,1,0.5995177011936903,1332.086476199329,None,None,None,,,,,,,22,19,female,22,2022_May_11_1033,Partial repeat,2021.2.3,59.8937967102657,
7,7,0,1,3,2,2,1,0,0,0,0,1,1,0,0,26,26,26,,,,,,,,,,,,,,,,,,,,,,,,,,,,,,22,19,female,22,2022_May_11_1033,Partial repeat,2021.2.3,59.8937967102657,
7,7,0,1,3,2,2,2,1,0,0,1,0,1,0,0,27,27,27,0,0,0,0,,,,,,,1332.6983797997236,None,1334.9626666996628,None,1335.7266106996685,None,s,1,0.5272972006350756,1335.7266106996685,None,None,None,,,,,,,22,19,female,22,2022_May_11_1033,Partial repeat,2021.2.3,59.8937967102657,
7,7,0,1,3,2,2,2,1,0,0,1,0,1,0,0,27,27,27,1,0,1,0,,,,,,,,,1336.2667027991265,None,1337.1624924987555,None,l,1,0.611446101218462,1337.1624924987555,None,None,None,,,,,,,22,19,female,22,2022_May_11_1033,Partial repeat,2021.2.3,59.8937967102657,
7,7,0,1,3,2,2,2,1,0,0,1,0,1,0,0,27,27,27,,,,,,,,,,,,,,,,,,,,,,,,,,,,,,22,19,female,22,2022_May_11_1033,Partial repeat,2021.2.3,59.8937967102657,
7,7,0,1,2,3,2,1,1,1,0,0,1,1,0,0,28,28,28,0,0,0,0,,,,,,,1337.7925648000091,None,1339.7386825997382,None,1340.6191769987345,None,s,1,0.9227785989642143,1340.6191769987345,None,None,None,,,,,,,22,19,female,22,2022_May_11_1033,Partial repeat,2021.2.3,59.8937967102657,
7,7,0,1,2,3,2,1,1,1,0,0,1,1,0,0,28,28,28,1,0,1,0,,,,,,,,,1341.569754799828,None,1342.4060110002756,None,s,1,0.6400483995676041,1342.4060110002756,None,None,None,,,,,,,22,19,female,22,2022_May_11_1033,Partial repeat,2021.2.3,59.8937967102657,
7,7,0,1,2,3,2,1,1,1,0,0,1,1,0,0,28,28,28,,,,,,,,,,,,,,,,,,,,,,,,,,,,,,22,19,female,22,2022_May_11_1033,Partial repeat,2021.2.3,59.8937967102657,
7,7,0,1,3,3,2,2,1,0,1,1,0,1,0,0,29,29,29,0,0,0,0,,,,,,,1343.0588108990341,None,1344.8819447997957,None,1345.7127546984702,None,s,1,0.7091789990663528,1345.7127546984702,None,None,None,,,,,,,22,19,female,22,2022_May_11_1033,Partial repeat,2021.2.3,59.8937967102657,
7,7,0,1,3,3,2,2,1,0,1,1,0,1,0,0,29,29,29,1,0,1,0,,,,,,,,,1346.4347591996193,None,1347.1653440985829,None,l,1,0.5126395002007484,1347.1653440985829,None,None,None,,,,,,,22,19,female,22,2022_May_11_1033,Partial repeat,2021.2.3,59.8937967102657,
7,7,0,1,3,3,2,2,1,0,1,1,0,1,0,0,29,29,29,,,,,,,,,,,,,,,,,,,,,,,,,,,,,,22,19,female,22,2022_May_11_1033,Partial repeat,2021.2.3,59.8937967102657,
7,7,0,1,3,2,1,2,1,1,0,0,1,1,0,0,30,30,30,0,0,0,0,,,,,,,1347.6912522986531,None,1349.8917928989977,None,1350.689179899171,None,s,1,0.5167813990265131,1350.689179899171,None,None,None,,,,,,,22,19,female,22,2022_May_11_1033,Partial repeat,2021.2.3,59.8937967102657,
7,7,0,1,3,2,1,2,1,1,0,0,1,1,0,0,30,30,30,1,0,1,0,,,,,,,,,1351.2316912990063,None,1352.2254545986652,None,s,1,0.5084793996065855,1352.2254545986652,None,None,None,,,,,,,22,19,female,22,2022_May_11_1033,Partial repeat,2021.2.3,59.8937967102657,
7,7,0,1,3,2,1,2,1,1,0,0,1,1,0,0,30,30,30,,,,,,,,,,,,,,,,,,,,,,,,,,,,,,22,19,female,22,2022_May_11_1033,Partial repeat,2021.2.3,59.8937967102657,
7,7,0,1,2,2,1,1,1,0,1,1,0,1,0,0,31,31,31,0,0,0,0,,,,,,,1352.7521760985255,None,1354.7678590994328,None,1355.5817839987576,None,s,1,0.5201107002794743,1355.5817839987576,None,None,None,,,,,,,22,19,female,22,2022_May_11_1033,Partial repeat,2021.2.3,59.8937967102657,
7,7,0,1,2,2,1,1,1,0,1,1,0,1,0,0,31,31,31,1,0,1,0,,,,,,,,,1356.122067399323,None,1357.1178622990847,None,l,1,0.4960374999791384,1357.1178622990847,None,None,None,,,,,,,22,19,female,22,2022_May_11_1033,Partial repeat,2021.2.3,59.8937967102657,
7,7,0,1,2,2,1,1,1,0,1,1,0,1,0,0,31,31,31,,,,,,,,,,,,,,,,,,,,,,,,,,,,,,22,19,female,22,2022_May_11_1033,Partial repeat,2021.2.3,59.8937967102657,
7,7,0,1,2,3,1,2,1,1,0,0,1,1,0,0,32,32,32,0,0,0,0,,,,,,,1357.6417714990675,None,1358.9426683988422,None,1359.906735599041,None,s,1,0.5391534995287657,1359.906735599041,None,None,None,,,,,,,22,19,female,22,2022_May_11_1033,Partial repeat,2021.2.3,59.8937967102657,
7,7,0,1,2,3,1,2,1,1,0,0,1,1,0,0,32,32,32,1,0,1,0,,,,,,,,,1360.4689355995506,None,1361.225892798975,None,s,1,0.7480533998459578,1361.225892798975,None,None,None,,,,,,,22,19,female,22,2022_May_11_1033,Partial repeat,2021.2.3,59.8937967102657,
7,7,0,1,2,3,1,2,1,1,0,0,1,1,0,0,32,32,32,,,,,,,,,,,,,,,,,,,,,,,,,,,,,,22,19,female,22,2022_May_11_1033,Partial repeat,2021.2.3,59.8937967102657,
7,7,0,1,2,3,2,2,1,1,0,1,1,1,0,0,33,33,33,0,0,0,0,,,,,,,1362.003394799307,None,1364.3197740986943,None,1365.1508623994887,None,s,1,0.5350265000015497,1365.1508623994887,None,None,None,,,,,,,22,19,female,22,2022_May_11_1033,Partial repeat,2021.2.3,59.8937967102657,
7,7,0,1,2,3,2,2,1,1,0,1,1,1,0,0,33,33,33,1,0,1,0,,,,,,,,,1365.7124923001975,None,1366.6200549993664,None,s,1,0.7218325007706881,1366.6200549993664,None,None,None,,,,,,,22,19,female,22,2022_May_11_1033,Partial repeat,2021.2.3,59.8937967102657,
7,7,0,1,2,3,2,2,1,1,0,1,1,1,0,0,33,33,33,,,,,,,,,,,,,,,,,,,,,,,,,,,,,,22,19,female,22,2022_May_11_1033,Partial repeat,2021.2.3,59.8937967102657,
7,7,0,1,3,3,1,2,1,0,1,0,0,1,0,0,34,34,34,0,0,0,0,,,,,,,1367.3620828986168,None,1369.1124267000705,None,1369.8928308989853,None,s,1,0.6090583000332117,1369.8928308989853,None,None,None,,,,,,,22,19,female,22,2022_May_11_1033,Partial repeat,2021.2.3,59.8937967102657,
7,7,0,1,3,3,1,2,1,0,1,0,0,1,0,0,34,34,34,1,0,1,0,,,,,,,,,1370.5147498995066,None,1371.5130102988333,None,l,1,0.6048708986490965,1371.5130102988333,None,None,None,,,,,,,22,19,female,22,2022_May_11_1033,Partial repeat,2021.2.3,59.8937967102657,
7,7,0,1,3,3,1,2,1,0,1,0,0,1,0,0,34,34,34,,,,,,,,,,,,,,,,,,,,,,,,,,,,,,22,19,female,22,2022_May_11_1033,Partial repeat,2021.2.3,59.8937967102657,
7,7,0,1,3,3,2,2,0,1,1,1,0,1,0,0,35,35,35,0,0,0,0,,,,,,,1372.1471579000354,None,1373.8216174002737,None,1374.8027660995722,None,l,1,1.0432297009974718,1374.8027660995722,None,None,None,,,,,,,22,19,female,22,2022_May_11_1033,Partial repeat,2021.2.3,59.8937967102657,
7,7,0,1,3,3,2,2,0,1,1,1,0,1,0,0,35,35,35,1,0,1,0,,,,,,,,,1375.8568909987807,None,1376.6895504985005,None,s,1,0.6283406000584364,1376.6895504985005,None,None,None,,,,,,,22,19,female,22,2022_May_11_1033,Partial repeat,2021.2.3,59.8937967102657,
7,7,0,1,3,3,2,2,0,1,1,1,0,1,0,0,35,35,35,,,,,,,,,,,,,,,,,,,,,,,,,,,,,,22,19,female,22,2022_May_11_1033,Partial repeat,2021.2.3,59.8937967102657,
7,7,0,1,2,2,2,2,1,0,1,1,0,1,0,0,36,36,36,0,0,0,0,,,,,,,1377.343106199056,None,1378.3972174990922,None,1379.3612337000668,None,s,1,0.580646900460124,1379.3612337000668,None,None,None,,,,,,,22,19,female,22,2022_May_11_1033,Partial repeat,2021.2.3,59.8937967102657,
7,7,0,1,2,2,2,2,1,0,1,1,0,1,0,0,36,36,36,1,0,1,0,,,,,,,,,1379.9651564992964,None,1380.6973481997848,None,l,1,0.5566315986216068,1380.6973481997848,None,None,None,,,,,,,22,19,female,22,2022_May_11_1033,Partial repeat,2021.2.3,59.8937967102657,
7,7,0,1,2,2,2,2,1,0,1,1,0,1,0,0,36,36,36,,,,,,,,,,,,,,,,,,,,,,,,,,,,,,22,19,female,22,2022_May_11_1033,Partial repeat,2021.2.3,59.8937967102657,
7,7,0,1,2,3,2,1,0,1,0,0,0,1,0,0,37,37,37,0,0,0,0,,,,,,,1381.2658915985376,None,1383.1564323995262,None,1383.9704461991787,None,l,1,0.9474314004182816,1383.9704461991787,None,None,None,,,,,,,22,19,female,22,2022_May_11_1033,Partial repeat,2021.2.3,59.8937967102657,
7,7,0,1,2,3,2,1,0,1,0,0,0,1,0,0,37,37,37,1,0,1,0,,,,,,,,,1384.9351933002472,None,1385.8408022001386,None,s,1,0.47708209976553917,1385.8408022001386,None,None,None,,,,,,,22,19,female,22,2022_May_11_1033,Partial repeat,2021.2.3,59.8937967102657,
7,7,0,1,2,3,2,1,0,1,0,0,0,1,0,0,37,37,37,,,,,,,,,,,,,,,,,,,,,,,,,,,,,,22,19,female,22,2022_May_11_1033,Partial repeat,2021.2.3,59.8937967102657,
7,7,0,1,2,3,1,1,1,1,0,1,1,1,0,0,38,38,38,0,0,0,0,,,,,,,1386.3356187995523,None,1387.2477461993694,None,1388.0458431988955,None,s,1,0.6640472002327442,1388.0458431988955,None,None,None,,,,,,,22,19,female,22,2022_May_11_1033,Partial repeat,2021.2.3,59.8937967102657,
7,7,0,1,2,3,1,1,1,1,0,1,1,1,0,0,38,38,38,1,0,1,0,,,,,,,,,1388.73451079987,None,1389.4642699994147,None,s,1,0.517603999003768,1389.4642699994147,None,None,None,,,,,,,22,19,female,22,2022_May_11_1033,Partial repeat,2021.2.3,59.8937967102657,
7,7,0,1,2,3,1,1,1,1,0,1,1,1,0,0,38,38,38,,,,,,,,,,,,,,,,,,,,,,,,,,,,,,22,19,female,22,2022_May_11_1033,Partial repeat,2021.2.3,59.8937967102657,
7,7,0,1,3,3,1,2,0,0,1,0,1,1,0,0,39,39,39,0,0,0,0,,,,,,,1390.0121976993978,None,1390.7378869988024,None,1391.5853058993816,None,l,1,0.49259489960968494,1391.5853058993816,None,None,None,,,,,,,22,19,female,22,2022_May_11_1033,Partial repeat,2021.2.3,59.8937967102657,
7,7,0,1,3,3,1,2,0,0,1,0,1,1,0,0,39,39,39,1,0,1,0,,,,,,,,,1392.087135899812,None,1392.8214554991573,None,l,1,0.432514201849699,1392.8214554991573,None,None,None,,,,,,,22,19,female,22,2022_May_11_1033,Partial repeat,2021.2.3,59.8937967102657,
7,7,0,1,3,3,1,2,0,0,1,0,1,1,0,0,39,39,39,,,,,,,,,,,,,,,,,,,,,,,,,,,,,,22,19,female,22,2022_May_11_1033,Partial repeat,2021.2.3,59.8937967102657,
7,7,0,1,3,3,1,1,0,1,1,1,0,1,0,0,40,40,40,0,0,0,0,,,,,,,1393.2666394989938,None,1393.9774677995592,None,1394.9424245990813,None,l,1,0.5914596002548933,1394.9424245990813,None,None,None,,,,,,,22,19,female,22,2022_May_11_1033,Partial repeat,2021.2.3,59.8937967102657,
7,7,0,1,3,3,1,1,0,1,1,1,0,1,0,0,40,40,40,1,0,1,0,,,,,,,,,1395.5478622987866,None,1396.462412700057,None,s,1,0.4475299995392561,1396.462412700057,None,None,None,,,,,,,22,19,female,22,2022_May_11_1033,Partial repeat,2021.2.3,59.8937967102657,
7,7,0,1,3,3,1,1,0,1,1,1,0,1,0,0,40,40,40,,,,,,,,,,,,,,,,,,,,,,,,,,,,,,22,19,female,22,2022_May_11_1033,Partial repeat,2021.2.3,59.8937967102657,
7,7,0,1,2,2,1,1,0,0,1,1,1,1,0,0,41,41,41,0,0,0,0,,,,,,,1396.9379593990743,None,1397.6846644990146,None,1398.482876399532,None,l,1,0.715014299377799,1398.482876399532,None,None,None,,,,,,,22,19,female,22,2022_May_11_1033,Partial repeat,2021.2.3,59.8937967102657,
7,7,0,1,2,2,1,1,0,0,1,1,1,1,0,0,41,41,41,1,0,1,0,,,,,,,,,1399.222685398534,None,1400.086387200281,None,l,1,0.4714561998844147,1400.086387200281,None,None,None,,,,,,,22,19,female,22,2022_May_11_1033,Partial repeat,2021.2.3,59.8937967102657,
7,7,0,1,2,2,1,1,0,0,1,1,1,1,0,0,41,41,41,,,,,,,,,,,,,,,,,,,,,,,,,,,,,,22,19,female,22,2022_May_11_1033,Partial repeat,2021.2.3,59.8937967102657,
7,7,0,1,3,3,1,1,1,1,1,1,1,1,0,0,42,42,42,0,0,0,0,,,,,,,1400.5716514997184,None,1401.3752507995814,None,1402.239820798859,None,s,1,0.45408459939062595,1402.239820798859,None,None,None,,,,,,,22,19,female,22,2022_May_11_1033,Partial repeat,2021.2.3,59.8937967102657,
7,7,0,1,3,3,1,1,1,1,1,1,1,1,0,0,42,42,42,1,0,1,0,,,,,,,,,1402.7103173993528,None,1403.6089465990663,None,s,1,0.46097639948129654,1403.6089465990663,None,None,None,,,,,,,22,19,female,22,2022_May_11_1033,Partial repeat,2021.2.3,59.8937967102657,
7,7,0,1,3,3,1,1,1,1,1,1,1,1,0,0,42,42,42,,,,,,,,,,,,,,,,,,,,,,,,,,,,,,22,19,female,22,2022_May_11_1033,Partial repeat,2021.2.3,59.8937967102657,
7,7,0,1,3,2,2,2,0,1,0,1,0,1,0,0,43,43,43,0,0,0,0,,,,,,,1404.1001298986375,None,1404.7985137999058,None,1405.6809367984533,None,l,1,0.5969366002827883,1405.6809367984533,None,None,None,,,,,,,22,19,female,22,2022_May_11_1033,Partial repeat,2021.2.3,59.8937967102657,
7,7,0,1,3,2,2,2,0,1,0,1,0,1,0,0,43,43,43,1,0,1,0,,,,,,,,,1406.299055898562,None,1407.1835505999625,None,s,1,0.4222938995808363,1407.1835505999625,None,None,None,,,,,,,22,19,female,22,2022_May_11_1033,Partial repeat,2021.2.3,59.8937967102657,
7,7,0,1,3,2,2,2,0,1,0,1,0,1,0,0,43,43,43,,,,,,,,,,,,,,,,,,,,,,,,,,,,,,22,19,female,22,2022_May_11_1033,Partial repeat,2021.2.3,59.8937967102657,
7,7,0,1,2,3,1,1,0,1,0,1,0,1,0,0,44,44,44,0,0,0,0,,,,,,,1407.61668260023,None,1408.1884420998394,None,1408.9692887999117,None,l,1,0.7405558004975319,1408.9692887999117,None,None,None,,,,,,,22,19,female,22,2022_May_11_1033,Partial repeat,2021.2.3,59.8937967102657,
7,7,0,1,2,3,1,1,0,1,0,1,0,1,0,0,44,44,44,1,0,1,0,,,,,,,,,1409.7334959991276,None,1410.6724929995835,None,s,1,0.5253599993884563,1410.6724929995835,None,None,None,,,,,,,22,19,female,22,2022_May_11_1033,Partial repeat,2021.2.3,59.8937967102657,
7,7,0,1,2,3,1,1,0,1,0,1,0,1,0,0,44,44,44,,,,,,,,,,,,,,,,,,,,,,,,,,,,,,22,19,female,22,2022_May_11_1033,Partial repeat,2021.2.3,59.8937967102657,
7,7,0,1,2,3,1,2,0,0,0,0,1,1,0,0,45,45,45,0,0,0,0,,,,,,,1411.2085465993732,None,1411.8289109002799,None,1412.626379499212,None,l,1,0.7234926000237465,1412.626379499212,None,None,None,,,,,,,22,19,female,22,2022_May_11_1033,Partial repeat,2021.2.3,59.8937967102657,
7,7,0,1,2,3,1,2,0,0,0,0,1,1,0,0,45,45,45,1,0,1,0,,,,,,,,,1413.370574798435,None,1414.1292840987444,None,l,1,0.5006307009607553,1414.1292840987444,None,None,None,,,,,,,22,19,female,22,2022_May_11_1033,Partial repeat,2021.2.3,59.8937967102657,
7,7,0,1,2,3,1,2,0,0,0,0,1,1,0,0,45,45,45,,,,,,,,,,,,,,,,,,,,,,,,,,,,,,22,19,female,22,2022_May_11_1033,Partial repeat,2021.2.3,59.8937967102657,
7,7,0,1,2,3,1,1,1,0,0,1,0,1,0,0,46,46,46,0,0,0,0,,,,,,,1414.6400929000229,None,1415.3023220002651,None,1416.2834412995726,None,s,1,1.2744040992110968,1416.2834412995726,None,None,None,,,,,,,22,19,female,22,2022_May_11_1033,Partial repeat,2021.2.3,59.8937967102657,
7,7,0,1,2,3,1,1,1,0,0,1,0,1,0,0,46,46,46,1,0,1,0,,,,,,,,,1417.5862801000476,None,1418.3540054988116,None,l,1,1.2278593014925718,1418.3540054988116,None,None,None,,,,,,,22,19,female,22,2022_May_11_1033,Partial repeat,2021.2.3,59.8937967102657,
7,7,0,1,2,3,1,1,1,0,0,1,0,1,0,0,46,46,46,,,,,,,,,,,,,,,,,,,,,,,,,,,,,,22,19,female,22,2022_May_11_1033,Partial repeat,2021.2.3,59.8937967102657,
7,7,0,1,2,3,1,1,0,0,0,1,1,1,0,0,47,47,47,0,0,0,0,,,,,,,1419.6095514986664,None,1420.1784787997603,None,1421.075993899256,None,l,1,0.6098403986543417,1421.075993899256,None,None,None,,,,,,,22,19,female,22,2022_May_11_1033,Partial repeat,2021.2.3,59.8937967102657,
7,7,0,1,2,3,1,1,0,0,0,1,1,1,0,0,47,47,47,1,0,1,0,,,,,,,,,1421.7113338988274,None,1422.5461812987924,None,l,1,0.46769689954817295,1422.5461812987924,None,None,None,,,,,,,22,19,female,22,2022_May_11_1033,Partial repeat,2021.2.3,59.8937967102657,
7,7,0,1,2,3,1,1,0,0,0,1,1,1,0,0,47,47,47,,,,,,,,,,,,,,,,,,,,,,,,,,,,,,22,19,female,22,2022_May_11_1033,Partial repeat,2021.2.3,59.8937967102657,
7,7,0,1,3,2,2,1,0,1,0,0,0,1,0,0,48,48,48,0,0,0,0,,,,,,,1423.0413047987968,None,1423.5851159002632,None,1424.5666575990617,None,l,1,0.6552115995436907,1424.5666575990617,None,None,None,,,,,,,22,19,female,22,2022_May_11_1033,Partial repeat,2021.2.3,59.8937967102657,
7,7,0,1,3,2,2,1,0,1,0,0,0,1,0,0,48,48,48,1,0,1,0,,,,,,,,,1425.2465338986367,None,1426.1214339993894,None,s,1,0.6044312007725239,1426.1214339993894,None,None,None,,,,,,,22,19,female,22,2022_May_11_1033,Partial repeat,2021.2.3,59.8937967102657,
7,7,0,1,3,2,2,1,0,1,0,0,0,1,0,0,48,48,48,,,,,,,,,,,,,,,,,,,,,,,,,,,,,,22,19,female,22,2022_May_11_1033,Partial repeat,2021.2.3,59.8937967102657,
7,7,0,1,2,2,2,1,1,1,1,0,1,1,0,0,49,49,49,0,0,0,0,,,,,,,1426.7439506985247,None,1427.559501098469,None,1428.4405402988195,None,s,1,0.7252644002437592,1428.4405402988195,None,None,None,,,,,,,22,19,female,22,2022_May_11_1033,Partial repeat,2021.2.3,59.8937967102657,
7,7,0,1,2,2,2,1,1,1,1,0,1,1,0,0,49,49,49,1,0,1,0,,,,,,,,,1429.1863967999816,None,1429.993482599035,None,s,1,0.5884889010339975,1429.993482599035,None,None,None,,,,,,,22,19,female,22,2022_May_11_1033,Partial repeat,2021.2.3,59.8937967102657,
7,7,0,1,2,2,2,1,1,1,1,0,1,1,0,0,49,49,49,,,,,,,,,,,,,,,,,,,,,,,,,,,,,,22,19,female,22,2022_May_11_1033,Partial repeat,2021.2.3,59.8937967102657,
7,7,0,1,2,2,2,2,0,0,1,1,1,1,0,0,50,50,50,0,0,0,0,,,,,,,1430.5932665988803,None,1432.6861161999404,None,1433.5680484995246,None,l,1,0.7978224009275436,1433.5680484995246,None,None,None,,,,,,,22,19,female,22,2022_May_11_1033,Partial repeat,2021.2.3,59.8937967102657,
7,7,0,1,2,2,2,2,0,0,1,1,1,1,0,0,50,50,50,1,0,1,0,,,,,,,,,1434.3825448993593,None,1435.3701034989208,None,l,1,0.507761400192976,1435.3701034989208,None,None,None,,,,,,,22,19,female,22,2022_May_11_1033,Partial repeat,2021.2.3,59.8937967102657,
7,7,0,1,2,2,2,2,0,0,1,1,1,1,0,0,50,50,50,,,,,,,,,,,,,,,,,,,,,,,,,,,,,,22,19,female,22,2022_May_11_1033,Partial repeat,2021.2.3,59.8937967102657,
7,7,0,1,2,2,1,2,0,0,1,0,1,1,0,0,51,51,51,0,0,0,0,,,,,,,1435.8964903987944,None,1437.9630538988858,None,1438.9776872992516,None,l,1,0.7081647999584675,1438.9776872992516,None,None,None,,,,,,,22,19,female,22,2022_May_11_1033,Partial repeat,2021.2.3,59.8937967102657,
7,7,0,1,2,2,1,2,0,0,1,0,1,1,0,0,51,51,51,1,0,1,0,,,,,,,,,1439.706582998857,None,1440.5135925989598,None,l,1,0.5002666004002094,1440.5135925989598,None,None,None,,,,,,,22,19,female,22,2022_May_11_1033,Partial repeat,2021.2.3,59.8937967102657,
7,7,0,1,2,2,1,2,0,0,1,0,1,1,0,0,51,51,51,,,,,,,,,,,,,,,,,,,,,,,,,,,,,,22,19,female,22,2022_May_11_1033,Partial repeat,2021.2.3,59.8937967102657,
7,7,0,1,3,3,1,1,0,0,1,1,1,1,0,0,52,52,52,0,0,0,0,,,,,,,1441.036886299029,None,1441.5200046002865,None,1442.268501099199,None,l,1,0.5053566005080938,1442.268501099199,None,None,None,,,,,,,22,19,female,22,2022_May_11_1033,Partial repeat,2021.2.3,59.8937967102657,
7,7,0,1,3,3,1,1,0,0,1,1,1,1,0,0,52,52,52,1,0,1,0,,,,,,,,,1442.789652299136,None,1443.719567898661,None,l,1,0.4462859984487295,1443.719567898661,None,None,None,,,,,,,22,19,female,22,2022_May_11_1033,Partial repeat,2021.2.3,59.8937967102657,
7,7,0,1,3,3,1,1,0,0,1,1,1,1,0,0,52,52,52,,,,,,,,,,,,,,,,,,,,,,,,,,,,,,22,19,female,22,2022_May_11_1033,Partial repeat,2021.2.3,59.8937967102657,
7,7,0,1,2,2,2,1,0,0,1,0,1,1,0,0,53,53,53,0,0,0,0,,,,,,,1444.1821055989712,None,1444.7764419987798,None,1445.5077585000545,None,l,1,0.5301855001598597,1445.5077585000545,None,None,None,,,,,,,22,19,female,22,2022_May_11_1033,Partial repeat,2021.2.3,59.8937967102657,
7,7,0,1,2,2,2,1,0,0,1,0,1,1,0,0,53,53,53,1,0,1,0,,,,,,,,,1446.0480078998953,None,1446.8594720996916,None,l,1,0.37836180068552494,1446.8594720996916,None,None,None,,,,,,,22,19,female,22,2022_May_11_1033,Partial repeat,2021.2.3,59.8937967102657,
7,7,0,1,2,2,2,1,0,0,1,0,1,1,0,0,53,53,53,,,,,,,,,,,,,,,,,,,,,,,,,,,,,,22,19,female,22,2022_May_11_1033,Partial repeat,2021.2.3,59.8937967102657,
7,7,0,1,2,2,2,2,0,1,1,1,0,1,0,0,54,54,54,0,0,0,0,,,,,,,1447.2516228985041,None,1447.7821883000433,None,1448.5294309984893,None,l,1,0.5004227999597788,1448.5294309984893,None,None,None,,,,,,,22,19,female,22,2022_May_11_1033,Partial repeat,2021.2.3,59.8937967102657,
7,7,0,1,2,2,2,2,0,1,1,1,0,1,0,0,54,54,54,1,0,1,0,,,,,,,,,1449.0485955998302,None,1449.9321579989046,None,s,1,0.5056908987462521,1449.9321579989046,None,None,None,,,,,,,22,19,female,22,2022_May_11_1033,Partial repeat,2021.2.3,59.8937967102657,
7,7,0,1,2,2,2,2,0,1,1,1,0,1,0,0,54,54,54,,,,,,,,,,,,,,,,,,,,,,,,,,,,,,22,19,female,22,2022_May_11_1033,Partial repeat,2021.2.3,59.8937967102657,
7,7,0,1,2,3,2,2,0,1,0,1,0,1,0,0,55,55,55,0,0,0,0,,,,,,,1450.4579606000334,None,1451.0218138992786,None,1451.8859739992768,None,l,1,0.887873999774456,1451.8859739992768,None,None,None,,,,,,,22,19,female,22,2022_May_11_1033,Partial repeat,2021.2.3,59.8937967102657,
7,7,0,1,2,3,2,2,0,1,0,1,0,1,0,0,55,55,55,1,0,1,0,,,,,,,,,1452.7890612985939,None,1453.6559089999646,None,s,1,0.48593590036034584,1453.6559089999646,None,None,None,,,,,,,22,19,female,22,2022_May_11_1033,Partial repeat,2021.2.3,59.8937967102657,
7,7,0,1,2,3,2,2,0,1,0,1,0,1,0,0,55,55,55,,,,,,,,,,,,,,,,,,,,,,,,,,,,,,22,19,female,22,2022_May_11_1033,Partial repeat,2021.2.3,59.8937967102657,
7,7,0,1,2,3,2,2,0,0,0,1,1,1,0,0,56,56,56,0,0,0,0,,,,,,,1454.1577799990773,None,1454.7122983001173,None,1455.5598392002285,None,l,1,0.918011199682951,1455.5598392002285,None,None,None,,,,,,,22,19,female,22,2022_May_11_1033,Partial repeat,2021.2.3,59.8937967102657,
7,7,0,1,2,3,2,2,0,0,0,1,1,1,0,0,56,56,56,1,0,1,0,,,,,,,,,1456.50308059901,None,1457.379960199818,None,l,1,0.48188479989767075,1457.379960199818,None,None,None,,,,,,,22,19,female,22,2022_May_11_1033,Partial repeat,2021.2.3,59.8937967102657,
7,7,0,1,2,3,2,2,0,0,0,1,1,1,0,0,56,56,56,,,,,,,,,,,,,,,,,,,,,,,,,,,,,,22,19,female,22,2022_May_11_1033,Partial repeat,2021.2.3,59.8937967102657,
7,7,0,1,3,2,1,2,0,0,0,0,1,1,0,0,57,57,57,0,0,0,0,,,,,,,1457.8801341000944,None,1458.3694519996643,None,1459.135032698512,None,l,1,0.5508522000163794,1459.135032698512,None,None,None,,,,,,,22,19,female,22,2022_May_11_1033,Partial repeat,2021.2.3,59.8937967102657,
7,7,0,1,3,2,1,2,0,0,0,0,1,1,0,0,57,57,57,1,0,1,0,,,,,,,,,1459.693900199607,None,1460.5190938990563,None,l,1,0.622825400903821,1460.5190938990563,None,None,None,,,,,,,22,19,female,22,2022_May_11_1033,Partial repeat,2021.2.3,59.8937967102657,
7,7,0,1,3,2,1,2,0,0,0,0,1,1,0,0,57,57,57,,,,,,,,,,,,,,,,,,,,,,,,,,,,,,22,19,female,22,2022_May_11_1033,Partial repeat,2021.2.3,59.8937967102657,
7,7,0,1,3,2,2,2,1,1,0,1,1,1,0,0,58,58,58,0,0,0,0,,,,,,,1461.172841599211,None,1461.6591492984444,None,1462.5739974994212,None,s,1,0.6878504008054733,1462.5739974994212,None,None,None,,,,,,,22,19,female,22,2022_May_11_1033,Partial repeat,2021.2.3,59.8937967102657,
7,7,0,1,3,2,2,2,1,1,0,1,1,1,0,0,58,58,58,1,0,1,0,,,,,,,,,1463.2804378997535,None,1464.127172799781,None,s,1,0.6146597992628813,1464.127172799781,None,None,None,,,,,,,22,19,female,22,2022_May_11_1033,Partial repeat,2021.2.3,59.8937967102657,
7,7,0,1,3,2,2,2,1,1,0,1,1,1,0,0,58,58,58,,,,,,,,,,,,,,,,,,,,,,,,,,,,,,22,19,female,22,2022_May_11_1033,Partial repeat,2021.2.3,59.8937967102657,
7,7,0,1,3,3,2,2,0,0,1,1,1,1,0,0,59,59,59,0,0,0,0,,,,,,,1464.7573980987072,None,1465.4665928985924,None,1466.2636088002473,None,l,1,0.9022162985056639,1466.2636088002473,None,None,None,,,,,,,22,19,female,22,2022_May_11_1033,Partial repeat,2021.2.3,59.8937967102657,
7,7,0,1,3,3,2,2,0,0,1,1,1,1,0,0,59,59,59,1,0,1,0,,,,,,,,,1467.1888788994402,None,1468.1841936986893,None,l,1,0.5336472000926733,1468.1841936986893,None,None,None,,,,,,,22,19,female,22,2022_May_11_1033,Partial repeat,2021.2.3,59.8937967102657,
7,7,0,1,3,3,2,2,0,0,1,1,1,1,0,0,59,59,59,,,,,,,,,,,,,,,,,,,,,,,,,,,,,,22,19,female,22,2022_May_11_1033,Partial repeat,2021.2.3,59.8937967102657,
7,7,0,1,3,3,1,2,1,1,1,0,1,1,0,0,60,60,60,0,0,0,0,,,,,,,1468.7328149992973,None,1469.2739709988236,None,1469.9878316000104,None,s,1,0.7140146009624004,1469.9878316000104,None,None,None,,,,,,,22,19,female,22,2022_May_11_1033,Partial repeat,2021.2.3,59.8937967102657,
7,7,0,1,3,3,1,2,1,1,1,0,1,1,0,0,60,60,60,1,0,1,0,,,,,,,,,1470.717722998932,None,1471.5242849998176,None,s,1,0.5695623010396957,1471.5242849998176,None,None,None,,,,,,,22,19,female,22,2022_May_11_1033,Partial repeat,2021.2.3,59.8937967102657,
7,7,0,1,3,3,1,2,1,1,1,0,1,1,0,0,60,60,60,,,,,,,,,,,,,,,,,,,,,,,,,,,,,,22,19,female,22,2022_May_11_1033,Partial repeat,2021.2.3,59.8937967102657,
7,7,0,1,3,3,2,1,0,0,1,0,1,1,0,0,61,61,61,0,0,0,0,,,,,,,1472.116796599701,None,1472.6304374989122,None,1473.6281086001545,None,l,1,0.5698253996670246,1473.6281086001545,None,None,None,,,,,,,22,19,female,22,2022_May_11_1033,Partial repeat,2021.2.3,59.8937967102657,
7,7,0,1,3,3,2,1,0,0,1,0,1,1,0,0,61,61,61,1,0,1,0,,,,,,,,,1474.2084397990257,None,1475.047501400113,None,l,1,0.6063775010406971,1475.047501400113,None,None,None,,,,,,,22,19,female,22,2022_May_11_1033,Partial repeat,2021.2.3,59.8937967102657,
7,7,0,1,3,3,2,1,0,0,1,0,1,1,0,0,61,61,61,,,,,,,,,,,,,,,,,,,,,,,,,,,,,,22,19,female,22,2022_May_11_1033,Partial repeat,2021.2.3,59.8937967102657,
7,7,0,1,2,2,1,2,1,0,1,0,0,1,0,0,62,62,62,0,0,0,0,,,,,,,1475.6848766990006,None,1476.3877761997283,None,1477.401975799352,None,s,1,0.6678737998008728,1477.401975799352,None,None,None,,,,,,,22,19,female,22,2022_May_11_1033,Partial repeat,2021.2.3,59.8937967102657,
7,7,0,1,2,2,1,2,1,0,1,0,0,1,0,0,62,62,62,1,0,1,0,,,,,,,,,1478.0901167001575,None,1478.971785498783,None,l,1,0.9540514014661312,1478.971785498783,None,None,None,,,,,,,22,19,female,22,2022_May_11_1033,Partial repeat,2021.2.3,59.8937967102657,
7,7,0,1,2,2,1,2,1,0,1,0,0,1,0,0,62,62,62,,,,,,,,,,,,,,,,,,,,,,,,,,,,,,22,19,female,22,2022_May_11_1033,Partial repeat,2021.2.3,59.8937967102657,
7,7,0,1,3,2,1,1,0,0,0,1,1,1,0,0,63,63,63,0,0,0,0,,,,,,,1479.946563700214,None,1480.3956455998123,None,1481.2432525996119,None,l,1,1.2505805995315313,1481.2432525996119,None,None,None,,,,,,,22,19,female,22,2022_May_11_1033,Partial repeat,2021.2.3,59.8937967102657,
7,7,0,1,3,2,1,1,0,0,0,1,1,1,0,0,63,63,63,1,0,1,0,,,,,,,,,1482.5106875989586,None,1483.3638506997377,None,l,1,0.537983700633049,1483.3638506997377,None,None,None,,,,,,,22,19,female,22,2022_May_11_1033,Partial repeat,2021.2.3,59.8937967102657,
7,7,0,1,3,2,1,1,0,0,0,1,1,1,0,0,63,63,63,,,,,,,,,,,,,,,,,,,,,,,,,,,,,,22,19,female,22,2022_May_11_1033,Partial repeat,2021.2.3,59.8937967102657,
8,8,0,1,2,2,2,2,0,0,1,1,1,0,0,0,64,64,64,0,0,0,0,,,,,,,1491.981297198683,None,1493.521198598668,None,1494.4023143984377,None,l,1,1.3315174002200365,1494.4023143984377,None,None,None,,,,,,,22,19,female,22,2022_May_11_1033,Partial repeat,2021.2.3,59.8937967102657,
8,8,0,1,2,2,2,2,0,0,1,1,1,0,0,0,64,64,64,1,0,1,0,,,,,,,,,1495.7486431989819,None,1496.6565119996667,None,l,1,0.4694830998778343,1496.6565119996667,None,None,None,,,,,,,22,19,female,22,2022_May_11_1033,Partial repeat,2021.2.3,59.8937967102657,
8,8,0,1,2,2,2,2,0,0,1,1,1,0,0,0,64,64,64,,,,,,,,,,,,,,,,,,,,,,,,,,,,,,22,19,female,22,2022_May_11_1033,Partial repeat,2021.2.3,59.8937967102657,
3,4,0,1,2,2,1,1,0,0,1,1,1,0,0,0,65,65,65,0,0,0,0,,,,,,,1497.1394365988672,None,1498.5810106992722,None,1499.3448379002512,None,l,1,1.0289361998438835,1499.3448379002512,None,None,None,,,,,,,22,19,female,22,2022_May_11_1033,Partial repeat,2021.2.3,59.8937967102657,
3,4,0,1,2,2,1,1,0,0,1,1,1,0,0,0,65,65,65,1,0,1,0,,,,,,,,,1500.3832010999322,None,1501.2817665990442,None,l,1,0.9480715002864599,1501.2817665990442,None,None,None,,,,,,,22,19,female,22,2022_May_11_1033,Partial repeat,2021.2.3,59.8937967102657,
3,4,0,1,2,2,1,1,0,0,1,1,1,0,0,0,65,65,65,,,,,,,,,,,,,,,,,,,,,,,,,,,,,,22,19,female,22,2022_May_11_1033,Partial repeat,2021.2.3,59.8937967102657,
1,6,0,1,2,3,1,2,0,0,0,0,1,0,0,0,66,66,66,0,0,0,0,,,,,,,1502.2548264991492,None,1502.9394831992686,None,1503.8869345001876,None,l,1,0.5508879013359547,1503.8869345001876,None,None,None,,,,,,,22,19,female,22,2022_May_11_1033,Partial repeat,2021.2.3,59.8937967102657,
1,6,0,1,2,3,1,2,0,0,0,0,1,0,0,0,66,66,66,1,0,1,0,,,,,,,,,1504.452149398625,None,1505.256424099207,None,l,1,1.0375033002346754,1505.256424099207,None,None,None,,,,,,,22,19,female,22,2022_May_11_1033,Partial repeat,2021.2.3,59.8937967102657,
1,6,0,1,2,3,1,2,0,0,0,0,1,0,0,0,66,66,66,,,,,,,,,,,,,,,,,,,,,,,,,,,,,,22,19,female,22,2022_May_11_1033,Partial repeat,2021.2.3,59.8937967102657,
5,3,0,1,3,3,1,1,1,1,1,1,1,0,0,0,67,67,67,0,0,0,0,,,,,,,1506.3066871985793,None,1506.7969709001482,None,1507.5442458987236,None,s,1,0.7418617010116577,1507.5442458987236,None,None,None,,,,,,,22,19,female,22,2022_May_11_1033,Partial repeat,2021.2.3,59.8937967102657,
5,3,0,1,3,3,1,1,1,1,1,1,1,0,0,0,67,67,67,1,0,1,0,,,,,,,,,1508.2953886985779,None,1509.0471378993243,None,s,1,0.6786614991724491,1509.0471378993243,None,None,None,,,,,,,22,19,female,22,2022_May_11_1033,Partial repeat,2021.2.3,59.8937967102657,
5,3,0,1,3,3,1,1,1,1,1,1,1,0,0,0,67,67,67,,,,,,,,,,,,,,,,,,,,,,,,,,,,,,22,19,female,22,2022_May_11_1033,Partial repeat,2021.2.3,59.8937967102657,
3,1,0,1,3,2,1,1,1,0,0,1,0,0,0,0,68,68,68,0,0,0,0,,,,,,,1509.7484178990126,None,1510.1534928996116,None,1511.0345590002835,None,s,1,0.7633047010749578,1511.0345590002835,None,None,None,,,,,,,22,19,female,22,2022_May_11_1033,Partial repeat,2021.2.3,59.8937967102657,
3,1,0,1,3,2,1,1,1,0,0,1,0,0,0,0,68,68,68,1,0,1,0,,,,,,,,,1511.805871900171,None,1512.6041621994227,None,l,1,0.5856544002890587,1512.6041621994227,None,None,None,,,,,,,22,19,female,22,2022_May_11_1033,Partial repeat,2021.2.3,59.8937967102657,
3,1,0,1,3,2,1,1,1,0,0,1,0,0,0,0,68,68,68,,,,,,,,,,,,,,,,,,,,,,,,,,,,,,22,19,female,22,2022_May_11_1033,Partial repeat,2021.2.3,59.8937967102657,
4,1,0,1,2,3,1,1,1,1,0,1,1,0,0,0,69,69,69,0,0,0,0,,,,,,,1513.21640669927,None,1513.7270528990775,None,1514.4740856997669,None,s,1,0.8277214989066124,1514.4740856997669,None,None,None,,,,,,,22,19,female,22,2022_May_11_1033,Partial repeat,2021.2.3,59.8937967102657,
4,1,0,1,2,3,1,1,1,1,0,1,1,0,0,0,69,69,69,1,0,1,0,,,,,,,,,1515.314613699913,None,1516.2286628000438,None,s,1,0.6731605995446444,1516.2286628000438,None,None,None,,,,,,,22,19,female,22,2022_May_11_1033,Partial repeat,2021.2.3,59.8937967102657,
4,1,0,1,2,3,1,1,1,1,0,1,1,0,0,0,69,69,69,,,,,,,,,,,,,,,,,,,,,,,,,,,,,,22,19,female,22,2022_May_11_1033,Partial repeat,2021.2.3,59.8937967102657,
5,7,0,1,3,2,1,2,0,0,0,0,1,0,0,0,70,70,70,0,0,0,0,,,,,,,1516.9290287997574,None,1517.2673602998257,None,1518.0815375000238,None,l,1,0.6922797001898289,1518.0815375000238,None,None,None,,,,,,,22,19,female,22,2022_May_11_1033,Partial repeat,2021.2.3,59.8937967102657,
5,7,0,1,3,2,1,2,0,0,0,0,1,0,0,0,70,70,70,1,0,1,0,,,,,,,,,1518.7979412991554,None,1519.7847866993397,None,l,1,0.6211333014070988,1519.7847866993397,None,None,None,,,,,,,22,19,female,22,2022_May_11_1033,Partial repeat,2021.2.3,59.8937967102657,
5,7,0,1,3,2,1,2,0,0,0,0,1,0,0,0,70,70,70,,,,,,,,,,,,,,,,,,,,,,,,,,,,,,22,19,female,22,2022_May_11_1033,Partial repeat,2021.2.3,59.8937967102657,
5,8,0,1,2,3,1,2,1,1,0,0,1,0,0,0,71,71,71,0,0,0,0,,,,,,,1520.4182629995048,None,1520.757490599528,None,1521.488099899143,None,s,1,0.7097616996616125,1521.488099899143,None,None,None,,,,,,,22,19,female,22,2022_May_11_1033,Partial repeat,2021.2.3,59.8937967102657,
5,8,0,1,2,3,1,2,1,1,0,0,1,0,0,0,71,71,71,1,0,1,0,,,,,,,,,1522.2208294998854,None,1523.2248157989234,None,s,1,0.7969969995319843,1523.2248157989234,None,None,None,,,,,,,22,19,female,22,2022_May_11_1033,Partial repeat,2021.2.3,59.8937967102657,
5,8,0,1,2,3,1,2,1,1,0,0,1,0,0,0,71,71,71,,,,,,,,,,,,,,,,,,,,,,,,,,,,,,22,19,female,22,2022_May_11_1033,Partial repeat,2021.2.3,59.8937967102657,
4,3,0,1,3,2,2,1,0,0,0,0,1,0,0,0,72,72,72,0,0,0,0,,,,,,,1524.0478288996965,None,1524.331106999889,None,1525.095048898831,None,l,1,0.9748040996491909,1525.095048898831,None,None,None,,,,,,,22,19,female,22,2022_May_11_1033,Partial repeat,2021.2.3,59.8937967102657,
4,3,0,1,3,2,2,1,0,0,0,0,1,0,0,0,72,72,72,1,0,1,0,,,,,,,,,1526.0785068999976,None,1527.082087399438,None,l,1,0.6357302013784647,1527.082087399438,None,None,None,,,,,,,22,19,female,22,2022_May_11_1033,Partial repeat,2021.2.3,59.8937967102657,
4,3,0,1,3,2,2,1,0,0,0,0,1,0,0,0,72,72,72,,,,,,,,,,,,,,,,,,,,,,,,,,,,,,22,19,female,22,2022_May_11_1033,Partial repeat,2021.2.3,59.8937967102657,
6,7,0,1,2,2,1,2,0,0,1,0,1,0,0,0,73,73,73,0,0,0,0,,,,,,,1527.739319499582,None,1528.0382812991738,None,1529.035849198699,None,l,1,0.6579535994678736,1529.035849198699,None,None,None,,,,,,,22,19,female,22,2022_May_11_1033,Partial repeat,2021.2.3,59.8937967102657,
6,7,0,1,2,2,1,2,0,0,1,0,1,0,0,0,73,73,73,1,0,1,0,,,,,,,,,1529.708757698536,None,1530.438696499914,None,l,1,0.4711492992937565,1530.438696499914,None,None,None,,,,,,,22,19,female,22,2022_May_11_1033,Partial repeat,2021.2.3,59.8937967102657,
6,7,0,1,2,2,1,2,0,0,1,0,1,0,0,0,73,73,73,,,,,,,,,,,,,,,,,,,,,,,,,,,,,,22,19,female,22,2022_May_11_1033,Partial repeat,2021.2.3,59.8937967102657,
3,2,0,1,3,2,2,1,1,0,0,0,0,0,0,0,74,74,74,0,0,0,0,,,,,,,1530.9201438985765,None,1531.3111675996333,None,1532.2923353984952,None,s,1,0.6494693011045456,1532.2923353984952,None,None,None,,,,,,,22,19,female,22,2022_May_11_1033,Partial repeat,2021.2.3,59.8937967102657,
3,2,0,1,3,2,2,1,1,0,0,0,0,0,0,0,74,74,74,1,0,1,0,,,,,,,,,1532.9663920998573,None,1533.9623603988439,None,l,1,0.5714490991085768,1533.9623603988439,None,None,None,,,,,,,22,19,female,22,2022_May_11_1033,Partial repeat,2021.2.3,59.8937967102657,
3,2,0,1,3,2,2,1,1,0,0,0,0,0,0,0,74,74,74,,,,,,,,,,,,,,,,,,,,,,,,,,,,,,22,19,female,22,2022_May_11_1033,Partial repeat,2021.2.3,59.8937967102657,
8,4,0,1,2,2,1,1,0,1,1,1,0,0,0,0,75,75,75,0,0,0,0,,,,,,,1534.5544982999563,None,1534.8013901989907,None,1535.665392998606,None,l,1,0.9804133009165525,1535.665392998606,None,None,None,,,,,,,22,19,female,22,2022_May_11_1033,Partial repeat,2021.2.3,59.8937967102657,
8,4,0,1,2,2,1,1,0,1,1,1,0,0,0,0,75,75,75,1,0,1,0,,,,,,,,,1536.6587051991373,None,1537.5524231996387,None,s,1,0.589386198669672,1537.5524231996387,None,None,None,,,,,,,22,19,female,22,2022_May_11_1033,Partial repeat,2021.2.3,59.8937967102657,
8,4,0,1,2,2,1,1,0,1,1,1,0,0,0,0,75,75,75,,,,,,,,,,,,,,,,,,,,,,,,,,,,,,22,19,female,22,2022_May_11_1033,Partial repeat,2021.2.3,59.8937967102657,
2,7,0,1,2,3,1,1,0,1,0,1,0,0,0,0,76,76,76,0,0,0,0,,,,,,,1538.161848898977,None,1538.3749032001942,None,1539.1554344985634,None,l,1,0.8823706991970539,1539.1554344985634,None,None,None,,,,,,,22,19,female,22,2022_May_11_1033,Partial repeat,2021.2.3,59.8937967102657,
2,7,0,1,2,3,1,1,0,1,0,1,0,0,0,0,76,76,76,1,0,1,0,,,,,,,,,1540.0609085001051,None,1540.9420959986746,None,s,1,0.519709000363946,1540.9420959986746,None,None,None,,,,,,,22,19,female,22,2022_May_11_1033,Partial repeat,2021.2.3,59.8937967102657,
2,7,0,1,2,3,1,1,0,1,0,1,0,0,0,0,76,76,76,,,,,,,,,,,,,,,,,,,,,,,,,,,,,,22,19,female,22,2022_May_11_1033,Partial repeat,2021.2.3,59.8937967102657,
6,5,0,1,3,3,1,1,0,1,1,1,0,0,0,0,77,77,77,0,0,0,0,,,,,,,1541.4867956992239,None,1541.748324399814,None,1542.6789760999382,None,l,1,0.7907900009304285,1542.6789760999382,None,None,None,,,,,,,22,19,female,22,2022_May_11_1033,Partial repeat,2021.2.3,59.8937967102657,
6,5,0,1,3,3,1,1,0,1,1,1,0,0,0,0,77,77,77,1,0,1,0,,,,,,,,,1543.478051699698,None,1544.465723099187,None,s,1,0.6761018000543118,1544.465723099187,None,None,None,,,,,,,22,19,female,22,2022_May_11_1033,Partial repeat,2021.2.3,59.8937967102657,
6,5,0,1,3,3,1,1,0,1,1,1,0,0,0,0,77,77,77,,,,,,,,,,,,,,,,,,,,,,,,,,,,,,22,19,female,22,2022_May_11_1033,Partial repeat,2021.2.3,59.8937967102657,
5,6,0,1,2,2,2,2,1,1,1,1,1,0,0,0,78,78,78,0,0,0,0,,,,,,,1545.1612861994654,None,1545.3219408988953,None,1546.2693178001791,None,s,1,0.6244494989514351,1546.2693178001791,None,None,None,,,,,,,22,19,female,22,2022_May_11_1033,Partial repeat,2021.2.3,59.8937967102657,
5,6,0,1,2,2,2,2,1,1,1,1,1,0,0,0,78,78,78,1,0,1,0,,,,,,,,,1546.9185499995947,None,1547.8392992001027,None,s,1,0.5824932996183634,1547.8392992001027,None,None,None,,,,,,,22,19,female,22,2022_May_11_1033,Partial repeat,2021.2.3,59.8937967102657,
5,6,0,1,2,2,2,2,1,1,1,1,1,0,0,0,78,78,78,,,,,,,,,,,,,,,,,,,,,,,,,,,,,,22,19,female,22,2022_May_11_1033,Partial repeat,2021.2.3,59.8937967102657,
8,7,0,1,2,2,2,2,0,1,1,1,0,0,0,0,79,79,79,0,0,0,0,,,,,,,1548.4490112997591,None,1548.795243298635,None,1549.6094330996275,None,l,1,0.5403623003512621,1549.6094330996275,None,None,None,,,,,,,22,19,female,22,2022_May_11_1033,Partial repeat,2021.2.3,59.8937967102657,
8,7,0,1,2,2,2,2,0,1,1,1,0,0,0,0,79,79,79,1,0,1,0,,,,,,,,,1550.1721176002175,None,1550.9451842997223,None,l,0,0.5246189013123512,1550.9451842997223,None,1551.488911099732,None,,,,,,,22,19,female,22,2022_May_11_1033,Partial repeat,2021.2.3,59.8937967102657,
8,7,0,1,2,2,2,2,0,1,1,1,0,0,0,0,79,79,79,,,,,,,,,,,,,,,,,,,,,,,,,,,,,,22,19,female,22,2022_May_11_1033,Partial repeat,2021.2.3,59.8937967102657,
4,7,0,1,3,2,2,2,1,1,0,1,1,0,0,0,80,80,80,0,0,0,0,,,,,,,1552.0015242993832,None,1552.4357695002109,None,1553.3831374999136,None,s,1,0.8226594012230635,1553.3831374999136,None,None,None,,,,,,,22,19,female,22,2022_May_11_1033,Partial repeat,2021.2.3,59.8937967102657,
4,7,0,1,3,2,2,2,1,1,0,1,1,0,0,0,80,80,80,1,0,1,0,,,,,,,,,1554.2251664996147,None,1555.1370141990483,None,s,1,0.8287757989019156,1555.1370141990483,None,None,None,,,,,,,22,19,female,22,2022_May_11_1033,Partial repeat,2021.2.3,59.8937967102657,
4,7,0,1,3,2,2,2,1,1,0,1,1,0,0,0,80,80,80,,,,,,,,,,,,,,,,,,,,,,,,,,,,,,22,19,female,22,2022_May_11_1033,Partial repeat,2021.2.3,59.8937967102657,
6,3,0,1,2,2,2,1,1,0,1,0,0,0,0,0,81,81,81,0,0,0,0,,,,,,,1555.985522300005,None,1556.2932043001056,None,1557.0245657991618,None,s,1,0.6773118004202843,1557.0245657991618,None,None,None,,,,,,,22,19,female,22,2022_May_11_1033,Partial repeat,2021.2.3,59.8937967102657,
6,3,0,1,2,2,2,1,1,0,1,0,0,0,0,0,81,81,81,1,0,1,0,,,,,,,,,1557.7129030991346,None,1558.4931168984622,None,l,1,0.6166909001767635,1558.4931168984622,None,None,None,,,,,,,22,19,female,22,2022_May_11_1033,Partial repeat,2021.2.3,59.8937967102657,
6,3,0,1,2,2,2,1,1,0,1,0,0,0,0,0,81,81,81,,,,,,,,,,,,,,,,,,,,,,,,,,,,,,22,19,female,22,2022_May_11_1033,Partial repeat,2021.2.3,59.8937967102657,
7,5,0,1,2,3,2,1,1,0,0,0,0,0,0,0,82,82,82,0,0,0,0,,,,,,,1559.1328648999333,None,1559.4494214002043,None,1560.279994899407,None,s,1,0.7978011015802622,1560.279994899407,None,None,None,,,,,,,22,19,female,22,2022_May_11_1033,Partial repeat,2021.2.3,59.8937967102657,
7,5,0,1,2,3,2,1,1,0,0,0,0,0,0,0,82,82,82,1,0,1,0,,,,,,,,,1561.106553999707,None,1562.0668167993426,None,l,1,0.6832288987934589,1562.0668167993426,None,None,None,,,,,,,22,19,female,22,2022_May_11_1033,Partial repeat,2021.2.3,59.8937967102657,
7,5,0,1,2,3,2,1,1,0,0,0,0,0,0,0,82,82,82,,,,,,,,,,,,,,,,,,,,,,,,,,,,,,22,19,female,22,2022_May_11_1033,Partial repeat,2021.2.3,59.8937967102657,
4,6,0,1,2,2,1,1,1,0,1,1,0,0,0,0,83,83,83,0,0,0,0,,,,,,,1562.7634843997657,None,1563.156634800136,None,1564.0872315987945,None,s,1,0.5665679983794689,1564.0872315987945,None,None,None,,,,,,,22,19,female,22,2022_May_11_1033,Partial repeat,2021.2.3,59.8937967102657,
4,6,0,1,2,2,1,1,1,0,1,1,0,0,0,0,83,83,83,1,0,1,0,,,,,,,,,1564.6702640987933,None,1565.5236584991217,None,l,1,0.5861405003815889,1565.5236584991217,None,None,None,,,,,,,22,19,female,22,2022_May_11_1033,Partial repeat,2021.2.3,59.8937967102657,
4,6,0,1,2,2,1,1,1,0,1,1,0,0,0,0,83,83,83,,,,,,,,,,,,,,,,,,,,,,,,,,,,,,22,19,female,22,2022_May_11_1033,Partial repeat,2021.2.3,59.8937967102657,
4,2,0,1,3,2,2,2,0,1,0,1,0,0,0,0,84,84,84,0,0,0,0,,,,,,,1566.1324028000236,None,1566.4293433986604,None,1567.427065398544,None,l,1,0.7387210987508297,1567.427065398544,None,None,None,,,,,,,22,19,female,22,2022_May_11_1033,Partial repeat,2021.2.3,59.8937967102657,
4,2,0,1,3,2,2,2,0,1,0,1,0,0,0,0,84,84,84,1,0,1,0,,,,,,,,,1568.1835914999247,None,1569.0970884002745,None,s,1,0.5966865010559559,1569.0970884002745,None,None,None,,,,,,,22,19,female,22,2022_May_11_1033,Partial repeat,2021.2.3,59.8937967102657,
4,2,0,1,3,2,2,2,0,1,0,1,0,0,0,0,84,84,84,,,,,,,,,,,,,,,,,,,,,,,,,,,,,,22,19,female,22,2022_May_11_1033,Partial repeat,2021.2.3,59.8937967102657,
8,3,0,1,3,2,2,2,0,0,0,1,1,0,0,0,85,85,85,0,0,0,0,,,,,,,1569.7075539994985,None,1570.0366529989988,None,1570.9841230995953,None,l,1,0.6217134986072779,1570.9841230995953,None,None,None,,,,,,,22,19,female,22,2022_May_11_1033,Partial repeat,2021.2.3,59.8937967102657,
8,3,0,1,3,2,2,2,0,0,0,1,1,0,0,0,85,85,85,1,0,1,0,,,,,,,,,1571.6147900987417,None,1572.4872382991016,None,l,1,0.8625523988157511,1572.4872382991016,None,None,None,,,,,,,22,19,female,22,2022_May_11_1033,Partial repeat,2021.2.3,59.8937967102657,
8,3,0,1,3,2,2,2,0,0,0,1,1,0,0,0,85,85,85,,,,,,,,,,,,,,,,,,,,,,,,,,,,,,22,19,female,22,2022_May_11_1033,Partial repeat,2021.2.3,59.8937967102657,
7,1,0,1,2,3,2,1,0,0,0,0,1,0,0,0,86,86,86,0,0,0,0,,,,,,,1573.375261599198,None,1573.6436762996018,None,1574.541643999517,None,l,1,0.5281546991318464,1574.541643999517,None,None,None,,,,,,,22,19,female,22,2022_May_11_1033,Partial repeat,2021.2.3,59.8937967102657,
7,1,0,1,2,3,2,1,0,0,0,0,1,0,0,0,86,86,86,1,0,1,0,,,,,,,,,1575.082855599001,None,1575.9771424997598,None,l,1,0.5166455991566181,1575.9771424997598,None,None,None,,,,,,,22,19,female,22,2022_May_11_1033,Partial repeat,2021.2.3,59.8937967102657,
7,1,0,1,2,3,2,1,0,0,0,0,1,0,0,0,86,86,86,,,,,,,,,,,,,,,,,,,,,,,,,,,,,,22,19,female,22,2022_May_11_1033,Partial repeat,2021.2.3,59.8937967102657,
2,2,0,1,3,3,1,1,1,0,1,1,0,0,0,0,87,87,87,0,0,0,0,,,,,,,1576.5218965988606,None,1576.7998350989074,None,1577.6973033994436,None,s,1,0.5724790003150702,1577.6973033994436,None,None,None,,,,,,,22,19,female,22,2022_May_11_1033,Partial repeat,2021.2.3,59.8937967102657,
2,2,0,1,3,3,1,1,1,0,1,1,0,0,0,0,87,87,87,1,0,1,0,,,,,,,,,1578.283466199413,None,1579.2167309001088,None,l,1,0.541057500988245,1579.2167309001088,None,None,None,,,,,,,22,19,female,22,2022_May_11_1033,Partial repeat,2021.2.3,59.8937967102657,
2,2,0,1,3,3,1,1,1,0,1,1,0,0,0,0,87,87,87,,,,,,,,,,,,,,,,,,,,,,,,,,,,,,22,19,female,22,2022_May_11_1033,Partial repeat,2021.2.3,59.8937967102657,
2,4,0,1,2,3,2,2,0,0,0,1,1,0,0,0,88,88,88,0,0,0,0,,,,,,,1579.7830110993236,None,1580.1228954996914,None,1581.103982700035,None,l,1,0.685792101547122,1581.103982700035,None,None,None,,,,,,,22,19,female,22,2022_May_11_1033,Partial repeat,2021.2.3,59.8937967102657,
2,4,0,1,2,3,2,2,0,0,0,1,1,0,0,0,88,88,88,1,0,1,0,,,,,,,,,1581.815281899646,None,1582.5571460984647,None,l,1,0.6246750000864267,1582.5571460984647,None,None,None,,,,,,,22,19,female,22,2022_May_11_1033,Partial repeat,2021.2.3,59.8937967102657,
2,4,0,1,2,3,2,2,0,0,0,1,1,0,0,0,88,88,88,,,,,,,,,,,,,,,,,,,,,,,,,,,,,,22,19,female,22,2022_May_11_1033,Partial repeat,2021.2.3,59.8937967102657,
8,5,0,1,2,3,1,1,1,0,0,1,0,0,0,0,89,89,89,0,0,0,0,,,,,,,1583.2115518990904,None,1583.4293641988188,None,1584.3111534994096,None,s,1,0.6466272007673979,1584.3111534994096,None,None,None,,,,,,,22,19,female,22,2022_May_11_1033,Partial repeat,2021.2.3,59.8937967102657,
8,5,0,1,2,3,1,1,1,0,0,1,0,0,0,0,89,89,89,1,0,1,0,,,,,,,,,1584.9822329990566,None,1585.8463180996478,None,l,1,0.6234638001769781,1585.8463180996478,None,None,None,,,,,,,22,19,female,22,2022_May_11_1033,Partial repeat,2021.2.3,59.8937967102657,
8,5,0,1,2,3,1,1,1,0,0,1,0,0,0,0,89,89,89,,,,,,,,,,,,,,,,,,,,,,,,,,,,,,22,19,female,22,2022_May_11_1033,Partial repeat,2021.2.3,59.8937967102657,
8,1,0,1,2,3,1,2,1,0,0,0,0,0,0,0,90,90,90,0,0,0,0,,,,,,,1586.49886040017,None,1586.802611200139,None,1587.5838564988226,None,s,1,0.6699288003146648,1587.5838564988226,None,None,None,,,,,,,22,19,female,22,2022_May_11_1033,Partial repeat,2021.2.3,59.8937967102657,
8,1,0,1,2,3,1,2,1,0,0,0,0,0,0,0,90,90,90,1,0,1,0,,,,,,,,,1588.2776349000633,None,1589.035974798724,None,l,1,0.49786469899117947,1589.035974798724,None,None,None,,,,,,,22,19,female,22,2022_May_11_1033,Partial repeat,2021.2.3,59.8937967102657,
8,1,0,1,2,3,1,2,1,0,0,0,0,0,0,0,90,90,90,,,,,,,,,,,,,,,,,,,,,,,,,,,,,,22,19,female,22,2022_May_11_1033,Partial repeat,2021.2.3,59.8937967102657,
8,6,0,1,3,3,1,1,0,0,1,1,1,0,0,0,91,91,91,0,0,0,0,,,,,,,1589.5618925988674,None,1589.8752760998905,None,1590.6057107988745,None,l,1,0.6240705009549856,1590.6057107988745,None,None,None,,,,,,,22,19,female,22,2022_May_11_1033,Partial repeat,2021.2.3,59.8937967102657,
8,6,0,1,3,3,1,1,0,0,1,1,1,0,0,0,91,91,91,1,0,1,0,,,,,,,,,1591.2547051999718,None,1592.0250065997243,None,l,1,0.5487697999924421,1592.0250065997243,None,None,None,,,,,,,22,19,female,22,2022_May_11_1033,Partial repeat,2021.2.3,59.8937967102657,
8,6,0,1,3,3,1,1,0,0,1,1,1,0,0,0,91,91,91,,,,,,,,,,,,,,,,,,,,,,,,,,,,,,22,19,female,22,2022_May_11_1033,Partial repeat,2021.2.3,59.8937967102657,
6,8,0,1,2,3,2,1,1,1,0,0,1,0,0,0,92,92,92,0,0,0,0,,,,,,,1592.5941573996097,None,1593.0312434993684,None,1593.9789376985282,None,s,1,0.5788403004407883,1593.9789376985282,None,None,None,,,,,,,22,19,female,22,2022_May_11_1033,Partial repeat,2021.2.3,59.8937967102657,
6,8,0,1,2,3,2,1,1,1,0,0,1,0,0,0,92,92,92,1,0,1,0,,,,,,,,,1594.5858517996967,None,1595.515489898622,None,s,1,0.5863403007388115,1595.515489898622,None,None,None,,,,,,,22,19,female,22,2022_May_11_1033,Partial repeat,2021.2.3,59.8937967102657,
6,8,0,1,2,3,2,1,1,1,0,0,1,0,0,0,92,92,92,,,,,,,,,,,,,,,,,,,,,,,,,,,,,,22,19,female,22,2022_May_11_1033,Partial repeat,2021.2.3,59.8937967102657,
1,7,0,1,3,2,1,2,1,1,0,0,1,0,0,0,93,93,93,0,0,0,0,,,,,,,1596.1263451986015,None,1596.4380121994764,None,1597.184950498864,None,s,1,0.7088720984756947,1597.184950498864,None,None,None,,,,,,,22,19,female,22,2022_May_11_1033,Partial repeat,2021.2.3,59.8937967102657,
1,7,0,1,3,2,1,2,1,1,0,0,1,0,0,0,93,93,93,1,0,1,0,,,,,,,,,1597.9205670002848,None,1598.8383863996714,None,s,1,0.7514846995472908,1598.8383863996714,None,None,None,,,,,,,22,19,female,22,2022_May_11_1033,Partial repeat,2021.2.3,59.8937967102657,
1,7,0,1,3,2,1,2,1,1,0,0,1,0,0,0,93,93,93,,,,,,,,,,,,,,,,,,,,,,,,,,,,,,22,19,female,22,2022_May_11_1033,Partial repeat,2021.2.3,59.8937967102657,
3,6,0,1,3,3,2,1,0,1,1,0,0,0,0,0,94,94,94,0,0,0,0,,,,,,,1599.603132000193,None,1599.7277272995561,None,1600.6092540994287,None,l,1,0.8845290001481771,1600.6092540994287,None,None,None,,,,,,,22,19,female,22,2022_May_11_1033,Partial repeat,2021.2.3,59.8937967102657,
3,6,0,1,3,3,2,1,0,1,1,0,0,0,0,0,94,94,94,1,0,1,0,,,,,,,,,1601.5157161988318,None,1602.2616267986596,None,s,1,0.6001580990850925,1602.2616267986596,None,None,None,,,,,,,22,19,female,22,2022_May_11_1033,Partial repeat,2021.2.3,59.8937967102657,
3,6,0,1,3,3,2,1,0,1,1,0,0,0,0,0,94,94,94,,,,,,,,,,,,,,,,,,,,,,,,,,,,,,22,19,female,22,2022_May_11_1033,Partial repeat,2021.2.3,59.8937967102657,
7,7,0,1,3,2,1,1,0,1,0,1,0,0,0,0,95,95,95,0,0,0,0,,,,,,,1602.8724550995976,None,1603.5017540995032,None,1604.5159510988742,None,l,1,0.8898168001323938,1604.5159510988742,None,None,None,,,,,,,22,19,female,22,2022_May_11_1033,Partial repeat,2021.2.3,59.8937967102657,
7,7,0,1,3,2,1,1,0,1,0,1,0,0,0,0,95,95,95,1,0,1,0,,,,,,,,,1605.4231508001685,None,1606.4380456991494,None,s,1,0.52772649936378,1606.4380456991494,None,None,None,,,,,,,22,19,female,22,2022_May_11_1033,Partial repeat,2021.2.3,59.8937967102657,
7,7,0,1,3,2,1,1,0,1,0,1,0,0,0,0,95,95,95,,,,,,,,,,,,,,,,,,,,,,,,,,,,,,22,19,female,22,2022_May_11_1033,Partial repeat,2021.2.3,59.8937967102657,
8,2,0,1,2,3,2,2,1,0,0,1,0,0,0,0,96,96,96,0,0,0,0,,,,,,,1606.9871673993766,None,1607.2924942988902,None,1608.056294299662,None,s,1,0.5734753999859095,1608.056294299662,None,None,None,,,,,,,22,19,female,22,2022_May_11_1033,Partial repeat,2021.2.3,59.8937967102657,
8,2,0,1,2,3,2,2,1,0,0,1,0,0,0,0,96,96,96,1,0,1,0,,,,,,,,,1608.6447096988559,None,1609.3755451999605,None,l,1,0.4302289988845587,1609.3755451999605,None,None,None,,,,,,,22,19,female,22,2022_May_11_1033,Partial repeat,2021.2.3,59.8937967102657,
8,2,0,1,2,3,2,2,1,0,0,1,0,0,0,0,96,96,96,,,,,,,,,,,,,,,,,,,,,,,,,,,,,,22,19,female,22,2022_May_11_1033,Partial repeat,2021.2.3,59.8937967102657,
4,8,0,1,3,3,2,2,0,1,1,1,0,0,0,0,97,97,97,0,0,0,0,,,,,,,1609.836020398885,None,1610.1646985001862,None,1611.0455988999456,None,l,1,0.544139800593257,1611.0455988999456,None,None,None,,,,,,,22,19,female,22,2022_May_11_1033,Partial repeat,2021.2.3,59.8937967102657,
4,8,0,1,3,3,2,2,0,1,1,1,0,0,0,0,97,97,97,1,0,1,0,,,,,,,,,1611.611797498539,None,1612.614977600053,None,s,1,0.5747938994318247,1612.614977600053,None,None,None,,,,,,,22,19,female,22,2022_May_11_1033,Partial repeat,2021.2.3,59.8937967102657,
4,8,0,1,3,3,2,2,0,1,1,1,0,0,0,0,97,97,97,,,,,,,,,,,,,,,,,,,,,,,,,,,,,,22,19,female,22,2022_May_11_1033,Partial repeat,2021.2.3,59.8937967102657,
1,8,0,1,2,2,1,2,1,0,1,0,0,0,0,0,98,98,98,0,0,0,0,,,,,,,1613.2038160990924,None,1613.5545713994652,None,1614.4186866991222,None,s,1,0.5791197009384632,1614.4186866991222,None,None,None,,,,,,,22,19,female,22,2022_May_11_1033,Partial repeat,2021.2.3,59.8937967102657,
1,8,0,1,2,2,1,2,1,0,1,0,0,0,0,0,98,98,98,1,0,1,0,,,,,,,,,1615.0057937987149,None,1615.9217683989555,None,l,1,0.5079939998686314,1615.9217683989555,None,None,None,,,,,,,22,19,female,22,2022_May_11_1033,Partial repeat,2021.2.3,59.8937967102657,
1,8,0,1,2,2,1,2,1,0,1,0,0,0,0,0,98,98,98,,,,,,,,,,,,,,,,,,,,,,,,,,,,,,22,19,female,22,2022_May_11_1033,Partial repeat,2021.2.3,59.8937967102657,
6,6,0,1,3,3,2,1,1,0,1,0,0,0,0,0,99,99,99,0,0,0,0,,,,,,,1616.4455670993775,None,1616.7942894995213,None,1617.5914308987558,None,s,1,0.5743345003575087,1617.5914308987558,None,None,None,,,,,,,22,19,female,22,2022_May_11_1033,Partial repeat,2021.2.3,59.8937967102657,
6,6,0,1,3,3,2,1,1,0,1,0,0,0,0,0,99,99,99,1,0,1,0,,,,,,,,,1618.179239699617,None,1619.0609728991985,None,l,1,1.0329096000641584,1619.0609728991985,None,None,None,,,,,,,22,19,female,22,2022_May_11_1033,Partial repeat,2021.2.3,59.8937967102657,
6,6,0,1,3,3,2,1,1,0,1,0,0,0,0,0,99,99,99,,,,,,,,,,,,,,,,,,,,,,,,,,,,,,22,19,female,22,2022_May_11_1033,Partial repeat,2021.2.3,59.8937967102657,
5,4,0,1,2,2,2,2,1,0,1,1,0,0,0,0,100,100,100,0,0,0,0,,,,,,,1620.123505398631,None,1620.4180004000664,None,1621.3157725986093,None,s,1,0.6659947000443935,1621.3157725986093,None,None,None,,,,,,,22,19,female,22,2022_May_11_1033,Partial repeat,2021.2.3,59.8937967102657,
5,4,0,1,2,2,2,2,1,0,1,1,0,0,0,0,100,100,100,1,0,1,0,,,,,,,,,1622.0065566990525,None,1622.8850787002593,None,l,1,0.5766828004270792,1622.8850787002593,None,None,None,,,,,,,22,19,female,22,2022_May_11_1033,Partial repeat,2021.2.3,59.8937967102657,
5,4,0,1,2,2,2,2,1,0,1,1,0,0,0,0,100,100,100,,,,,,,,,,,,,,,,,,,,,,,,,,,,,,22,19,female,22,2022_May_11_1033,Partial repeat,2021.2.3,59.8937967102657,
7,3,0,1,2,2,1,1,1,1,1,1,1,0,0,0,101,101,101,0,0,0,0,,,,,,,1623.476625399664,None,1623.8079376984388,None,1624.722922699526,None,s,1,0.5308397989720106,1624.722922699526,None,None,None,,,,,,,22,19,female,22,2022_May_11_1033,Partial repeat,2021.2.3,59.8937967102657,
7,3,0,1,2,2,1,1,1,1,1,1,1,0,0,0,101,101,101,1,0,1,0,,,,,,,,,1625.267448298633,None,1626.107886198908,None,s,1,0.8899050001055002,1626.107886198908,None,None,None,,,,,,,22,19,female,22,2022_May_11_1033,Partial repeat,2021.2.3,59.8937967102657,
7,3,0,1,2,2,1,1,1,1,1,1,1,0,0,0,101,101,101,,,,,,,,,,,,,,,,,,,,,,,,,,,,,,22,19,female,22,2022_May_11_1033,Partial repeat,2021.2.3,59.8937967102657,
3,8,0,1,3,3,1,2,0,0,1,0,1,0,0,0,102,102,102,0,0,0,0,,,,,,,1627.0270316991955,None,1627.3481676001102,None,1628.1118588987738,None,l,1,0.7099002003669739,1628.1118588987738,None,None,None,,,,,,,22,19,female,22,2022_May_11_1033,Partial repeat,2021.2.3,59.8937967102657,
3,8,0,1,3,3,1,2,0,0,1,0,1,0,0,0,102,102,102,1,0,1,0,,,,,,,,,1628.847513699904,None,1629.8162947986275,None,l,1,0.6615347992628813,1629.8162947986275,None,None,None,,,,,,,22,19,female,22,2022_May_11_1033,Partial repeat,2021.2.3,59.8937967102657,
3,8,0,1,3,3,1,2,0,0,1,0,1,0,0,0,102,102,102,,,,,,,,,,,,,,,,,,,,,,,,,,,,,,22,19,female,22,2022_May_11_1033,Partial repeat,2021.2.3,59.8937967102657,
2,1,0,1,2,3,2,2,0,1,0,1,0,0,0,0,103,103,103,0,0,0,0,,,,,,,1630.4921325985342,None,1630.8716851994395,None,1631.6857220996171,None,l,1,0.5760762002319098,1631.6857220996171,None,None,None,,,,,,,22,19,female,22,2022_May_11_1033,Partial repeat,2021.2.3,59.8937967102657,
2,1,0,1,2,3,2,2,0,1,0,1,0,0,0,0,103,103,103,1,0,1,0,,,,,,,,,1632.2704707998782,None,1633.022671598941,None,s,1,0.5270930994302034,1633.022671598941,None,None,None,,,,,,,22,19,female,22,2022_May_11_1033,Partial repeat,2021.2.3,59.8937967102657,
2,1,0,1,2,3,2,2,0,1,0,1,0,0,0,0,103,103,103,,,,,,,,,,,,,,,,,,,,,,,,,,,,,,22,19,female,22,2022_May_11_1033,Partial repeat,2021.2.3,59.8937967102657,
7,8,0,1,2,2,2,1,1,1,1,0,1,0,0,0,104,104,104,0,0,0,0,,,,,,,1633.5724525991827,None,1633.777279799804,None,1634.5411072000861,None,s,1,0.5926750991493464,1634.5411072000861,None,None,None,,,,,,,22,19,female,22,2022_May_11_1033,Partial repeat,2021.2.3,59.8937967102657,
7,8,0,1,2,2,2,1,1,1,1,0,1,0,0,0,104,104,104,1,0,1,0,,,,,,,,,1635.1443559993058,None,1635.960733499378,None,s,1,0.7570230010896921,1635.960733499378,None,None,None,,,,,,,22,19,female,22,2022_May_11_1033,Partial repeat,2021.2.3,59.8937967102657,
7,8,0,1,2,2,2,1,1,1,1,0,1,0,0,0,104,104,104,,,,,,,,,,,,,,,,,,,,,,,,,,,,,,22,19,female,22,2022_May_11_1033,Partial repeat,2021.2.3,59.8937967102657,
1,1,0,1,3,3,1,2,1,1,1,0,1,0,0,0,105,105,105,0,0,0,0,,,,,,,1636.7430958002806,None,1637.1505960002542,None,1638.131585098803,None,s,1,0.578168798238039,1638.131585098803,None,None,None,,,,,,,22,19,female,22,2022_May_11_1033,Partial repeat,2021.2.3,59.8937967102657,
1,1,0,1,3,3,1,2,1,1,1,0,1,0,0,0,105,105,105,1,0,1,0,,,,,,,,,1638.7342480998486,None,1639.600859399885,None,s,1,0.532889399677515,1639.600859399885,None,None,None,,,,,,,22,19,female,22,2022_May_11_1033,Partial repeat,2021.2.3,59.8937967102657,
1,1,0,1,3,3,1,2,1,1,1,0,1,0,0,0,105,105,105,,,,,,,,,,,,,,,,,,,,,,,,,,,,,,22,19,female,22,2022_May_11_1033,Partial repeat,2021.2.3,59.8937967102657,
2,8,0,1,3,2,2,1,0,1,0,0,0,0,0,0,106,106,106,0,0,0,0,,,,,,,1640.1490278989077,None,1640.6907425001264,None,1641.688231099397,None,l,1,0.677513899281621,1641.688231099397,None,None,None,,,,,,,22,19,female,22,2022_May_11_1033,Partial repeat,2021.2.3,59.8937967102657,
2,8,0,1,3,2,2,1,0,1,0,0,0,0,0,0,106,106,106,1,0,1,0,,,,,,,,,1642.3783064000309,None,1643.1243929993361,None,s,1,0.4653661008924246,1643.1243929993361,None,None,None,,,,,,,22,19,female,22,2022_May_11_1033,Partial repeat,2021.2.3,59.8937967102657,
2,8,0,1,3,2,2,1,0,1,0,0,0,0,0,0,106,106,106,,,,,,,,,,,,,,,,,,,,,,,,,,,,,,22,19,female,22,2022_May_11_1033,Partial repeat,2021.2.3,59.8937967102657,
2,3,0,1,3,2,1,2,1,0,0,0,0,0,0,0,107,107,107,0,0,0,0,,,,,,,1643.6043055988848,None,1643.997228698805,None,1644.844361199066,None,s,1,0.6013769004493952,1644.844361199066,None,None,None,,,,,,,22,19,female,22,2022_May_11_1033,Partial repeat,2021.2.3,59.8937967102657,
2,3,0,1,3,2,1,2,1,0,0,0,0,0,0,0,107,107,107,1,0,1,0,,,,,,,,,1645.4707515984774,None,1646.330686699599,None,l,1,0.7391400001943111,1646.330686699599,None,None,None,,,,,,,22,19,female,22,2022_May_11_1033,Partial repeat,2021.2.3,59.8937967102657,
2,3,0,1,3,2,1,2,1,0,0,0,0,0,0,0,107,107,107,,,,,,,,,,,,,,,,,,,,,,,,,,,,,,22,19,female,22,2022_May_11_1033,Partial repeat,2021.2.3,59.8937967102657,
3,5,0,1,2,3,1,2,0,1,0,0,0,0,0,0,108,108,108,0,0,0,0,,,,,,,1647.0817021988332,None,1647.6209455989301,None,1648.3513059988618,None,l,1,0.6304470002651215,1648.3513059988618,None,None,None,,,,,,,22,19,female,22,2022_May_11_1033,Partial repeat,2021.2.3,59.8937967102657,
3,5,0,1,2,3,1,2,0,1,0,0,0,0,0,0,108,108,108,1,0,1,0,,,,,,,,,1649.0008638985455,None,1649.9044993985444,None,s,1,0.6292572990059853,1649.9044993985444,None,None,None,,,,,,,22,19,female,22,2022_May_11_1033,Partial repeat,2021.2.3,59.8937967102657,
3,5,0,1,2,3,1,2,0,1,0,0,0,0,0,0,108,108,108,,,,,,,,,,,,,,,,,,,,,,,,,,,,,,22,19,female,22,2022_May_11_1033,Partial repeat,2021.2.3,59.8937967102657,
7,4,0,1,3,2,2,1,1,1,0,0,1,0,0,0,109,109,109,0,0,0,0,,,,,,,1650.5603815987706,None,1651.1277655996382,None,1652.091925298795,None,s,1,0.6898759994655848,1652.091925298795,None,None,None,,,,,,,22,19,female,22,2022_May_11_1033,Partial repeat,2021.2.3,59.8937967102657,
7,4,0,1,3,2,2,1,1,1,0,0,1,0,0,0,109,109,109,1,0,1,0,,,,,,,,,1652.8102477993816,None,1653.7789475992322,None,s,1,0.7787967994809151,1653.7789475992322,None,None,None,,,,,,,22,19,female,22,2022_May_11_1033,Partial repeat,2021.2.3,59.8937967102657,
7,4,0,1,3,2,2,1,1,1,0,0,1,0,0,0,109,109,109,,,,,,,,,,,,,,,,,,,,,,,,,,,,,,22,19,female,22,2022_May_11_1033,Partial repeat,2021.2.3,59.8937967102657,
1,5,0,1,3,2,2,2,1,0,0,1,0,0,0,0,110,110,110,0,0,0,0,,,,,,,1654.5861738994718,None,1654.968569099903,None,1655.8661024998873,None,s,1,0.6197114009410143,1655.8661024998873,None,None,None,,,,,,,22,19,female,22,2022_May_11_1033,Partial repeat,2021.2.3,59.8937967102657,
1,5,0,1,3,2,2,2,1,0,0,1,0,0,0,0,110,110,110,1,0,1,0,,,,,,,,,1656.5152515992522,None,1657.3032601997256,None,l,1,1.1024846006184816,1657.3032601997256,None,None,None,,,,,,,22,19,female,22,2022_May_11_1033,Partial repeat,2021.2.3,59.8937967102657,
1,5,0,1,3,2,2,2,1,0,0,1,0,0,0,0,110,110,110,,,,,,,,,,,,,,,,,,,,,,,,,,,,,,22,19,female,22,2022_May_11_1033,Partial repeat,2021.2.3,59.8937967102657,
2,5,0,1,2,2,1,2,1,1,1,0,1,0,0,0,111,111,111,0,0,0,0,,,,,,,1658.4270211998373,None,1658.8093634992838,None,1659.7901584990323,None,s,1,0.7675898000597954,1659.7901584990323,None,None,None,,,,,,,22,19,female,22,2022_May_11_1033,Partial repeat,2021.2.3,59.8937967102657,
2,5,0,1,2,2,1,2,1,1,1,0,1,0,0,0,111,111,111,1,0,1,0,,,,,,,,,1660.5858564991504,None,1661.3934848997742,None,s,1,0.5963188000023365,1661.3934848997742,None,None,None,,,,,,,22,19,female,22,2022_May_11_1033,Partial repeat,2021.2.3,59.8937967102657,
2,5,0,1,2,2,1,2,1,1,1,0,1,0,0,0,111,111,111,,,,,,,,,,,,,,,,,,,,,,,,,,,,,,22,19,female,22,2022_May_11_1033,Partial repeat,2021.2.3,59.8937967102657,
3,3,0,1,3,2,1,1,1,1,0,1,1,0,0,0,112,112,112,0,0,0,0,,,,,,,1662.0034117996693,None,1662.7002424001694,None,1663.6642093993723,None,l,0,0.7575355004519224,1663.6642093993723,None,1664.4354678001255,None,,,,,,,22,19,female,22,2022_May_11_1033,Partial repeat,2021.2.3,59.8937967102657,
3,3,0,1,3,2,1,1,1,1,0,1,1,0,0,0,112,112,112,1,0,1,0,,,,,,,,,1664.9379647001624,None,1665.8693693988025,None,s,1,0.6243692003190517,1665.8693693988025,None,None,None,,,,,,,22,19,female,22,2022_May_11_1033,Partial repeat,2021.2.3,59.8937967102657,
3,3,0,1,3,2,1,1,1,1,0,1,1,0,0,0,112,112,112,,,,,,,,,,,,,,,,,,,,,,,,,,,,,,22,19,female,22,2022_May_11_1033,Partial repeat,2021.2.3,59.8937967102657,
5,5,0,1,3,3,2,2,0,0,1,1,1,0,0,0,113,113,113,0,0,0,0,,,,,,,1666.5213226992637,None,1668.1775930989534,None,1668.9807817991823,None,l,1,0.6171059999614954,1668.9807817991823,None,None,None,,,,,,,22,19,female,22,2022_May_11_1033,Partial repeat,2021.2.3,59.8937967102657,
5,5,0,1,3,3,2,2,0,0,1,1,1,0,0,0,113,113,113,1,0,1,0,,,,,,,,,1669.6084608994424,None,1670.5944697000086,None,l,1,0.659264899790287,1670.5944697000086,None,None,None,,,,,,,22,19,female,22,2022_May_11_1033,Partial repeat,2021.2.3,59.8937967102657,
5,5,0,1,3,3,2,2,0,0,1,1,1,0,0,0,113,113,113,,,,,,,,,,,,,,,,,,,,,,,,,,,,,,22,19,female,22,2022_May_11_1033,Partial repeat,2021.2.3,59.8937967102657,
1,3,0,1,2,2,1,2,0,1,1,0,0,0,0,0,114,114,114,0,0,0,0,,,,,,,1671.2691362984478,None,1671.7511154990643,None,1672.7319271992892,None,l,1,0.6338307987898588,1672.7319271992892,None,None,None,,,,,,,22,19,female,22,2022_May_11_1033,Partial repeat,2021.2.3,59.8937967102657,
1,3,0,1,2,2,1,2,0,1,1,0,0,0,0,0,114,114,114,1,0,1,0,,,,,,,,,1673.3817111998796,None,1674.1513494998217,None,s,1,0.5903877001255751,1674.1513494998217,None,None,None,,,,,,,22,19,female,22,2022_May_11_1033,Partial repeat,2021.2.3,59.8937967102657,
1,3,0,1,2,2,1,2,0,1,1,0,0,0,0,0,114,114,114,,,,,,,,,,,,,,,,,,,,,,,,,,,,,,22,19,female,22,2022_May_11_1033,Partial repeat,2021.2.3,59.8937967102657,
3,7,0,1,3,2,1,1,0,0,0,1,1,0,0,0,115,115,115,0,0,0,0,,,,,,,1674.7659992985427,None,1675.174556799233,None,1676.1219271998852,None,l,1,0.963816000148654,1676.1219271998852,None,None,None,,,,,,,22,19,female,22,2022_May_11_1033,Partial repeat,2021.2.3,59.8937967102657,
3,7,0,1,3,2,1,1,0,0,0,1,1,0,0,0,115,115,115,1,0,1,0,,,,,,,,,1677.1119965985417,None,1677.9759785998613,None,l,1,0.5737576000392437,1677.9759785998613,None,None,None,,,,,,,22,19,female,22,2022_May_11_1033,Partial repeat,2021.2.3,59.8937967102657,
3,7,0,1,3,2,1,1,0,0,0,1,1,0,0,0,115,115,115,,,,,,,,,,,,,,,,,,,,,,,,,,,,,,22,19,female,22,2022_May_11_1033,Partial repeat,2021.2.3,59.8937967102657,
4,4,0,1,3,3,1,2,1,0,1,0,0,0,0,0,116,116,116,0,0,0,0,,,,,,,1678.5659106001258,None,1679.1155174002051,None,1680.114897299558,None,s,1,1.0589442010968924,1680.114897299558,None,None,None,,,,,,,22,19,female,22,2022_May_11_1033,Partial repeat,2021.2.3,59.8937967102657,
4,4,0,1,3,3,1,2,1,0,1,0,0,0,0,0,116,116,116,1,0,1,0,,,,,,,,,1681.1847828999162,None,1682.1012274995446,None,l,1,0.5605714991688728,1682.1012274995446,None,None,None,,,,,,,22,19,female,22,2022_May_11_1033,Partial repeat,2021.2.3,59.8937967102657,
4,4,0,1,3,3,1,2,1,0,1,0,0,0,0,0,116,116,116,,,,,,,,,,,,,,,,,,,,,,,,,,,,,,22,19,female,22,2022_May_11_1033,Partial repeat,2021.2.3,59.8937967102657,
7,6,0,1,2,2,2,1,0,0,1,0,1,0,0,0,117,117,117,0,0,0,0,,,,,,,1682.6915285997093,None,1683.3237303998321,None,1684.287856798619,None,l,1,0.7499058004468679,1684.287856798619,None,None,None,,,,,,,22,19,female,22,2022_May_11_1033,Partial repeat,2021.2.3,59.8937967102657,
7,6,0,1,2,2,2,1,0,0,1,0,1,0,0,0,117,117,117,1,0,1,0,,,,,,,,,1685.065998999402,None,1685.9084993992,None,l,1,0.7693009991198778,1685.9084993992,None,None,None,,,,,,,22,19,female,22,2022_May_11_1033,Partial repeat,2021.2.3,59.8937967102657,
7,6,0,1,2,2,2,1,0,0,1,0,1,0,0,0,117,117,117,,,,,,,,,,,,,,,,,,,,,,,,,,,,,,22,19,female,22,2022_May_11_1033,Partial repeat,2021.2.3,59.8937967102657,
4,5,0,1,3,3,2,2,1,1,1,1,1,0,0,0,118,118,118,0,0,0,0,,,,,,,1686.6896940991282,None,1687.4316841997206,None,1688.162238098681,None,s,1,0.7634897995740175,1688.162238098681,None,None,None,,,,,,,22,19,female,22,2022_May_11_1033,Partial repeat,2021.2.3,59.8937967102657,
4,5,0,1,3,3,2,2,1,1,1,1,1,0,0,0,118,118,118,1,0,1,0,,,,,,,,,1688.938997099176,None,1689.731707399711,None,s,1,0.9140229001641273,1689.731707399711,None,None,None,,,,,,,22,19,female,22,2022_May_11_1033,Partial repeat,2021.2.3,59.8937967102657,
4,5,0,1,3,3,2,2,1,1,1,1,1,0,0,0,118,118,118,,,,,,,,,,,,,,,,,,,,,,,,,,,,,,22,19,female,22,2022_May_11_1033,Partial repeat,2021.2.3,59.8937967102657,
1,2,0,1,2,3,1,1,0,0,0,1,1,0,0,0,119,119,119,0,0,0,0,,,,,,,1690.667343698442,None,1691.5731124002486,None,1692.5206096991897,None,l,1,0.6531125996261835,1692.5206096991897,None,None,None,,,,,,,22,19,female,22,2022_May_11_1033,Partial repeat,2021.2.3,59.8937967102657,
1,2,0,1,2,3,1,1,0,0,0,1,1,0,0,0,119,119,119,1,0,1,0,,,,,,,,,1693.1903085000813,None,1693.9902903996408,None,l,1,0.6154362000524998,1693.9902903996408,None,None,None,,,,,,,22,19,female,22,2022_May_11_1033,Partial repeat,2021.2.3,59.8937967102657,
1,2,0,1,2,3,1,1,0,0,0,1,1,0,0,0,119,119,119,,,,,,,,,,,,,,,,,,,,,,,,,,,,,,22,19,female,22,2022_May_11_1033,Partial repeat,2021.2.3,59.8937967102657,
1,4,0,1,2,2,2,1,0,1,1,0,0,0,0,0,120,120,120,0,0,0,0,,,,,,,1694.6205556001514,None,1695.2636064998806,None,1696.227921999991,None,l,1,0.5538112986832857,1696.227921999991,None,None,None,,,,,,,22,19,female,22,2022_May_11_1033,Partial repeat,2021.2.3,59.8937967102657,
1,4,0,1,2,2,2,1,0,1,1,0,0,0,0,0,120,120,120,1,0,1,0,,,,,,,,,1696.7898495998234,None,1697.7811149992049,None,s,1,0.6646138988435268,1697.7811149992049,None,None,None,,,,,,,22,19,female,22,2022_May_11_1033,Partial repeat,2021.2.3,59.8937967102657,
1,4,0,1,2,2,2,1,0,1,1,0,0,0,0,0,120,120,120,,,,,,,,,,,,,,,,,,,,,,,,,,,,,,22,19,female,22,2022_May_11_1033,Partial repeat,2021.2.3,59.8937967102657,
5,1,0,1,3,3,1,2,0,1,1,0,0,0,0,0,121,121,121,0,0,0,0,,,,,,,1698.4743282999843,None,1699.1878717001528,None,1700.1356424000114,None,l,1,0.6460841987282038,1700.1356424000114,None,None,None,,,,,,,22,19,female,22,2022_May_11_1033,Partial repeat,2021.2.3,59.8937967102657,
5,1,0,1,3,3,1,2,0,1,1,0,0,0,0,0,121,121,121,1,0,1,0,,,,,,,,,1700.8065865989774,None,1701.5548237990588,None,s,1,0.6109269000589848,1701.5548237990588,None,None,None,,,,,,,22,19,female,22,2022_May_11_1033,Partial repeat,2021.2.3,59.8937967102657,
5,1,0,1,3,3,1,2,0,1,1,0,0,0,0,0,121,121,121,,,,,,,,,,,,,,,,,,,,,,,,,,,,,,22,19,female,22,2022_May_11_1033,Partial repeat,2021.2.3,59.8937967102657,
6,1,0,1,2,3,2,1,0,1,0,0,0,0,0,0,122,122,122,0,0,0,0,,,,,,,1702.1902654990554,None,1702.828272299841,None,1703.675803899765,None,l,1,0.6099150013178587,1703.675803899765,None,None,None,,,,,,,22,19,female,22,2022_May_11_1033,Partial repeat,2021.2.3,59.8937967102657,
6,1,0,1,2,3,2,1,0,1,0,0,0,0,0,0,122,122,122,1,0,1,0,,,,,,,,,1704.3034713994712,None,1705.2454277984798,None,s,1,0.6162427999079227,1705.2454277984798,None,None,None,,,,,,,22,19,female,22,2022_May_11_1033,Partial repeat,2021.2.3,59.8937967102657,
6,1,0,1,2,3,2,1,0,1,0,0,0,0,0,0,122,122,122,,,,,,,,,,,,,,,,,,,,,,,,,,,,,,22,19,female,22,2022_May_11_1033,Partial repeat,2021.2.3,59.8937967102657,
6,2,0,1,3,2,1,2,0,1,0,0,0,0,0,0,123,123,123,0,0,0,0,,,,,,,1705.892104798928,None,1706.3852560985833,None,1707.3160956986248,None,l,1,0.6896251998841763,1707.3160956986248,None,None,None,,,,,,,22,19,female,22,2022_May_11_1033,Partial repeat,2021.2.3,59.8937967102657,
6,2,0,1,3,2,1,2,0,1,0,0,0,0,0,0,123,123,123,1,0,1,0,,,,,,,,,1708.0236866995692,None,1709.0195330996066,None,s,1,0.7062244992703199,1709.0195330996066,None,None,None,,,,,,,22,19,female,22,2022_May_11_1033,Partial repeat,2021.2.3,59.8937967102657,
6,2,0,1,3,2,1,2,0,1,0,0,0,0,0,0,123,123,123,,,,,,,,,,,,,,,,,,,,,,,,,,,,,,22,19,female,22,2022_May_11_1033,Partial repeat,2021.2.3,59.8937967102657,
6,4,0,1,3,3,2,2,1,0,1,1,0,0,0,0,124,124,124,0,0,0,0,,,,,,,1709.7371046990156,None,1710.3596473000944,None,1711.2735180985183,None,s,1,0.7561770007014275,1711.2735180985183,None,None,None,,,,,,,22,19,female,22,2022_May_11_1033,Partial repeat,2021.2.3,59.8937967102657,
6,4,0,1,3,3,2,2,1,0,1,1,0,0,0,0,124,124,124,1,0,1,0,,,,,,,,,1712.0426467992365,None,1712.8936570994556,None,l,1,0.6321208998560905,1712.8936570994556,None,None,None,,,,,,,22,19,female,22,2022_May_11_1033,Partial repeat,2021.2.3,59.8937967102657,
6,4,0,1,3,3,2,2,1,0,1,1,0,0,0,0,124,124,124,,,,,,,,,,,,,,,,,,,,,,,,,,,,,,22,19,female,22,2022_May_11_1033,Partial repeat,2021.2.3,59.8937967102657,
2,6,0,1,2,3,2,2,1,1,0,1,1,0,0,0,125,125,125,0,0,0,0,,,,,,,1713.5453926995397,None,1714.2171483989805,None,1714.9477039985359,None,s,1,0.6340826991945505,1714.9477039985359,None,None,None,,,,,,,22,19,female,22,2022_May_11_1033,Partial repeat,2021.2.3,59.8937967102657,
2,6,0,1,2,3,2,2,1,1,0,1,1,0,0,0,125,125,125,1,0,1,0,,,,,,,,,1715.610583499074,None,1716.4506694991142,None,s,1,0.5310449991375208,1716.4506694991142,None,None,None,,,,,,,22,19,female,22,2022_May_11_1033,Partial repeat,2021.2.3,59.8937967102657,
2,6,0,1,2,3,2,2,1,1,0,1,1,0,0,0,125,125,125,,,,,,,,,,,,,,,,,,,,,,,,,,,,,,22,19,female,22,2022_May_11_1033,Partial repeat,2021.2.3,59.8937967102657,
5,2,0,1,3,3,2,1,0,0,1,0,1,0,0,0,126,126,126,0,0,0,0,,,,,,,1717.0028216987848,None,1717.6237715985626,None,1718.4544696994126,None,l,1,0.5752432011067867,1718.4544696994126,None,None,None,,,,,,,22,19,female,22,2022_May_11_1033,Partial repeat,2021.2.3,59.8937967102657,
5,2,0,1,3,3,2,1,0,0,1,0,1,0,0,0,126,126,126,1,0,1,0,,,,,,,,,1719.054196799174,None,1719.9239155985415,None,l,1,0.7537379991263151,1719.9239155985415,None,None,None,,,,,,,22,19,female,22,2022_May_11_1033,Partial repeat,2021.2.3,59.8937967102657,
5,2,0,1,3,3,2,1,0,0,1,0,1,0,0,0,126,126,126,,,,,,,,,,,,,,,,,,,,,,,,,,,,,,22,19,female,22,2022_May_11_1033,Partial repeat,2021.2.3,59.8937967102657,
7,2,0,1,3,3,2,1,1,1,1,0,1,0,0,0,127,127,127,0,0,0,0,,,,,,,1720.708717700094,None,1721.2975049000233,None,1722.1781823001802,None,s,1,0.5875278990715742,1722.1781823001802,None,None,None,,,,,,,22,19,female,22,2022_May_11_1033,Partial repeat,2021.2.3,59.8937967102657,
7,2,0,1,3,3,2,1,1,1,1,0,1,0,0,0,127,127,127,1,0,1,0,,,,,,,,,1722.783703699708,None,1723.5642118994147,None,s,1,0.6735012009739876,1723.5642118994147,None,None,None,,,,,,,22,19,female,22,2022_May_11_1033,Partial repeat,2021.2.3,59.8937967102657,
7,2,0,1,3,3,2,1,1,1,1,0,1,0,0,0,127,127,127,,,,,,,,,,,,,,,,,,,,,,,,,,,,,,22,19,female,22,2022_May_11_1033,Partial repeat,2021.2.3,59.8937967102657,
5,5,0,1,3,3,1,1,0,1,1,1,0,1,0,0,128,128,128,0,0,0,0,,,,,,,1734.956819999963,None,1737.345480799675,None,1738.0758010987192,None,l,1,1.057896999642253,1738.0758010987192,None,None,None,,,,,,,22,19,female,22,2022_May_11_1033,Partial repeat,2021.2.3,59.8937967102657,
5,5,0,1,3,3,1,1,0,1,1,1,0,1,0,0,128,128,128,1,0,1,0,,,,,,,,,1739.1418916992843,None,1739.9465140998363,None,s,1,0.4831629004329443,1739.9465140998363,None,None,None,,,,,,,22,19,female,22,2022_May_11_1033,Partial repeat,2021.2.3,59.8937967102657,
5,5,0,1,3,3,1,1,0,1,1,1,0,1,0,0,128,128,128,,,,,,,,,,,,,,,,,,,,,,,,,,,,,,22,19,female,22,2022_May_11_1033,Partial repeat,2021.2.3,59.8937967102657,
5,5,0,1,2,2,1,1,1,0,1,1,0,1,0,0,129,129,129,0,0,0,0,,,,,,,1740.4555108994246,None,1741.4868703000247,None,1742.234312498942,None,s,1,0.5313900001347065,1742.234312498942,None,None,None,,,,,,,22,19,female,22,2022_May_11_1033,Partial repeat,2021.2.3,59.8937967102657,
5,5,0,1,2,2,1,1,1,0,1,1,0,1,0,0,129,129,129,1,0,1,0,,,,,,,,,1742.7784435991198,None,1743.5208018999547,None,l,1,0.5009227991104126,1743.5208018999547,None,None,None,,,,,,,22,19,female,22,2022_May_11_1033,Partial repeat,2021.2.3,59.8937967102657,
5,5,0,1,2,2,1,1,1,0,1,1,0,1,0,0,129,129,129,,,,,,,,,,,,,,,,,,,,,,,,,,,,,,22,19,female,22,2022_May_11_1033,Partial repeat,2021.2.3,59.8937967102657,
5,5,0,1,3,3,2,2,1,1,1,1,1,1,0,0,130,130,130,0,0,0,0,,,,,,,1744.045509999618,None,1744.4426220990717,None,1745.2734746988863,None,s,1,0.6443286016583443,1745.2734746988863,None,None,None,,,,,,,22,19,female,22,2022_May_11_1033,Partial repeat,2021.2.3,59.8937967102657,
5,5,0,1,3,3,2,2,1,1,1,1,1,1,0,0,130,130,130,1,0,1,0,,,,,,,,,1745.9286492988467,None,1746.8772746995091,None,s,1,0.5445604994893074,1746.8772746995091,None,None,None,,,,,,,22,19,female,22,2022_May_11_1033,Partial repeat,2021.2.3,59.8937967102657,
5,5,0,1,3,3,2,2,1,1,1,1,1,1,0,0,130,130,130,,,,,,,,,,,,,,,,,,,,,,,,,,,,,,22,19,female,22,2022_May_11_1033,Partial repeat,2021.2.3,59.8937967102657,
5,5,0,1,3,2,1,2,0,1,0,0,0,1,0,0,131,131,131,0,0,0,0,,,,,,,1747.4335954990238,None,1747.9661385994405,None,1748.829869600013,None,l,1,0.5358662996441126,1748.829869600013,None,None,None,,,,,,,22,19,female,22,2022_May_11_1033,Partial repeat,2021.2.3,59.8937967102657,
5,5,0,1,3,2,1,2,0,1,0,0,0,1,0,0,131,131,131,1,0,1,0,,,,,,,,,1749.37382959947,None,1750.2829109989107,None,s,1,0.6907810010015965,1750.2829109989107,None,None,None,,,,,,,22,19,female,22,2022_May_11_1033,Partial repeat,2021.2.3,59.8937967102657,
5,5,0,1,3,2,1,2,0,1,0,0,0,1,0,0,131,131,131,,,,,,,,,,,,,,,,,,,,,,,,,,,,,,22,19,female,22,2022_May_11_1033,Partial repeat,2021.2.3,59.8937967102657,
5,5,0,1,2,2,1,2,1,0,1,0,0,1,0,0,132,132,132,0,0,0,0,,,,,,,1751.0004854984581,None,1751.4896668996662,None,1752.386932298541,None,s,1,0.6188771985471249,1752.386932298541,None,None,None,,,,,,,22,19,female,22,2022_May_11_1033,Partial repeat,2021.2.3,59.8937967102657,
5,5,0,1,2,2,1,2,1,0,1,0,0,1,0,0,132,132,132,1,0,1,0,,,,,,,,,1753.0347687993199,None,1753.7900513000786,None,l,1,0.5916457008570433,1753.7900513000786,None,None,None,,,,,,,22,19,female,22,2022_May_11_1033,Partial repeat,2021.2.3,59.8937967102657,
5,5,0,1,2,2,1,2,1,0,1,0,0,1,0,0,132,132,132,,,,,,,,,,,,,,,,,,,,,,,,,,,,,,22,19,female,22,2022_May_11_1033,Partial repeat,2021.2.3,59.8937967102657,
5,5,0,1,3,2,1,2,1,1,0,0,1,1,0,0,133,133,133,0,0,0,0,,,,,,,1754.3998409993947,None,1754.9296875987202,None,1755.86044799909,None,s,1,0.505214300006628,1755.86044799909,None,None,None,,,,,,,22,19,female,22,2022_May_11_1033,Partial repeat,2021.2.3,59.8937967102657,
5,5,0,1,3,2,1,2,1,1,0,0,1,1,0,0,133,133,133,1,0,1,0,,,,,,,,,1756.3785250000656,None,1757.1295788995922,None,s,1,0.7001149989664555,1757.1295788995922,None,None,None,,,,,,,22,19,female,22,2022_May_11_1033,Partial repeat,2021.2.3,59.8937967102657,
5,5,0,1,3,2,1,2,1,1,0,0,1,1,0,0,133,133,133,,,,,,,,,,,,,,,,,,,,,,,,,,,,,,22,19,female,22,2022_May_11_1033,Partial repeat,2021.2.3,59.8937967102657,
5,5,0,1,2,2,2,2,0,1,1,1,0,1,0,0,134,134,134,0,0,0,0,,,,,,,1757.8513254988939,None,1758.536705499515,None,1759.3855497986078,None,l,1,0.5481410995125771,1759.3855497986078,None,None,None,,,,,,,22,19,female,22,2022_May_11_1033,Partial repeat,2021.2.3,59.8937967102657,
5,5,0,1,2,2,2,2,0,1,1,1,0,1,0,0,134,134,134,1,0,1,0,,,,,,,,,1759.9504080992192,None,1760.9702841993421,None,s,1,0.5234390012919903,1760.9702841993421,None,None,None,,,,,,,22,19,female,22,2022_May_11_1033,Partial repeat,2021.2.3,59.8937967102657,
5,5,0,1,2,2,2,2,0,1,1,1,0,1,0,0,134,134,134,,,,,,,,,,,,,,,,,,,,,,,,,,,,,,22,19,female,22,2022_May_11_1033,Partial repeat,2021.2.3,59.8937967102657,
5,5,0,1,3,3,2,1,0,1,1,0,0,1,0,0,135,135,135,0,0,0,0,,,,,,,1761.5156758986413,None,1762.09357149899,None,1762.9923836998641,None,l,1,0.6613069009035826,1762.9923836998641,None,None,None,,,,,,,22,19,female,22,2022_May_11_1033,Partial repeat,2021.2.3,59.8937967102657,
5,5,0,1,3,3,2,1,0,1,1,0,0,1,0,0,135,135,135,1,0,1,0,,,,,,,,,1763.6793031990528,None,1764.560651799664,None,s,1,0.5011488012969494,1764.560651799664,None,None,None,,,,,,,22,19,female,22,2022_May_11_1033,Partial repeat,2021.2.3,59.8937967102657,
5,5,0,1,3,3,2,1,0,1,1,0,0,1,0,0,135,135,135,,,,,,,,,,,,,,,,,,,,,,,,,,,,,,22,19,female,22,2022_May_11_1033,Partial repeat,2021.2.3,59.8937967102657,
5,5,0,1,3,2,2,1,1,1,0,0,1,1,0,0,136,136,136,0,0,0,0,,,,,,,1765.0748669002205,None,1765.5670491997153,None,1766.531236199662,None,s,1,0.626485601067543,1766.531236199662,None,None,None,,,,,,,22,19,female,22,2022_May_11_1033,Partial repeat,2021.2.3,59.8937967102657,
5,5,0,1,3,2,2,1,1,1,0,0,1,1,0,0,136,136,136,1,0,1,0,,,,,,,,,1767.1823736988008,None,1768.0174536984414,None,s,1,0.5563728995621204,1768.0174536984414,None,None,None,,,,,,,22,19,female,22,2022_May_11_1033,Partial repeat,2021.2.3,59.8937967102657,
5,5,0,1,3,2,2,1,1,1,0,0,1,1,0,0,136,136,136,,,,,,,,,,,,,,,,,,,,,,,,,,,,,,22,19,female,22,2022_May_11_1033,Partial repeat,2021.2.3,59.8937967102657,
5,5,0,1,3,3,2,2,0,0,1,1,1,1,0,0,137,137,137,0,0,0,0,,,,,,,1768.5855324994773,None,1769.0404816996306,None,1769.8880960997194,None,l,1,0.5895927008241415,1769.8880960997194,None,None,None,,,,,,,22,19,female,22,2022_May_11_1033,Partial repeat,2021.2.3,59.8937967102657,
5,5,0,1,3,3,2,2,0,0,1,1,1,1,0,0,137,137,137,1,0,1,0,,,,,,,,,1770.4925792999566,None,1771.475130598992,None,l,1,0.4985842015594244,1771.475130598992,None,None,None,,,,,,,22,19,female,22,2022_May_11_1033,Partial repeat,2021.2.3,59.8937967102657,
5,5,0,1,3,3,2,2,0,0,1,1,1,1,0,0,137,137,137,,,,,,,,,,,,,,,,,,,,,,,,,,,,,,22,19,female,22,2022_May_11_1033,Partial repeat,2021.2.3,59.8937967102657,
5,5,0,1,2,3,2,2,0,1,0,1,0,1,0,0,138,138,138,0,0,0,0,,,,,,,1772.000754499808,None,1772.5139047000557,None,1773.5117463991046,None,l,1,0.669973699375987,1773.5117463991046,None,None,None,,,,,,,22,19,female,22,2022_May_11_1033,Partial repeat,2021.2.3,59.8937967102657,
5,5,0,1,2,3,2,2,0,1,0,1,0,1,0,0,138,138,138,1,0,1,0,,,,,,,,,1774.2096152994782,None,1774.9316811989993,None,s,1,0.5300046000629663,1774.9316811989993,None,None,None,,,,,,,22,19,female,22,2022_May_11_1033,Partial repeat,2021.2.3,59.8937967102657,
5,5,0,1,2,3,2,2,0,1,0,1,0,1,0,0,138,138,138,,,,,,,,,,,,,,,,,,,,,,,,,,,,,,22,19,female,22,2022_May_11_1033,Partial repeat,2021.2.3,59.8937967102657,
5,5,0,1,2,3,1,1,0,0,0,1,1,1,0,0,139,139,139,0,0,0,0,,,,,,,1775.479963298887,None,1776.0207207985222,None,1776.8011454995722,None,l,1,0.7726278007030487,1776.8011454995722,None,None,None,,,,,,,22,19,female,22,2022_May_11_1033,Partial repeat,2021.2.3,59.8937967102657,
5,5,0,1,2,3,1,1,0,0,0,1,1,1,0,0,139,139,139,1,0,1,0,,,,,,,,,1777.6013399995863,None,1778.5044835992157,None,l,1,0.5252010002732277,1778.5044835992157,None,None,None,,,,,,,22,19,female,22,2022_May_11_1033,Partial repeat,2021.2.3,59.8937967102657,
5,5,0,1,2,3,1,1,0,0,0,1,1,1,0,0,139,139,139,,,,,,,,,,,,,,,,,,,,,,,,,,,,,,22,19,female,22,2022_May_11_1033,Partial repeat,2021.2.3,59.8937967102657,
5,5,0,1,2,3,2,1,0,0,0,0,1,1,0,0,140,140,140,0,0,0,0,,,,,,,1779.0541484989226,None,1779.510819800198,None,1780.4251271001995,None,l,1,0.6045012008398771,1780.4251271001995,None,None,None,,,,,,,22,19,female,22,2022_May_11_1033,Partial repeat,2021.2.3,59.8937967102657,
5,5,0,1,2,3,2,1,0,0,0,0,1,1,0,0,140,140,140,1,0,1,0,,,,,,,,,1781.0510034989566,None,1781.894616900012,None,l,1,0.487067099660635,1781.894616900012,None,None,None,,,,,,,22,19,female,22,2022_May_11_1033,Partial repeat,2021.2.3,59.8937967102657,
5,5,0,1,2,3,2,1,0,0,0,0,1,1,0,0,140,140,140,,,,,,,,,,,,,,,,,,,,,,,,,,,,,,22,19,female,22,2022_May_11_1033,Partial repeat,2021.2.3,59.8937967102657,
5,5,0,1,2,3,1,2,0,1,0,0,0,1,0,0,141,141,141,0,0,0,0,,,,,,,1782.3981074988842,None,1782.8172944001853,None,1783.664435699582,None,l,1,0.6292441003024578,1783.664435699582,None,None,None,,,,,,,22,19,female,22,2022_May_11_1033,Partial repeat,2021.2.3,59.8937967102657,
5,5,0,1,2,3,1,2,0,1,0,0,0,1,0,0,141,141,141,1,0,1,0,,,,,,,,,1784.3124342989177,None,1785.184160899371,None,s,1,0.6215228997170925,1785.184160899371,None,None,None,,,,,,,22,19,female,22,2022_May_11_1033,Partial repeat,2021.2.3,59.8937967102657,
5,5,0,1,2,3,1,2,0,1,0,0,0,1,0,0,141,141,141,,,,,,,,,,,,,,,,,,,,,,,,,,,,,,22,19,female,22,2022_May_11_1033,Partial repeat,2021.2.3,59.8937967102657,
5,5,0,1,2,3,1,1,1,0,0,1,0,1,0,0,142,142,142,0,0,0,0,,,,,,,1785.8359267991036,None,1786.324011599645,None,1787.187983898446,None,s,1,0.5856961999088526,1787.187983898446,None,None,None,,,,,,,22,19,female,22,2022_May_11_1033,Partial repeat,2021.2.3,59.8937967102657,
5,5,0,1,2,3,1,1,1,0,0,1,0,1,0,0,142,142,142,1,0,1,0,,,,,,,,,1787.7953718993813,None,1788.5742700994015,None,l,1,0.9994025994092226,1788.5742700994015,None,None,None,,,,,,,22,19,female,22,2022_May_11_1033,Partial repeat,2021.2.3,59.8937967102657,
5,5,0,1,2,3,1,1,1,0,0,1,0,1,0,0,142,142,142,,,,,,,,,,,,,,,,,,,,,,,,,,,,,,22,19,female,22,2022_May_11_1033,Partial repeat,2021.2.3,59.8937967102657,
5,5,0,1,2,2,2,2,1,0,1,1,0,1,0,0,143,143,143,0,0,0,0,,,,,,,1789.5891971997917,None,1789.9311122000217,None,1790.9128885995597,None,s,1,0.532762199640274,1790.9128885995597,None,None,None,,,,,,,22,19,female,22,2022_May_11_1033,Partial repeat,2021.2.3,59.8937967102657,
5,5,0,1,2,2,2,2,1,0,1,1,0,1,0,0,143,143,143,1,0,1,0,,,,,,,,,1791.4539585001767,None,1792.3313205987215,None,l,1,0.6103541012853384,1792.3313205987215,None,None,None,,,,,,,22,19,female,22,2022_May_11_1033,Partial repeat,2021.2.3,59.8937967102657,
5,5,0,1,2,2,2,2,1,0,1,1,0,1,0,0,143,143,143,,,,,,,,,,,,,,,,,,,,,,,,,,,,,,22,19,female,22,2022_May_11_1033,Partial repeat,2021.2.3,59.8937967102657,
5,5,0,1,3,3,2,1,1,1,1,0,1,1,0,0,144,144,144,0,0,0,0,,,,,,,1792.961191399023,None,1793.421238400042,None,1794.2184785995632,None,s,1,0.6671911999583244,1794.2184785995632,None,None,None,,,,,,,22,19,female,22,2022_May_11_1033,Partial repeat,2021.2.3,59.8937967102657,
5,5,0,1,3,3,2,1,1,1,1,0,1,1,0,0,144,144,144,1,0,1,0,,,,,,,,,1794.9098514001817,None,1795.7555793002248,None,s,1,0.4820913001894951,1795.7555793002248,None,None,None,,,,,,,22,19,female,22,2022_May_11_1033,Partial repeat,2021.2.3,59.8937967102657,
5,5,0,1,3,3,2,1,1,1,1,0,1,1,0,0,144,144,144,,,,,,,,,,,,,,,,,,,,,,,,,,,,,,22,19,female,22,2022_May_11_1033,Partial repeat,2021.2.3,59.8937967102657,
5,5,0,1,2,3,2,1,1,0,0,0,0,1,0,0,145,145,145,0,0,0,0,,,,,,,1796.261283800006,None,1796.7610034998506,None,1797.5917157996446,None,s,1,0.5259686000645161,1797.5917157996446,None,None,None,,,,,,,22,19,female,22,2022_May_11_1033,Partial repeat,2021.2.3,59.8937967102657,
5,5,0,1,2,3,2,1,1,0,0,0,0,1,0,0,145,145,145,1,0,1,0,,,,,,,,,1798.1305700000376,None,1798.994246199727,None,l,1,0.7554494999349117,1798.994246199727,None,None,None,,,,,,,22,19,female,22,2022_May_11_1033,Partial repeat,2021.2.3,59.8937967102657,
5,5,0,1,2,3,2,1,1,0,0,0,0,1,0,0,145,145,145,,,,,,,,,,,,,,,,,,,,,,,,,,,,,,22,19,female,22,2022_May_11_1033,Partial repeat,2021.2.3,59.8937967102657,
5,5,0,1,2,2,2,1,1,0,1,0,0,1,0,0,146,146,146,0,0,0,0,,,,,,,1799.7615123987198,None,1800.2511701993644,None,1801.0985335987061,None,s,1,0.5711711011826992,1801.0985335987061,None,None,None,,,,,,,22,19,female,22,2022_May_11_1033,Partial repeat,2021.2.3,59.8937967102657,
5,5,0,1,2,2,2,1,1,0,1,0,0,1,0,0,146,146,146,1,0,1,0,,,,,,,,,1801.6790091991425,None,1802.5678434986621,None,l,1,0.5818408988416195,1802.5678434986621,None,None,None,,,,,,,22,19,female,22,2022_May_11_1033,Partial repeat,2021.2.3,59.8937967102657,
5,5,0,1,2,2,2,1,1,0,1,0,0,1,0,0,146,146,146,,,,,,,,,,,,,,,,,,,,,,,,,,,,,,22,19,female,22,2022_May_11_1033,Partial repeat,2021.2.3,59.8937967102657,
5,5,0,1,3,2,2,2,1,0,0,1,0,1,0,0,147,147,147,0,0,0,0,,,,,,,1803.1785279996693,None,1803.6578214988112,None,1804.6052681989968,None,s,1,0.49647700041532516,1804.6052681989968,None,None,None,,,,,,,22,19,female,22,2022_May_11_1033,Partial repeat,2021.2.3,59.8937967102657,
5,5,0,1,3,2,2,2,1,0,0,1,0,1,0,0,147,147,147,1,0,1,0,,,,,,,,,1805.1111977994442,None,1806.041290000081,None,l,1,0.5564266983419657,1806.041290000081,None,None,None,,,,,,,22,19,female,22,2022_May_11_1033,Partial repeat,2021.2.3,59.8937967102657,
5,5,0,1,3,2,2,2,1,0,0,1,0,1,0,0,147,147,147,,,,,,,,,,,,,,,,,,,,,,,,,,,,,,22,19,female,22,2022_May_11_1033,Partial repeat,2021.2.3,59.8937967102657,
5,5,0,1,2,3,2,2,0,0,0,1,1,1,0,0,148,148,148,0,0,0,0,,,,,,,1806.6087425984442,None,1807.16433419846,None,1807.9291674997658,None,l,1,0.6525012999773026,1807.9291674997658,None,None,None,,,,,,,22,19,female,22,2022_May_11_1033,Partial repeat,2021.2.3,59.8937967102657,
5,5,0,1,2,3,2,2,0,0,0,1,1,1,0,0,148,148,148,1,0,1,0,,,,,,,,,1808.6024449001998,None,1809.5815360993147,None,l,1,0.5281301997601986,1809.5815360993147,None,None,None,,,,,,,22,19,female,22,2022_May_11_1033,Partial repeat,2021.2.3,59.8937967102657,
5,5,0,1,2,3,2,2,0,0,0,1,1,1,0,0,148,148,148,,,,,,,,,,,,,,,,,,,,,,,,,,,,,,22,19,female,22,2022_May_11_1033,Partial repeat,2021.2.3,59.8937967102657,
5,5,0,1,2,3,1,1,0,1,0,1,0,1,0,0,149,149,149,0,0,0,0,,,,,,,1810.1313469987363,None,1810.7549553997815,None,1811.7358575984836,None,l,1,0.5018162000924349,1811.7358575984836,None,None,None,,,,,,,22,19,female,22,2022_May_11_1033,Partial repeat,2021.2.3,59.8937967102657,
5,5,0,1,2,3,1,1,0,1,0,1,0,1,0,0,149,149,149,1,0,1,0,,,,,,,,,1812.255416398868,None,1813.2388638984412,None,s,1,0.5267936009913683,1813.2388638984412,None,None,None,,,,,,,22,19,female,22,2022_May_11_1033,Partial repeat,2021.2.3,59.8937967102657,
5,5,0,1,2,3,1,1,0,1,0,1,0,1,0,0,149,149,149,,,,,,,,,,,,,,,,,,,,,,,,,,,,,,22,19,female,22,2022_May_11_1033,Partial repeat,2021.2.3,59.8937967102657,
5,5,0,1,2,3,2,2,1,0,0,1,0,1,0,0,150,150,150,0,0,0,0,,,,,,,1813.7873328998685,None,1814.2450778000057,None,1815.2429548986256,None,s,1,0.5066823996603489,1815.2429548986256,None,None,None,,,,,,,22,19,female,22,2022_May_11_1033,Partial repeat,2021.2.3,59.8937967102657,
5,5,0,1,2,3,2,2,1,0,0,1,0,1,0,0,150,150,150,1,0,1,0,,,,,,,,,1815.7662391997874,None,1816.6286094002426,None,l,1,0.41705690138041973,1816.6286094002426,None,None,None,,,,,,,22,19,female,22,2022_May_11_1033,Partial repeat,2021.2.3,59.8937967102657,
5,5,0,1,2,3,2,2,1,0,0,1,0,1,0,0,150,150,150,,,,,,,,,,,,,,,,,,,,,,,,,,,,,,22,19,female,22,2022_May_11_1033,Partial repeat,2021.2.3,59.8937967102657,
