prime_tar_pos,probe_tar_pos,dimension,tar_color,prime_dist_color,probe_dist_color,prime_dist_shape,probe_dist_shape,prime_tar_dot_pos,probe_tar_dot_pos,col_rep,shape_rep,resp_rep,pos_fixed,sparse,MainLoop.thisRepN,MainLoop.thisTrialN,MainLoop.thisN,MainLoop.thisIndex,PrimeProbe.thisRepN,PrimeProbe.thisTrialN,PrimeProbe.thisN,PrimeProbe.thisIndex,Instruction.started,Instruction.stopped,instruction_key.keys,instruction_key.rt,instruction_key.started,instruction_key.stopped,PairStartText.started,PairStartText.stopped,FixCross.started,FixCross.stopped,SearchFixCross.started,SearchFixCross.stopped,key_resp.keys,key_resp.corr,key_resp.rt,key_resp.started,key_resp.stopped,feedback_text.started,feedback_text.stopped,text_finish.started,text_finish.stopped,finish_key.keys,finish_key.rt,finish_key.started,finish_key.stopped,participant,age,gender,group,date,expName,psychopyVersion,frameRate,
,,,,,,,,,,,,,,,,,,,,,,,596.322451300919,None,space,43.90852529928088,596.322451300919,None,,,,,,,,,,,,,,,,,,,,23,21,female,23,2022_May_11_1501,Partial repeat,2021.2.3,59.8947642512972,
7,3,0,1,2,2,1,1,1,0,1,1,0,0,0,0,0,0,0,0,0,0,0,,,,,,,641.8551541008055,None,645.3614739011973,None,646.1457011010498,None,l,0,0.9970603995025158,646.1457011010498,None,647.1668982002884,None,,,,,,,23,21,female,23,2022_May_11_1501,Partial repeat,2021.2.3,59.8947642512972,
7,3,0,1,2,2,1,1,1,0,1,1,0,0,0,0,0,0,0,1,0,1,0,,,,,,,,,647.6660511009395,None,648.6800648011267,None,l,1,0.7507757991552353,648.6800648011267,None,None,None,,,,,,,23,21,female,23,2022_May_11_1501,Partial repeat,2021.2.3,59.8947642512972,
7,3,0,1,2,2,1,1,1,0,1,1,0,0,0,0,0,0,0,,,,,,,,,,,,,,,,,,,,,,,,,,,,,,23,21,female,23,2022_May_11_1501,Partial repeat,2021.2.3,59.8947642512972,
5,5,0,1,2,2,2,1,0,1,1,0,0,0,0,0,1,1,1,0,0,0,0,,,,,,,649.4422917999327,None,651.5903504006565,None,652.521207600832,None,s,0,0.7495435997843742,652.521207600832,None,653.2894417010248,None,,,,,,,23,21,female,23,2022_May_11_1501,Partial repeat,2021.2.3,59.8947642512972,
5,5,0,1,2,2,2,1,0,1,1,0,0,0,0,0,1,1,1,1,0,1,0,,,,,,,,,653.7946017012,None,654.5914543997496,None,s,1,0.7592433989048004,654.5914543997496,None,None,None,,,,,,,23,21,female,23,2022_May_11_1501,Partial repeat,2021.2.3,59.8947642512972,
5,5,0,1,2,2,2,1,0,1,1,0,0,0,0,0,1,1,1,,,,,,,,,,,,,,,,,,,,,,,,,,,,,,23,21,female,23,2022_May_11_1501,Partial repeat,2021.2.3,59.8947642512972,
3,8,0,1,2,3,2,2,0,0,0,1,1,0,0,0,2,2,2,0,0,0,0,,,,,,,655.3690552003682,None,656.3830155003816,None,657.3635892998427,None,s,0,1.2991896998137236,657.3635892998427,None,658.6816426999867,None,,,,,,,23,21,female,23,2022_May_11_1501,Partial repeat,2021.2.3,59.8947642512972,
3,8,0,1,2,3,2,2,0,0,0,1,1,0,0,0,2,2,2,1,0,1,0,,,,,,,,,659.1884573996067,None,660.1024062000215,None,l,1,1.5925842002034187,660.1024062000215,None,None,None,,,,,,,23,21,female,23,2022_May_11_1501,Partial repeat,2021.2.3,59.8947642512972,
3,8,0,1,2,3,2,2,0,0,0,1,1,0,0,0,2,2,2,,,,,,,,,,,,,,,,,,,,,,,,,,,,,,23,21,female,23,2022_May_11_1501,Partial repeat,2021.2.3,59.8947642512972,
6,5,0,1,2,2,2,2,0,1,1,1,0,0,0,0,3,3,3,0,0,0,0,,,,,,,661.706733500585,None,664.1982317008078,None,665.0452800001949,None,l,1,0.6975136008113623,665.0452800001949,None,None,None,,,,,,,23,21,female,23,2022_May_11_1501,Partial repeat,2021.2.3,59.8947642512972,
6,5,0,1,2,2,2,2,0,1,1,1,0,0,0,0,3,3,3,1,0,1,0,,,,,,,,,665.770950101316,None,666.6650141011924,None,s,1,0.6057040002197027,666.6650141011924,None,None,None,,,,,,,23,21,female,23,2022_May_11_1501,Partial repeat,2021.2.3,59.8947642512972,
6,5,0,1,2,2,2,2,0,1,1,1,0,0,0,0,3,3,3,,,,,,,,,,,,,,,,,,,,,,,,,,,,,,23,21,female,23,2022_May_11_1501,Partial repeat,2021.2.3,59.8947642512972,
1,8,0,1,3,2,1,1,1,0,0,1,0,0,0,0,4,4,4,0,0,0,0,,,,,,,667.2911929003894,None,668.373019400984,None,669.2702706996351,None,s,1,0.8405099008232355,669.2702706996351,None,None,None,,,,,,,23,21,female,23,2022_May_11_1501,Partial repeat,2021.2.3,59.8947642512972,
1,8,0,1,3,2,1,1,1,0,0,1,0,0,0,0,4,4,4,1,0,1,0,,,,,,,,,670.1277275010943,None,670.9566687010229,None,l,1,0.6821554992347956,670.9566687010229,None,None,None,,,,,,,23,21,female,23,2022_May_11_1501,Partial repeat,2021.2.3,59.8947642512972,
1,8,0,1,3,2,1,1,1,0,0,1,0,0,0,0,4,4,4,,,,,,,,,,,,,,,,,,,,,,,,,,,,,,23,21,female,23,2022_May_11_1501,Partial repeat,2021.2.3,59.8947642512972,
4,6,0,1,2,3,2,1,1,1,0,0,1,0,0,0,5,5,5,0,0,0,0,,,,,,,671.667779000476,None,673.065483700484,None,673.9463071003556,None,s,1,0.67652009986341,673.9463071003556,None,None,None,,,,,,,23,21,female,23,2022_May_11_1501,Partial repeat,2021.2.3,59.8947642512972,
4,6,0,1,2,3,2,1,1,1,0,0,1,0,0,0,5,5,5,1,0,1,0,,,,,,,,,674.6348583009094,None,675.4990954007953,None,s,1,0.6197468005120754,675.4990954007953,None,None,None,,,,,,,23,21,female,23,2022_May_11_1501,Partial repeat,2021.2.3,59.8947642512972,
4,6,0,1,2,3,2,1,1,1,0,0,1,0,0,0,5,5,5,,,,,,,,,,,,,,,,,,,,,,,,,,,,,,23,21,female,23,2022_May_11_1501,Partial repeat,2021.2.3,59.8947642512972,
5,3,0,1,2,2,1,1,1,1,1,1,1,0,0,0,6,6,6,0,0,0,0,,,,,,,676.1430021002889,None,677.0899877008051,None,678.003793399781,None,s,1,0.6589895002543926,678.003793399781,None,None,None,,,,,,,23,21,female,23,2022_May_11_1501,Partial repeat,2021.2.3,59.8947642512972,
5,3,0,1,2,2,1,1,1,1,1,1,1,0,0,0,6,6,6,1,0,1,0,,,,,,,,,678.6866370998323,None,679.6238727997988,None,s,1,0.6629540007561445,679.6238727997988,None,None,None,,,,,,,23,21,female,23,2022_May_11_1501,Partial repeat,2021.2.3,59.8947642512972,
5,3,0,1,2,2,1,1,1,1,1,1,1,0,0,0,6,6,6,,,,,,,,,,,,,,,,,,,,,,,,,,,,,,23,21,female,23,2022_May_11_1501,Partial repeat,2021.2.3,59.8947642512972,
6,4,0,1,3,3,1,1,0,1,1,1,0,0,0,0,7,7,7,0,0,0,0,,,,,,,680.3154888004065,None,681.6822469010949,None,682.5627759005874,None,l,1,0.8279921989887953,682.5627759005874,None,None,None,,,,,,,23,21,female,23,2022_May_11_1501,Partial repeat,2021.2.3,59.8947642512972,
6,4,0,1,3,3,1,1,0,1,1,1,0,0,0,0,7,7,7,1,0,1,0,,,,,,,,,683.4184211995453,None,684.3503806013614,None,s,1,0.6723595000803471,684.3503806013614,None,None,None,,,,,,,23,21,female,23,2022_May_11_1501,Partial repeat,2021.2.3,59.8947642512972,
6,4,0,1,3,3,1,1,0,1,1,1,0,0,0,0,7,7,7,,,,,,,,,,,,,,,,,,,,,,,,,,,,,,23,21,female,23,2022_May_11_1501,Partial repeat,2021.2.3,59.8947642512972,
1,6,0,1,2,2,1,1,0,0,1,1,1,0,0,0,8,8,8,0,0,0,0,,,,,,,685.0411313008517,None,686.9257631003857,None,687.8063828013837,None,s,0,0.6163923013955355,687.8063828013837,None,688.4361824002117,None,,,,,,,23,21,female,23,2022_May_11_1501,Partial repeat,2021.2.3,59.8947642512972,
1,6,0,1,2,2,1,1,0,0,1,1,1,0,0,0,8,8,8,1,0,1,0,,,,,,,,,688.9464228004217,None,689.6933800000697,None,l,1,0.777394499629736,689.6933800000697,None,None,None,,,,,,,23,21,female,23,2022_May_11_1501,Partial repeat,2021.2.3,59.8947642512972,
1,6,0,1,2,2,1,1,0,0,1,1,1,0,0,0,8,8,8,,,,,,,,,,,,,,,,,,,,,,,,,,,,,,23,21,female,23,2022_May_11_1501,Partial repeat,2021.2.3,59.8947642512972,
4,7,0,1,3,2,2,2,0,1,0,1,0,0,0,0,9,9,9,0,0,0,0,,,,,,,690.4936622995883,None,692.8706178013235,None,693.8678131010383,None,l,1,1.5710136983543634,693.8678131010383,None,None,None,,,,,,,23,21,female,23,2022_May_11_1501,Partial repeat,2021.2.3,59.8947642512972,
4,7,0,1,3,2,2,2,0,1,0,1,0,0,0,0,9,9,9,1,0,1,0,,,,,,,,,695.4602036997676,None,696.2562349997461,None,s,1,0.5425078999251127,696.2562349997461,None,None,None,,,,,,,23,21,female,23,2022_May_11_1501,Partial repeat,2021.2.3,59.8947642512972,
4,7,0,1,3,2,2,2,0,1,0,1,0,0,0,0,9,9,9,,,,,,,,,,,,,,,,,,,,,,,,,,,,,,23,21,female,23,2022_May_11_1501,Partial repeat,2021.2.3,59.8947642512972,
8,6,0,1,2,3,2,1,0,1,0,0,0,0,0,0,10,10,10,0,0,0,0,,,,,,,696.8214867003262,None,698.3145992010832,None,699.1809394005686,None,s,0,0.7219440005719662,699.1809394005686,None,699.9125079996884,None,,,,,,,23,21,female,23,2022_May_11_1501,Partial repeat,2021.2.3,59.8947642512972,
8,6,0,1,2,3,2,1,0,1,0,0,0,0,0,0,10,10,10,1,0,1,0,,,,,,,,,700.4186959005892,None,701.4169784002006,None,s,1,0.7817599009722471,701.4169784002006,None,None,None,,,,,,,23,21,female,23,2022_May_11_1501,Partial repeat,2021.2.3,59.8947642512972,
8,6,0,1,2,3,2,1,0,1,0,0,0,0,0,0,10,10,10,,,,,,,,,,,,,,,,,,,,,,,,,,,,,,23,21,female,23,2022_May_11_1501,Partial repeat,2021.2.3,59.8947642512972,
3,7,0,1,2,2,1,2,0,0,1,0,1,0,0,0,11,11,11,0,0,0,0,,,,,,,702.2174511998892,None,703.4245184008032,None,704.2892422005534,None,l,1,0.8215363007038832,704.2892422005534,None,None,None,,,,,,,23,21,female,23,2022_May_11_1501,Partial repeat,2021.2.3,59.8947642512972,
3,7,0,1,2,2,1,2,0,0,1,0,1,0,0,0,11,11,11,1,0,1,0,,,,,,,,,705.1230448000133,None,705.9915602002293,None,l,1,0.943215899169445,705.9915602002293,None,None,None,,,,,,,23,21,female,23,2022_May_11_1501,Partial repeat,2021.2.3,59.8947642512972,
3,7,0,1,2,2,1,2,0,0,1,0,1,0,0,0,11,11,11,,,,,,,,,,,,,,,,,,,,,,,,,,,,,,23,21,female,23,2022_May_11_1501,Partial repeat,2021.2.3,59.8947642512972,
1,4,0,1,3,2,2,1,1,1,0,0,1,0,0,0,12,12,12,0,0,0,0,,,,,,,706.9636196009815,None,708.3841827008873,None,709.2645478006452,None,l,0,0.8621503002941608,709.2645478006452,None,710.140661900863,None,,,,,,,23,21,female,23,2022_May_11_1501,Partial repeat,2021.2.3,59.8947642512972,
1,4,0,1,3,2,2,1,1,1,0,0,1,0,0,0,12,12,12,1,0,1,0,,,,,,,,,710.6551831997931,None,711.5357515998185,None,s,1,0.6069937013089657,711.5357515998185,None,None,None,,,,,,,23,21,female,23,2022_May_11_1501,Partial repeat,2021.2.3,59.8947642512972,
1,4,0,1,3,2,2,1,1,1,0,0,1,0,0,0,12,12,12,,,,,,,,,,,,,,,,,,,,,,,,,,,,,,23,21,female,23,2022_May_11_1501,Partial repeat,2021.2.3,59.8947642512972,
8,1,0,1,2,3,1,1,1,1,0,1,1,0,0,0,13,13,13,0,0,0,0,,,,,,,712.1627792995423,None,714.3791873008013,None,715.2261963002384,None,s,1,0.6205202005803585,715.2261963002384,None,None,None,,,,,,,23,21,female,23,2022_May_11_1501,Partial repeat,2021.2.3,59.8947642512972,
8,1,0,1,2,3,1,1,1,1,0,1,1,0,0,0,13,13,13,1,0,1,0,,,,,,,,,715.8712434004992,None,716.6623635999858,None,s,1,0.6484271008521318,716.6623635999858,None,None,None,,,,,,,23,21,female,23,2022_May_11_1501,Partial repeat,2021.2.3,59.8947642512972,
8,1,0,1,2,3,1,1,1,1,0,1,1,0,0,0,13,13,13,,,,,,,,,,,,,,,,,,,,,,,,,,,,,,23,21,female,23,2022_May_11_1501,Partial repeat,2021.2.3,59.8947642512972,
3,4,0,1,3,2,1,2,1,0,0,0,0,0,0,0,14,14,14,0,0,0,0,,,,,,,717.3352502007037,None,718.3368606008589,None,719.1340639013797,None,s,1,0.5446780994534492,719.1340639013797,None,None,None,,,,,,,23,21,female,23,2022_May_11_1501,Partial repeat,2021.2.3,59.8947642512972,
3,4,0,1,3,2,1,2,1,0,0,0,0,0,0,0,14,14,14,1,0,1,0,,,,,,,,,719.6938027013093,None,720.4865947011858,None,l,1,1.112160500138998,720.4865947011858,None,None,None,,,,,,,23,21,female,23,2022_May_11_1501,Partial repeat,2021.2.3,59.8947642512972,
3,4,0,1,3,2,1,2,1,0,0,0,0,0,0,0,14,14,14,,,,,,,,,,,,,,,,,,,,,,,,,,,,,,23,21,female,23,2022_May_11_1501,Partial repeat,2021.2.3,59.8947642512972,
1,2,0,1,2,3,2,2,0,1,0,1,0,0,0,0,15,15,15,0,0,0,0,,,,,,,721.6090207006782,None,722.7621827013791,None,723.542592400685,None,l,1,1.2162273991852999,723.542592400685,None,None,None,,,,,,,23,21,female,23,2022_May_11_1501,Partial repeat,2021.2.3,59.8947642512972,
1,2,0,1,2,3,2,2,0,1,0,1,0,0,0,0,15,15,15,1,0,1,0,,,,,,,,,724.784744201228,None,725.5630788002163,None,s,1,0.5717837009578943,725.5630788002163,None,None,None,,,,,,,23,21,female,23,2022_May_11_1501,Partial repeat,2021.2.3,59.8947642512972,
1,2,0,1,2,3,2,2,0,1,0,1,0,0,0,0,15,15,15,,,,,,,,,,,,,,,,,,,,,,,,,,,,,,23,21,female,23,2022_May_11_1501,Partial repeat,2021.2.3,59.8947642512972,
3,1,0,1,3,2,1,1,0,0,0,1,1,0,0,0,16,16,16,0,0,0,0,,,,,,,726.1473195999861,None,727.6884201001376,None,728.6526108011603,None,l,1,1.682123800739646,728.6526108011603,None,None,None,,,,,,,23,21,female,23,2022_May_11_1501,Partial repeat,2021.2.3,59.8947642512972,
3,1,0,1,3,2,1,1,0,0,0,1,1,0,0,0,16,16,16,1,0,1,0,,,,,,,,,730.3492786008865,None,731.0911111999303,None,l,1,0.7956706006079912,731.0911111999303,None,None,None,,,,,,,23,21,female,23,2022_May_11_1501,Partial repeat,2021.2.3,59.8947642512972,
3,1,0,1,3,2,1,1,0,0,0,1,1,0,0,0,16,16,16,,,,,,,,,,,,,,,,,,,,,,,,,,,,,,23,21,female,23,2022_May_11_1501,Partial repeat,2021.2.3,59.8947642512972,
4,8,0,1,2,3,2,1,0,0,0,0,1,0,0,0,17,17,17,0,0,0,0,,,,,,,731.9038695003837,None,732.7982988003641,None,733.678850101307,None,l,1,0.6079581007361412,733.678850101307,None,None,None,,,,,,,23,21,female,23,2022_May_11_1501,Partial repeat,2021.2.3,59.8947642512972,
4,8,0,1,2,3,2,1,0,0,0,0,1,0,0,0,17,17,17,1,0,1,0,,,,,,,,,734.3155894000083,None,735.1315850000829,None,l,1,0.9392309002578259,735.1315850000829,None,None,None,,,,,,,23,21,female,23,2022_May_11_1501,Partial repeat,2021.2.3,59.8947642512972,
4,8,0,1,2,3,2,1,0,0,0,0,1,0,0,0,17,17,17,,,,,,,,,,,,,,,,,,,,,,,,,,,,,,23,21,female,23,2022_May_11_1501,Partial repeat,2021.2.3,59.8947642512972,
6,1,0,1,3,3,1,1,0,0,1,1,1,0,0,0,18,18,18,0,0,0,0,,,,,,,736.0987733006477,None,737.841520300135,None,738.6887836009264,None,l,1,1.0540353003889322,738.6887836009264,None,None,None,,,,,,,23,21,female,23,2022_May_11_1501,Partial repeat,2021.2.3,59.8947642512972,
6,1,0,1,3,3,1,1,0,0,1,1,1,0,0,0,18,18,18,1,0,1,0,,,,,,,,,739.7523446008563,None,740.5423892997205,None,l,1,0.5763747990131378,740.5423892997205,None,None,None,,,,,,,23,21,female,23,2022_May_11_1501,Partial repeat,2021.2.3,59.8947642512972,
6,1,0,1,3,3,1,1,0,0,1,1,1,0,0,0,18,18,18,,,,,,,,,,,,,,,,,,,,,,,,,,,,,,23,21,female,23,2022_May_11_1501,Partial repeat,2021.2.3,59.8947642512972,
8,5,0,1,2,3,1,2,0,1,0,0,0,0,0,0,19,19,19,0,0,0,0,,,,,,,741.1299643013626,None,741.982895500958,None,742.7631844002753,None,l,1,0.5315805990248919,742.7631844002753,None,None,None,,,,,,,23,21,female,23,2022_May_11_1501,Partial repeat,2021.2.3,59.8947642512972,
8,5,0,1,2,3,1,2,0,1,0,0,0,0,0,0,19,19,19,1,0,1,0,,,,,,,,,743.3206574004143,None,744.2492209002376,None,s,1,0.5975158009678125,744.2492209002376,None,None,None,,,,,,,23,21,female,23,2022_May_11_1501,Partial repeat,2021.2.3,59.8947642512972,
8,5,0,1,2,3,1,2,0,1,0,0,0,0,0,0,19,19,19,,,,,,,,,,,,,,,,,,,,,,,,,,,,,,23,21,female,23,2022_May_11_1501,Partial repeat,2021.2.3,59.8947642512972,
5,8,0,1,3,2,2,2,1,1,0,1,1,0,0,0,20,20,20,0,0,0,0,,,,,,,744.8585173003376,None,745.8905171006918,None,746.771050799638,None,s,1,0.6036649998277426,746.771050799638,None,None,None,,,,,,,23,21,female,23,2022_May_11_1501,Partial repeat,2021.2.3,59.8947642512972,
5,8,0,1,3,2,2,2,1,1,0,1,1,0,0,0,20,20,20,1,0,1,0,,,,,,,,,747.3965048007667,None,748.3574056010693,None,s,1,0.7533663995563984,748.3574056010693,None,None,None,,,,,,,23,21,female,23,2022_May_11_1501,Partial repeat,2021.2.3,59.8947642512972,
5,8,0,1,3,2,2,2,1,1,0,1,1,0,0,0,20,20,20,,,,,,,,,,,,,,,,,,,,,,,,,,,,,,23,21,female,23,2022_May_11_1501,Partial repeat,2021.2.3,59.8947642512972,
2,5,0,1,3,2,1,2,0,0,0,0,1,0,0,0,21,21,21,0,0,0,0,,,,,,,749.1340626999736,None,750.1320661008358,None,751.0462606009096,None,l,1,0.6485569998621941,751.0462606009096,None,None,None,,,,,,,23,21,female,23,2022_May_11_1501,Partial repeat,2021.2.3,59.8947642512972,
2,5,0,1,3,2,1,2,0,0,0,0,1,0,0,0,21,21,21,1,0,1,0,,,,,,,,,751.7085759006441,None,752.5825452003628,None,l,1,0.6321624983102083,752.5825452003628,None,None,None,,,,,,,23,21,female,23,2022_May_11_1501,Partial repeat,2021.2.3,59.8947642512972,
2,5,0,1,3,2,1,2,0,0,0,0,1,0,0,0,21,21,21,,,,,,,,,,,,,,,,,,,,,,,,,,,,,,23,21,female,23,2022_May_11_1501,Partial repeat,2021.2.3,59.8947642512972,
2,4,0,1,3,2,1,2,1,1,0,0,1,0,0,0,22,22,22,0,0,0,0,,,,,,,753.2288790009916,None,754.5907218996435,None,755.3388023003936,None,l,0,0.5719069000333548,755.3388023003936,None,755.9194393008947,None,,,,,,,23,21,female,23,2022_May_11_1501,Partial repeat,2021.2.3,59.8947642512972,
2,4,0,1,3,2,1,2,1,1,0,0,1,0,0,0,22,22,22,1,0,1,0,,,,,,,,,756.4274946004152,None,757.2912521008402,None,s,1,0.5074714999645948,757.2912521008402,None,None,None,,,,,,,23,21,female,23,2022_May_11_1501,Partial repeat,2021.2.3,59.8947642512972,
2,4,0,1,3,2,1,2,1,1,0,0,1,0,0,0,22,22,22,,,,,,,,,,,,,,,,,,,,,,,,,,,,,,23,21,female,23,2022_May_11_1501,Partial repeat,2021.2.3,59.8947642512972,
8,8,0,1,3,3,2,1,1,1,1,0,1,0,0,0,23,23,23,0,0,0,0,,,,,,,757.8103358000517,None,758.8824617005885,None,759.6960701998323,None,s,1,0.5427465997636318,759.6960701998323,None,None,None,,,,,,,23,21,female,23,2022_May_11_1501,Partial repeat,2021.2.3,59.8947642512972,
8,8,0,1,3,3,2,1,1,1,1,0,1,0,0,0,23,23,23,1,0,1,0,,,,,,,,,760.2596346996725,None,761.2159347999841,None,s,1,0.6949290987104177,761.2159347999841,None,None,None,,,,,,,23,21,female,23,2022_May_11_1501,Partial repeat,2021.2.3,59.8947642512972,
8,8,0,1,3,3,2,1,1,1,1,0,1,0,0,0,23,23,23,,,,,,,,,,,,,,,,,,,,,,,,,,,,,,23,21,female,23,2022_May_11_1501,Partial repeat,2021.2.3,59.8947642512972,
1,1,0,1,2,2,1,2,0,1,1,0,0,0,0,0,24,24,24,0,0,0,0,,,,,,,761.922664500773,None,763.5582245998085,None,764.2720713000745,None,l,1,0.734629400074482,764.2720713000745,None,None,None,,,,,,,23,21,female,23,2022_May_11_1501,Partial repeat,2021.2.3,59.8947642512972,
1,1,0,1,2,2,1,2,0,1,1,0,0,0,0,0,24,24,24,1,0,1,0,,,,,,,,,765.0260317996144,None,765.8079693000764,None,s,1,0.6946997009217739,765.8079693000764,None,None,None,,,,,,,23,21,female,23,2022_May_11_1501,Partial repeat,2021.2.3,59.8947642512972,
1,1,0,1,2,2,1,2,0,1,1,0,0,0,0,0,24,24,24,,,,,,,,,,,,,,,,,,,,,,,,,,,,,,23,21,female,23,2022_May_11_1501,Partial repeat,2021.2.3,59.8947642512972,
2,3,0,1,3,2,2,1,1,0,0,0,0,0,0,0,25,25,25,0,0,0,0,,,,,,,766.5167102012783,None,767.3988375011832,None,768.2463945001364,None,l,0,0.6324712000787258,768.2463945001364,None,768.8898240011185,None,,,,,,,23,21,female,23,2022_May_11_1501,Partial repeat,2021.2.3,59.8947642512972,
2,3,0,1,3,2,2,1,1,0,0,0,0,0,0,0,25,25,25,1,0,1,0,,,,,,,,,769.4029448013753,None,770.3503080010414,None,l,1,0.9925215002149343,770.3503080010414,None,None,None,,,,,,,23,21,female,23,2022_May_11_1501,Partial repeat,2021.2.3,59.8947642512972,
2,3,0,1,3,2,2,1,1,0,0,0,0,0,0,0,25,25,25,,,,,,,,,,,,,,,,,,,,,,,,,,,,,,23,21,female,23,2022_May_11_1501,Partial repeat,2021.2.3,59.8947642512972,
1,5,0,1,3,3,1,1,1,1,1,1,1,0,0,0,26,26,26,0,0,0,0,,,,,,,771.356231700629,None,772.0914546996355,None,772.8386116009206,None,s,1,0.5041124001145363,772.8386116009206,None,None,None,,,,,,,23,21,female,23,2022_May_11_1501,Partial repeat,2021.2.3,59.8947642512972,
1,5,0,1,3,3,1,1,1,1,1,1,1,0,0,0,26,26,26,1,0,1,0,,,,,,,,,773.3561933003366,None,774.1909028999507,None,s,1,0.559858400374651,774.1909028999507,None,None,None,,,,,,,23,21,female,23,2022_May_11_1501,Partial repeat,2021.2.3,59.8947642512972,
1,5,0,1,3,3,1,1,1,1,1,1,1,0,0,0,26,26,26,,,,,,,,,,,,,,,,,,,,,,,,,,,,,,23,21,female,23,2022_May_11_1501,Partial repeat,2021.2.3,59.8947642512972,
7,8,0,1,2,3,2,2,1,1,0,1,1,0,0,0,27,27,27,0,0,0,0,,,,,,,774.7757712006569,None,775.4479489009827,None,776.3284306004643,None,s,1,0.5343802012503147,776.3284306004643,None,None,None,,,,,,,23,21,female,23,2022_May_11_1501,Partial repeat,2021.2.3,59.8947642512972,
7,8,0,1,2,3,2,2,1,1,0,1,1,0,0,0,27,27,27,1,0,1,0,,,,,,,,,776.8855678010732,None,777.6811488009989,None,s,1,0.5736017003655434,777.6811488009989,None,None,None,,,,,,,23,21,female,23,2022_May_11_1501,Partial repeat,2021.2.3,59.8947642512972,
7,8,0,1,2,3,2,2,1,1,0,1,1,0,0,0,27,27,27,,,,,,,,,,,,,,,,,,,,,,,,,,,,,,23,21,female,23,2022_May_11_1501,Partial repeat,2021.2.3,59.8947642512972,
5,4,0,1,3,3,1,2,0,0,1,0,1,0,0,0,28,28,28,0,0,0,0,,,,,,,778.2856639996171,None,779.0884301997721,None,779.8186847008765,None,l,1,0.7160109989345074,779.8186847008765,None,None,None,,,,,,,23,21,female,23,2022_May_11_1501,Partial repeat,2021.2.3,59.8947642512972,
5,4,0,1,3,3,1,2,0,0,1,0,1,0,0,0,28,28,28,1,0,1,0,,,,,,,,,780.5483520999551,None,781.5407287012786,None,l,1,0.5460744984447956,781.5407287012786,None,None,None,,,,,,,23,21,female,23,2022_May_11_1501,Partial repeat,2021.2.3,59.8947642512972,
5,4,0,1,3,3,1,2,0,0,1,0,1,0,0,0,28,28,28,,,,,,,,,,,,,,,,,,,,,,,,,,,,,,23,21,female,23,2022_May_11_1501,Partial repeat,2021.2.3,59.8947642512972,
8,4,0,1,2,2,2,1,1,0,1,0,0,0,0,0,29,29,29,0,0,0,0,,,,,,,782.1137230005115,None,782.9125431999564,None,783.9268380999565,None,s,1,0.7119200006127357,783.9268380999565,None,None,None,,,,,,,23,21,female,23,2022_May_11_1501,Partial repeat,2021.2.3,59.8947642512972,
8,4,0,1,2,2,2,1,1,0,1,0,0,0,0,0,29,29,29,1,0,1,0,,,,,,,,,784.6542348004878,None,785.4294451009482,None,l,1,0.6413879003375769,785.4294451009482,None,None,None,,,,,,,23,21,female,23,2022_May_11_1501,Partial repeat,2021.2.3,59.8947642512972,
8,4,0,1,2,2,2,1,1,0,1,0,0,0,0,0,29,29,29,,,,,,,,,,,,,,,,,,,,,,,,,,,,,,23,21,female,23,2022_May_11_1501,Partial repeat,2021.2.3,59.8947642512972,
6,3,0,1,3,2,1,1,0,1,0,1,0,0,0,0,30,30,30,0,0,0,0,,,,,,,786.0851310007274,None,786.8535532001406,None,787.7006561998278,None,l,1,1.0261163990944624,787.7006561998278,None,None,None,,,,,,,23,21,female,23,2022_May_11_1501,Partial repeat,2021.2.3,59.8947642512972,
6,3,0,1,3,2,1,1,0,1,0,1,0,0,0,0,30,30,30,1,0,1,0,,,,,,,,,788.7408795002848,None,789.6545845996588,None,s,1,0.6241999994963408,789.6545845996588,None,None,None,,,,,,,23,21,female,23,2022_May_11_1501,Partial repeat,2021.2.3,59.8947642512972,
6,3,0,1,3,2,1,1,0,1,0,1,0,0,0,0,30,30,30,,,,,,,,,,,,,,,,,,,,,,,,,,,,,,23,21,female,23,2022_May_11_1501,Partial repeat,2021.2.3,59.8947642512972,
7,6,0,1,3,2,2,2,0,0,0,1,1,0,0,0,31,31,31,0,0,0,0,,,,,,,790.2889838013798,None,791.1786305997521,None,792.1595684010535,None,l,1,0.9831926003098488,792.1595684010535,None,None,None,,,,,,,23,21,female,23,2022_May_11_1501,Partial repeat,2021.2.3,59.8947642512972,
7,6,0,1,3,2,2,2,0,0,0,1,1,0,0,0,31,31,31,1,0,1,0,,,,,,,,,793.1603380013257,None,793.9293738007545,None,l,1,0.8534529004245996,793.9293738007545,None,None,None,,,,,,,23,21,female,23,2022_May_11_1501,Partial repeat,2021.2.3,59.8947642512972,
7,6,0,1,3,2,2,2,0,0,0,1,1,0,0,0,31,31,31,,,,,,,,,,,,,,,,,,,,,,,,,,,,,,23,21,female,23,2022_May_11_1501,Partial repeat,2021.2.3,59.8947642512972,
3,6,0,1,3,2,2,2,1,0,0,1,0,0,0,0,32,32,32,0,0,0,0,,,,,,,794.7955502010882,None,796.8062209002674,None,797.5195879004896,None,s,1,0.8312467988580465,797.5195879004896,None,None,None,,,,,,,23,21,female,23,2022_May_11_1501,Partial repeat,2021.2.3,59.8947642512972,
3,6,0,1,3,2,2,2,1,0,0,1,0,0,0,0,32,32,32,1,0,1,0,,,,,,,,,798.3744115997106,None,799.2897558007389,None,l,1,0.7010495997965336,799.2897558007389,None,None,None,,,,,,,23,21,female,23,2022_May_11_1501,Partial repeat,2021.2.3,59.8947642512972,
3,6,0,1,3,2,2,2,1,0,0,1,0,0,0,0,32,32,32,,,,,,,,,,,,,,,,,,,,,,,,,,,,,,23,21,female,23,2022_May_11_1501,Partial repeat,2021.2.3,59.8947642512972,
7,5,0,1,3,3,2,1,1,0,1,0,0,0,0,0,33,33,33,0,0,0,0,,,,,,,800.0020863004029,None,800.8307588007301,None,801.5941903013736,None,l,0,0.67664710059762,801.5941903013736,None,802.2991960998625,None,,,,,,,23,21,female,23,2022_May_11_1501,Partial repeat,2021.2.3,59.8947642512972,
7,5,0,1,3,3,2,1,1,0,1,0,0,0,0,0,33,33,33,1,0,1,0,,,,,,,,,802.8012480009347,None,803.5646860003471,None,l,1,0.8180387001484632,803.5646860003471,None,None,None,,,,,,,23,21,female,23,2022_May_11_1501,Partial repeat,2021.2.3,59.8947642512972,
7,5,0,1,3,3,2,1,1,0,1,0,0,0,0,0,33,33,33,,,,,,,,,,,,,,,,,,,,,,,,,,,,,,23,21,female,23,2022_May_11_1501,Partial repeat,2021.2.3,59.8947642512972,
4,1,0,1,3,2,1,1,1,1,0,1,1,0,0,0,34,34,34,0,0,0,0,,,,,,,804.4040390998125,None,805.239326801151,None,806.2373438011855,None,l,0,0.6415087003260851,806.2373438011855,None,806.9071306996047,None,,,,,,,23,21,female,23,2022_May_11_1501,Partial repeat,2021.2.3,59.8947642512972,
4,1,0,1,3,2,1,1,1,1,0,1,1,0,0,0,34,34,34,1,0,1,0,,,,,,,,,807.4101580996066,None,808.1569807007909,None,s,1,0.6098088007420301,808.1569807007909,None,None,None,,,,,,,23,21,female,23,2022_May_11_1501,Partial repeat,2021.2.3,59.8947642512972,
4,1,0,1,3,2,1,1,1,1,0,1,1,0,0,0,34,34,34,,,,,,,,,,,,,,,,,,,,,,,,,,,,,,23,21,female,23,2022_May_11_1501,Partial repeat,2021.2.3,59.8947642512972,
7,4,0,1,2,2,2,2,0,0,1,1,1,0,0,0,35,35,35,0,0,0,0,,,,,,,808.7831028010696,None,809.5643921997398,None,810.5620259009302,None,l,1,0.764759499579668,810.5620259009302,None,None,None,,,,,,,23,21,female,23,2022_May_11_1501,Partial repeat,2021.2.3,59.8947642512972,
7,4,0,1,2,2,2,2,0,0,1,1,1,0,0,0,35,35,35,1,0,1,0,,,,,,,,,811.3559750001878,None,812.3653714004904,None,l,1,0.6893898993730545,812.3653714004904,None,None,None,,,,,,,23,21,female,23,2022_May_11_1501,Partial repeat,2021.2.3,59.8947642512972,
7,4,0,1,2,2,2,2,0,0,1,1,1,0,0,0,35,35,35,,,,,,,,,,,,,,,,,,,,,,,,,,,,,,23,21,female,23,2022_May_11_1501,Partial repeat,2021.2.3,59.8947642512972,
5,2,0,1,3,2,2,1,0,1,0,0,0,0,0,0,36,36,36,0,0,0,0,,,,,,,813.0793178007007,None,813.9061481002718,None,814.7698560003191,None,l,1,0.6048682983964682,814.7698560003191,None,None,None,,,,,,,23,21,female,23,2022_May_11_1501,Partial repeat,2021.2.3,59.8947642512972,
5,2,0,1,3,2,2,1,0,1,0,0,0,0,0,0,36,36,36,1,0,1,0,,,,,,,,,815.3874105010182,None,816.1561620011926,None,s,1,0.65059470012784,816.1561620011926,None,None,None,,,,,,,23,21,female,23,2022_May_11_1501,Partial repeat,2021.2.3,59.8947642512972,
5,2,0,1,3,2,2,1,0,1,0,0,0,0,0,0,36,36,36,,,,,,,,,,,,,,,,,,,,,,,,,,,,,,23,21,female,23,2022_May_11_1501,Partial repeat,2021.2.3,59.8947642512972,
6,8,0,1,2,3,1,2,1,1,0,0,1,0,0,0,37,37,37,0,0,0,0,,,,,,,816.8246328998357,None,817.6801842004061,None,818.6777037996799,None,s,1,1.1770526003092527,818.6777037996799,None,None,None,,,,,,,23,21,female,23,2022_May_11_1501,Partial repeat,2021.2.3,59.8947642512972,
6,8,0,1,2,3,1,2,1,1,0,0,1,0,0,0,37,37,37,1,0,1,0,,,,,,,,,819.8679767996073,None,820.7482569999993,None,s,1,0.5704344995319843,820.7482569999993,None,None,None,,,,,,,23,21,female,23,2022_May_11_1501,Partial repeat,2021.2.3,59.8947642512972,
6,8,0,1,2,3,1,2,1,1,0,0,1,0,0,0,37,37,37,,,,,,,,,,,,,,,,,,,,,,,,,,,,,,23,21,female,23,2022_May_11_1501,Partial repeat,2021.2.3,59.8947642512972,
6,2,0,1,2,3,2,2,1,0,0,1,0,0,0,0,38,38,38,0,0,0,0,,,,,,,821.3330237995833,None,822.6064413003623,None,823.6042091008276,None,s,1,0.5306218005716801,823.6042091008276,None,None,None,,,,,,,23,21,female,23,2022_May_11_1501,Partial repeat,2021.2.3,59.8947642512972,
6,2,0,1,2,3,2,2,1,0,0,1,0,0,0,0,38,38,38,1,0,1,0,,,,,,,,,824.1455129012465,None,825.0231913998723,None,l,1,0.7036083992570639,825.0231913998723,None,None,None,,,,,,,23,21,female,23,2022_May_11_1501,Partial repeat,2021.2.3,59.8947642512972,
6,2,0,1,2,3,2,2,1,0,0,1,0,0,0,0,38,38,38,,,,,,,,,,,,,,,,,,,,,,,,,,,,,,23,21,female,23,2022_May_11_1501,Partial repeat,2021.2.3,59.8947642512972,
2,2,0,1,2,2,2,1,1,1,1,0,1,0,0,0,39,39,39,0,0,0,0,,,,,,,825.755335200578,None,826.681024800986,None,827.4782490003854,None,l,0,0.8564729988574982,827.4782490003854,None,828.3610225003213,None,,,,,,,23,21,female,23,2022_May_11_1501,Partial repeat,2021.2.3,59.8947642512972,
2,2,0,1,2,2,2,1,1,1,1,0,1,0,0,0,39,39,39,1,0,1,0,,,,,,,,,828.8686517998576,None,829.8499742001295,None,s,1,0.6368209011852741,829.8499742001295,None,None,None,,,,,,,23,21,female,23,2022_May_11_1501,Partial repeat,2021.2.3,59.8947642512972,
2,2,0,1,2,2,2,1,1,1,1,0,1,0,0,0,39,39,39,,,,,,,,,,,,,,,,,,,,,,,,,,,,,,23,21,female,23,2022_May_11_1501,Partial repeat,2021.2.3,59.8947642512972,
4,4,0,1,2,3,1,1,0,1,0,1,0,0,0,0,40,40,40,0,0,0,0,,,,,,,830.4997164011002,None,831.5237745996565,None,832.5380333997309,None,l,1,1.0768149010837078,832.5380333997309,None,None,None,,,,,,,23,21,female,23,2022_May_11_1501,Partial repeat,2021.2.3,59.8947642512972,
4,4,0,1,2,3,1,1,0,1,0,1,0,0,0,0,40,40,40,1,0,1,0,,,,,,,,,833.622630501166,None,834.5255054999143,None,s,1,0.7292132992297411,834.5255054999143,None,None,None,,,,,,,23,21,female,23,2022_May_11_1501,Partial repeat,2021.2.3,59.8947642512972,
4,4,0,1,2,3,1,1,0,1,0,1,0,0,0,0,40,40,40,,,,,,,,,,,,,,,,,,,,,,,,,,,,,,23,21,female,23,2022_May_11_1501,Partial repeat,2021.2.3,59.8947642512972,
4,2,0,1,2,2,2,2,1,0,1,1,0,0,0,0,41,41,41,0,0,0,0,,,,,,,835.2831075005233,None,836.6670318003744,None,837.6646992005408,None,s,1,0.8861555997282267,837.6646992005408,None,None,None,,,,,,,23,21,female,23,2022_May_11_1501,Partial repeat,2021.2.3,59.8947642512972,
4,2,0,1,2,2,2,2,1,0,1,1,0,0,0,0,41,41,41,1,0,1,0,,,,,,,,,838.5614240001887,None,839.5681876000017,None,l,1,0.7345685996115208,839.5681876000017,None,None,None,,,,,,,23,21,female,23,2022_May_11_1501,Partial repeat,2021.2.3,59.8947642512972,
4,2,0,1,2,2,2,2,1,0,1,1,0,0,0,0,41,41,41,,,,,,,,,,,,,,,,,,,,,,,,,,,,,,23,21,female,23,2022_May_11_1501,Partial repeat,2021.2.3,59.8947642512972,
3,2,0,1,3,3,2,2,0,0,1,1,1,0,0,0,42,42,42,0,0,0,0,,,,,,,840.3193274009973,None,841.1090610995889,None,842.0399120002985,None,l,1,0.8308070991188288,842.0399120002985,None,None,None,,,,,,,23,21,female,23,2022_May_11_1501,Partial repeat,2021.2.3,59.8947642512972,
3,2,0,1,3,3,2,2,0,0,1,1,1,0,0,0,42,42,42,1,0,1,0,,,,,,,,,842.8918532002717,None,843.8832616005093,None,l,1,0.547486400231719,843.8832616005093,None,None,None,,,,,,,23,21,female,23,2022_May_11_1501,Partial repeat,2021.2.3,59.8947642512972,
3,2,0,1,3,3,2,2,0,0,1,1,1,0,0,0,42,42,42,,,,,,,,,,,,,,,,,,,,,,,,,,,,,,23,21,female,23,2022_May_11_1501,Partial repeat,2021.2.3,59.8947642512972,
5,7,0,1,2,2,2,2,1,1,1,1,1,0,0,0,43,43,43,0,0,0,0,,,,,,,844.4486574009061,None,845.2003974001855,None,846.0473951008171,None,s,1,0.5513597000390291,846.0473951008171,None,None,None,,,,,,,23,21,female,23,2022_May_11_1501,Partial repeat,2021.2.3,59.8947642512972,
5,7,0,1,2,2,2,2,1,1,1,1,1,0,0,0,43,43,43,1,0,1,0,,,,,,,,,846.6255307998508,None,847.6338871009648,None,s,1,0.5648080985993147,847.6338871009648,None,None,None,,,,,,,23,21,female,23,2022_May_11_1501,Partial repeat,2021.2.3,59.8947642512972,
5,7,0,1,2,2,2,2,1,1,1,1,1,0,0,0,43,43,43,,,,,,,,,,,,,,,,,,,,,,,,,,,,,,23,21,female,23,2022_May_11_1501,Partial repeat,2021.2.3,59.8947642512972,
6,6,0,1,2,3,1,2,0,0,0,0,1,0,0,0,44,44,44,0,0,0,0,,,,,,,848.215258801356,None,849.0412069000304,None,849.9382426999509,None,l,1,0.6685502007603645,849.9382426999509,None,None,None,,,,,,,23,21,female,23,2022_May_11_1501,Partial repeat,2021.2.3,59.8947642512972,
6,6,0,1,2,3,1,2,0,0,0,0,1,0,0,0,44,44,44,1,0,1,0,,,,,,,,,850.6298152003437,None,851.5260295011103,None,l,1,0.5128445010632277,851.5260295011103,None,None,None,,,,,,,23,21,female,23,2022_May_11_1501,Partial repeat,2021.2.3,59.8947642512972,
6,6,0,1,2,3,1,2,0,0,0,0,1,0,0,0,44,44,44,,,,,,,,,,,,,,,,,,,,,,,,,,,,,,23,21,female,23,2022_May_11_1501,Partial repeat,2021.2.3,59.8947642512972,
1,3,0,1,3,3,2,2,1,0,1,1,0,0,0,0,45,45,45,0,0,0,0,,,,,,,852.0680202003568,None,852.7316926997155,None,853.5957901012152,None,s,1,0.8829584009945393,853.5957901012152,None,None,None,,,,,,,23,21,female,23,2022_May_11_1501,Partial repeat,2021.2.3,59.8947642512972,
1,3,0,1,3,3,2,2,1,0,1,1,0,0,0,0,45,45,45,1,0,1,0,,,,,,,,,854.4923532996327,None,855.332497600466,None,l,1,0.6502506993710995,855.332497600466,None,None,None,,,,,,,23,21,female,23,2022_May_11_1501,Partial repeat,2021.2.3,59.8947642512972,
1,3,0,1,3,3,2,2,1,0,1,1,0,0,0,0,45,45,45,,,,,,,,,,,,,,,,,,,,,,,,,,,,,,23,21,female,23,2022_May_11_1501,Partial repeat,2021.2.3,59.8947642512972,
2,6,0,1,3,2,2,1,0,0,0,0,1,0,0,0,46,46,46,0,0,0,0,,,,,,,855.9993813000619,None,856.7895729001611,None,857.7871435005218,None,l,1,0.7635570988059044,857.7871435005218,None,None,None,,,,,,,23,21,female,23,2022_May_11_1501,Partial repeat,2021.2.3,59.8947642512972,
2,6,0,1,3,2,2,1,0,0,0,0,1,0,0,0,46,46,46,1,0,1,0,,,,,,,,,858.5745481997728,None,859.3067690003663,None,l,1,1.1880644001066685,859.3067690003663,None,None,None,,,,,,,23,21,female,23,2022_May_11_1501,Partial repeat,2021.2.3,59.8947642512972,
2,6,0,1,3,2,2,1,0,0,0,0,1,0,0,0,46,46,46,,,,,,,,,,,,,,,,,,,,,,,,,,,,,,23,21,female,23,2022_May_11_1501,Partial repeat,2021.2.3,59.8947642512972,
3,5,0,1,2,2,2,1,0,0,1,0,1,0,0,0,47,47,47,0,0,0,0,,,,,,,860.5054116006941,None,861.3651890996844,None,862.3293932005763,None,l,1,0.7093582004308701,862.3293932005763,None,None,None,,,,,,,23,21,female,23,2022_May_11_1501,Partial repeat,2021.2.3,59.8947642512972,
3,5,0,1,2,2,2,1,0,0,1,0,1,0,0,0,47,47,47,1,0,1,0,,,,,,,,,863.058592800051,None,863.9155173003674,None,l,1,0.6113484986126423,863.9155173003674,None,None,None,,,,,,,23,21,female,23,2022_May_11_1501,Partial repeat,2021.2.3,59.8947642512972,
3,5,0,1,2,2,2,1,0,0,1,0,1,0,0,0,47,47,47,,,,,,,,,,,,,,,,,,,,,,,,,,,,,,23,21,female,23,2022_May_11_1501,Partial repeat,2021.2.3,59.8947642512972,
2,7,0,1,2,3,1,1,1,0,0,1,0,0,0,0,48,48,48,0,0,0,0,,,,,,,864.5388792008162,None,865.2226315997541,None,866.070017401129,None,s,1,0.6567637007683516,866.070017401129,None,None,None,,,,,,,23,21,female,23,2022_May_11_1501,Partial repeat,2021.2.3,59.8947642512972,
2,7,0,1,2,3,1,1,1,0,0,1,0,0,0,0,48,48,48,1,0,1,0,,,,,,,,,866.7347935009748,None,867.5069626010954,None,l,1,0.6837377995252609,867.5069626010954,None,None,None,,,,,,,23,21,female,23,2022_May_11_1501,Partial repeat,2021.2.3,59.8947642512972,
2,7,0,1,2,3,1,1,1,0,0,1,0,0,0,0,48,48,48,,,,,,,,,,,,,,,,,,,,,,,,,,,,,,23,21,female,23,2022_May_11_1501,Partial repeat,2021.2.3,59.8947642512972,
8,3,0,1,3,3,1,2,1,1,1,0,1,0,0,0,49,49,49,0,0,0,0,,,,,,,868.2210205998272,None,869.4141869004816,None,870.3115303013474,None,s,1,0.5991904996335506,870.3115303013474,None,None,None,,,,,,,23,21,female,23,2022_May_11_1501,Partial repeat,2021.2.3,59.8947642512972,
8,3,0,1,3,3,1,2,1,1,1,0,1,0,0,0,49,49,49,1,0,1,0,,,,,,,,,870.9310306999832,None,871.6975921001285,None,s,1,2.4050898998975754,871.6975921001285,None,None,None,,,,,,,23,21,female,23,2022_May_11_1501,Partial repeat,2021.2.3,59.8947642512972,
8,3,0,1,3,3,1,2,1,1,1,0,1,0,0,0,49,49,49,,,,,,,,,,,,,,,,,,,,,,,,,,,,,,23,21,female,23,2022_May_11_1501,Partial repeat,2021.2.3,59.8947642512972,
1,7,0,1,3,3,2,2,1,1,1,1,1,0,0,0,50,50,50,0,0,0,0,,,,,,,874.1144664995372,None,879.48376419954,None,880.2810193002224,None,s,1,0.7177369985729456,880.2810193002224,None,None,None,,,,,,,23,21,female,23,2022_May_11_1501,Partial repeat,2021.2.3,59.8947642512972,
1,7,0,1,3,3,2,2,1,1,1,1,1,0,0,0,50,50,50,1,0,1,0,,,,,,,,,881.0274654999375,None,881.9172403011471,None,s,1,1.0254599004983902,881.9172403011471,None,None,None,,,,,,,23,21,female,23,2022_May_11_1501,Partial repeat,2021.2.3,59.8947642512972,
1,7,0,1,3,3,2,2,1,1,1,1,1,0,0,0,50,50,50,,,,,,,,,,,,,,,,,,,,,,,,,,,,,,23,21,female,23,2022_May_11_1501,Partial repeat,2021.2.3,59.8947642512972,
4,3,0,1,2,2,1,1,0,1,1,1,0,0,0,0,51,51,51,0,0,0,0,,,,,,,882.972692200914,None,884.176290800795,None,885.1903144009411,None,l,1,0.680401898920536,885.1903144009411,None,None,None,,,,,,,23,21,female,23,2022_May_11_1501,Partial repeat,2021.2.3,59.8947642512972,
4,3,0,1,2,2,1,1,0,1,1,1,0,0,0,0,51,51,51,1,0,1,0,,,,,,,,,885.8942943997681,None,886.776651000604,None,s,1,0.6380979996174574,886.776651000604,None,None,None,,,,,,,23,21,female,23,2022_May_11_1501,Partial repeat,2021.2.3,59.8947642512972,
4,3,0,1,2,2,1,1,0,1,1,1,0,0,0,0,51,51,51,,,,,,,,,,,,,,,,,,,,,,,,,,,,,,23,21,female,23,2022_May_11_1501,Partial repeat,2021.2.3,59.8947642512972,
8,7,0,1,2,2,1,2,1,1,1,0,1,0,0,0,52,52,52,0,0,0,0,,,,,,,887.4316827002913,None,888.3343136012554,None,889.3482851013541,None,s,1,1.202411299571395,889.3482851013541,None,None,None,,,,,,,23,21,female,23,2022_May_11_1501,Partial repeat,2021.2.3,59.8947642512972,
8,7,0,1,2,2,1,2,1,1,1,0,1,0,0,0,52,52,52,1,0,1,0,,,,,,,,,890.5737152006477,None,891.3358850013465,None,s,1,0.5668662991374731,891.3358850013465,None,None,None,,,,,,,23,21,female,23,2022_May_11_1501,Partial repeat,2021.2.3,59.8947642512972,
8,7,0,1,2,2,1,2,1,1,1,0,1,0,0,0,52,52,52,,,,,,,,,,,,,,,,,,,,,,,,,,,,,,23,21,female,23,2022_May_11_1501,Partial repeat,2021.2.3,59.8947642512972,
2,1,0,1,3,3,2,2,0,1,1,1,0,0,0,0,53,53,53,0,0,0,0,,,,,,,891.925078401342,None,892.9933912009001,None,893.9575465004891,None,l,1,0.6652124002575874,893.9575465004891,None,None,None,,,,,,,23,21,female,23,2022_May_11_1501,Partial repeat,2021.2.3,59.8947642512972,
2,1,0,1,3,3,2,2,0,1,1,1,0,0,0,0,53,53,53,1,0,1,0,,,,,,,,,894.6417386997491,None,895.6103911995888,None,s,1,0.6443514004349709,895.6103911995888,None,None,None,,,,,,,23,21,female,23,2022_May_11_1501,Partial repeat,2021.2.3,59.8947642512972,
2,1,0,1,3,3,2,2,0,1,1,1,0,0,0,0,53,53,53,,,,,,,,,,,,,,,,,,,,,,,,,,,,,,23,21,female,23,2022_May_11_1501,Partial repeat,2021.2.3,59.8947642512972,
5,1,0,1,2,3,2,1,1,0,0,0,0,0,0,0,54,54,54,0,0,0,0,,,,,,,896.2834857013077,None,897.1514459997416,None,897.9316998999566,None,s,1,0.7390435002744198,897.9316998999566,None,None,None,,,,,,,23,21,female,23,2022_May_11_1501,Partial repeat,2021.2.3,59.8947642512972,
5,1,0,1,2,3,2,1,1,0,0,0,0,0,0,0,54,54,54,1,0,1,0,,,,,,,,,898.6961049996316,None,899.5514550004154,None,l,1,0.7115334998816252,899.5514550004154,None,None,None,,,,,,,23,21,female,23,2022_May_11_1501,Partial repeat,2021.2.3,59.8947642512972,
5,1,0,1,2,3,2,1,1,0,0,0,0,0,0,0,54,54,54,,,,,,,,,,,,,,,,,,,,,,,,,,,,,,23,21,female,23,2022_May_11_1501,Partial repeat,2021.2.3,59.8947642512972,
7,7,0,1,2,3,1,2,1,0,0,0,0,0,0,0,55,55,55,0,0,0,0,,,,,,,900.2851209007204,None,900.8753881007433,None,901.7059902008623,None,s,1,0.6527966000139713,901.7059902008623,None,None,None,,,,,,,23,21,female,23,2022_May_11_1501,Partial repeat,2021.2.3,59.8947642512972,
7,7,0,1,2,3,1,2,1,0,0,0,0,0,0,0,55,55,55,1,0,1,0,,,,,,,,,902.3810825012624,None,903.1587768997997,None,l,1,0.6079558003693819,903.1587768997997,None,None,None,,,,,,,23,21,female,23,2022_May_11_1501,Partial repeat,2021.2.3,59.8947642512972,
7,7,0,1,2,3,1,2,1,0,0,0,0,0,0,0,55,55,55,,,,,,,,,,,,,,,,,,,,,,,,,,,,,,23,21,female,23,2022_May_11_1501,Partial repeat,2021.2.3,59.8947642512972,
8,2,0,1,3,3,1,2,1,0,1,0,0,0,0,0,56,56,56,0,0,0,0,,,,,,,903.7864370997995,None,904.41561049968,None,905.2626457009465,None,s,1,0.6400653999298811,905.2626457009465,None,None,None,,,,,,,23,21,female,23,2022_May_11_1501,Partial repeat,2021.2.3,59.8947642512972,
8,2,0,1,3,3,1,2,1,0,1,0,0,0,0,0,56,56,56,1,0,1,0,,,,,,,,,905.9251112006605,None,906.7992216013372,None,l,1,0.5995477996766567,906.7992216013372,None,None,None,,,,,,,23,21,female,23,2022_May_11_1501,Partial repeat,2021.2.3,59.8947642512972,
8,2,0,1,3,3,1,2,1,0,1,0,0,0,0,0,56,56,56,,,,,,,,,,,,,,,,,,,,,,,,,,,,,,23,21,female,23,2022_May_11_1501,Partial repeat,2021.2.3,59.8947642512972,
7,2,0,1,2,2,1,2,1,0,1,0,0,0,0,0,57,57,57,0,0,0,0,,,,,,,907.42084130086,None,908.0226415004581,None,908.7694726008922,None,s,1,0.5972470007836819,908.7694726008922,None,None,None,,,,,,,23,21,female,23,2022_May_11_1501,Partial repeat,2021.2.3,59.8947642512972,
7,2,0,1,2,2,1,2,1,0,1,0,0,0,0,0,57,57,57,1,0,1,0,,,,,,,,,909.3947961013764,None,910.2724990006536,None,l,1,0.614266999065876,910.2724990006536,None,None,None,,,,,,,23,21,female,23,2022_May_11_1501,Partial repeat,2021.2.3,59.8947642512972,
7,2,0,1,2,2,1,2,1,0,1,0,0,0,0,0,57,57,57,,,,,,,,,,,,,,,,,,,,,,,,,,,,,,23,21,female,23,2022_May_11_1501,Partial repeat,2021.2.3,59.8947642512972,
6,7,0,1,3,2,1,2,0,1,0,0,0,0,0,0,58,58,58,0,0,0,0,,,,,,,910.9026559013873,None,911.4459598008543,None,912.4606809001416,None,l,1,0.7060601990669966,912.4606809001416,None,None,None,,,,,,,23,21,female,23,2022_May_11_1501,Partial repeat,2021.2.3,59.8947642512972,
6,7,0,1,3,2,1,2,0,1,0,0,0,0,0,0,58,58,58,1,0,1,0,,,,,,,,,913.1894978005439,None,913.9795907009393,None,s,1,0.6831647995859385,913.9795907009393,None,None,None,,,,,,,23,21,female,23,2022_May_11_1501,Partial repeat,2021.2.3,59.8947642512972,
6,7,0,1,3,2,1,2,0,1,0,0,0,0,0,0,58,58,58,,,,,,,,,,,,,,,,,,,,,,,,,,,,,,23,21,female,23,2022_May_11_1501,Partial repeat,2021.2.3,59.8947642512972,
5,6,0,1,3,3,1,2,0,1,1,0,0,0,0,0,59,59,59,0,0,0,0,,,,,,,914.6893655005842,None,915.7376485001296,None,916.6024344004691,None,l,1,1.3642895985394716,916.6024344004691,None,None,None,,,,,,,23,21,female,23,2022_May_11_1501,Partial repeat,2021.2.3,59.8947642512972,
5,6,0,1,3,3,1,2,0,1,1,0,0,0,0,0,59,59,59,1,0,1,0,,,,,,,,,917.9942771010101,None,918.8891096003354,None,s,1,0.5256059002131224,918.8891096003354,None,None,None,,,,,,,23,21,female,23,2022_May_11_1501,Partial repeat,2021.2.3,59.8947642512972,
5,6,0,1,3,3,1,2,0,1,1,0,0,0,0,0,59,59,59,,,,,,,,,,,,,,,,,,,,,,,,,,,,,,23,21,female,23,2022_May_11_1501,Partial repeat,2021.2.3,59.8947642512972,
4,5,0,1,3,3,2,1,0,1,1,0,0,0,0,0,60,60,60,0,0,0,0,,,,,,,919.4325584005564,None,920.0961272995919,None,920.9933168012649,None,l,1,0.8134144991636276,920.9933168012649,None,None,None,,,,,,,23,21,female,23,2022_May_11_1501,Partial repeat,2021.2.3,59.8947642512972,
4,5,0,1,3,3,2,1,0,1,1,0,0,0,0,0,60,60,60,1,0,1,0,,,,,,,,,921.8310596998781,None,922.6129269003868,None,s,1,0.48177759908139706,922.6129269003868,None,None,None,,,,,,,23,21,female,23,2022_May_11_1501,Partial repeat,2021.2.3,59.8947642512972,
4,5,0,1,3,3,2,1,0,1,1,0,0,0,0,0,60,60,60,,,,,,,,,,,,,,,,,,,,,,,,,,,,,,23,21,female,23,2022_May_11_1501,Partial repeat,2021.2.3,59.8947642512972,
3,3,0,1,3,3,2,1,0,0,1,0,1,0,0,0,61,61,61,0,0,0,0,,,,,,,923.1116922013462,None,923.9702460002154,None,924.8843774013221,None,l,1,0.6103044003248215,924.8843774013221,None,None,None,,,,,,,23,21,female,23,2022_May_11_1501,Partial repeat,2021.2.3,59.8947642512972,
3,3,0,1,3,3,2,1,0,0,1,0,1,0,0,0,61,61,61,1,0,1,0,,,,,,,,,925.509933700785,None,926.4205641001463,None,l,1,0.6421812009066343,926.4205641001463,None,None,None,,,,,,,23,21,female,23,2022_May_11_1501,Partial repeat,2021.2.3,59.8947642512972,
3,3,0,1,3,3,2,1,0,0,1,0,1,0,0,0,61,61,61,,,,,,,,,,,,,,,,,,,,,,,,,,,,,,23,21,female,23,2022_May_11_1501,Partial repeat,2021.2.3,59.8947642512972,
7,1,0,1,3,3,1,1,1,0,1,1,0,0,0,0,62,62,62,0,0,0,0,,,,,,,927.0882385000587,None,927.827839801088,None,928.7750270012766,None,s,1,0.6237138006836176,928.7750270012766,None,None,None,,,,,,,23,21,female,23,2022_May_11_1501,Partial repeat,2021.2.3,59.8947642512972,
7,1,0,1,3,3,1,1,1,0,1,1,0,0,0,0,62,62,62,1,0,1,0,,,,,,,,,929.4182569999248,None,930.3458112999797,None,l,1,0.5731297004967928,930.3458112999797,None,None,None,,,,,,,23,21,female,23,2022_May_11_1501,Partial repeat,2021.2.3,59.8947642512972,
7,1,0,1,3,3,1,1,1,0,1,1,0,0,0,0,62,62,62,,,,,,,,,,,,,,,,,,,,,,,,,,,,,,23,21,female,23,2022_May_11_1501,Partial repeat,2021.2.3,59.8947642512972,
2,8,0,1,2,3,1,1,0,0,0,1,1,0,0,0,63,63,63,0,0,0,0,,,,,,,930.9305923003703,None,931.5851262006909,None,932.58289620094,None,l,1,0.5758492983877659,932.58289620094,None,None,None,,,,,,,23,21,female,23,2022_May_11_1501,Partial repeat,2021.2.3,59.8947642512972,
2,8,0,1,2,3,1,1,0,0,0,1,1,0,0,0,63,63,63,1,0,1,0,,,,,,,,,933.1838806997985,None,934.169169800356,None,l,1,0.6135351005941629,934.169169800356,None,None,None,,,,,,,23,21,female,23,2022_May_11_1501,Partial repeat,2021.2.3,59.8947642512972,
2,8,0,1,2,3,1,1,0,0,0,1,1,0,0,0,63,63,63,,,,,,,,,,,,,,,,,,,,,,,,,,,,,,23,21,female,23,2022_May_11_1501,Partial repeat,2021.2.3,59.8947642512972,
5,5,0,1,3,2,1,1,1,0,0,1,0,1,0,0,64,64,64,0,0,0,0,,,,,,,947.7018175013363,None,948.6348032001406,None,949.4654638003558,None,l,0,0.6612684987485409,949.4654638003558,None,950.1411325000226,None,,,,,,,23,21,female,23,2022_May_11_1501,Partial repeat,2021.2.3,59.8947642512972,
5,5,0,1,3,2,1,1,1,0,0,1,0,1,0,0,64,64,64,1,0,1,0,,,,,,,,,950.655607201159,None,951.603039899841,None,l,1,0.6277000997215509,951.603039899841,None,None,None,,,,,,,23,21,female,23,2022_May_11_1501,Partial repeat,2021.2.3,59.8947642512972,
5,5,0,1,3,2,1,1,1,0,0,1,0,1,0,0,64,64,64,,,,,,,,,,,,,,,,,,,,,,,,,,,,,,23,21,female,23,2022_May_11_1501,Partial repeat,2021.2.3,59.8947642512972,
5,5,0,1,2,3,2,1,1,1,0,0,1,1,0,0,65,65,65,0,0,0,0,,,,,,,952.2527066003531,None,955.4314603004605,None,956.3287487998605,None,s,1,0.7020254004746675,956.3287487998605,None,None,None,,,,,,,23,21,female,23,2022_May_11_1501,Partial repeat,2021.2.3,59.8947642512972,
5,5,0,1,2,3,2,1,1,1,0,0,1,1,0,0,65,65,65,1,0,1,0,,,,,,,,,957.039975900203,None,958.0320411007851,None,s,1,0.4787597991526127,958.0320411007851,None,None,None,,,,,,,23,21,female,23,2022_May_11_1501,Partial repeat,2021.2.3,59.8947642512972,
5,5,0,1,2,3,2,1,1,1,0,0,1,1,0,0,65,65,65,,,,,,,,,,,,,,,,,,,,,,,,,,,,,,23,21,female,23,2022_May_11_1501,Partial repeat,2021.2.3,59.8947642512972,
5,5,0,1,3,3,2,1,1,0,1,0,0,1,0,0,66,66,66,0,0,0,0,,,,,,,958.5338062010705,None,959.5227793008089,None,960.4035609010607,None,s,1,0.5712510999292135,960.4035609010607,None,None,None,,,,,,,23,21,female,23,2022_May_11_1501,Partial repeat,2021.2.3,59.8947642512972,
5,5,0,1,3,3,2,1,1,0,1,0,0,1,0,0,66,66,66,1,0,1,0,,,,,,,,,960.985545700416,None,961.8066769000143,None,l,1,0.6720692999660969,961.8066769000143,None,None,None,,,,,,,23,21,female,23,2022_May_11_1501,Partial repeat,2021.2.3,59.8947642512972,
5,5,0,1,3,3,2,1,1,0,1,0,0,1,0,0,66,66,66,,,,,,,,,,,,,,,,,,,,,,,,,,,,,,23,21,female,23,2022_May_11_1501,Partial repeat,2021.2.3,59.8947642512972,
5,5,0,1,2,2,1,2,1,0,1,0,0,1,0,0,67,67,67,0,0,0,0,,,,,,,962.5094844996929,None,963.1465568002313,None,963.9771320000291,None,s,1,0.5096179004758596,963.9771320000291,None,None,None,,,,,,,23,21,female,23,2022_May_11_1501,Partial repeat,2021.2.3,59.8947642512972,
5,5,0,1,2,2,1,2,1,0,1,0,0,1,0,0,67,67,67,1,0,1,0,,,,,,,,,964.4961962997913,None,965.446477400139,None,l,1,0.664308700710535,965.446477400139,None,None,None,,,,,,,23,21,female,23,2022_May_11_1501,Partial repeat,2021.2.3,59.8947642512972,
5,5,0,1,2,2,1,2,1,0,1,0,0,1,0,0,67,67,67,,,,,,,,,,,,,,,,,,,,,,,,,,,,,,23,21,female,23,2022_May_11_1501,Partial repeat,2021.2.3,59.8947642512972,
5,5,0,1,3,2,2,2,1,0,0,1,0,1,0,0,68,68,68,0,0,0,0,,,,,,,966.1376125998795,None,966.7535709999502,None,967.701085999608,None,s,1,0.46565980091691017,967.701085999608,None,None,None,,,,,,,23,21,female,23,2022_May_11_1501,Partial repeat,2021.2.3,59.8947642512972,
5,5,0,1,3,2,2,2,1,0,0,1,0,1,0,0,68,68,68,1,0,1,0,,,,,,,,,968.1791102997959,None,969.2037857007235,None,l,1,0.5149920992553234,969.2037857007235,None,None,None,,,,,,,23,21,female,23,2022_May_11_1501,Partial repeat,2021.2.3,59.8947642512972,
5,5,0,1,3,2,2,2,1,0,0,1,0,1,0,0,68,68,68,,,,,,,,,,,,,,,,,,,,,,,,,,,,,,23,21,female,23,2022_May_11_1501,Partial repeat,2021.2.3,59.8947642512972,
5,5,0,1,3,2,2,1,1,1,0,0,1,1,0,0,69,69,69,0,0,0,0,,,,,,,969.7467167004943,None,970.2937986012548,None,971.2410886995494,None,s,1,0.4136536009609699,971.2410886995494,None,None,None,,,,,,,23,21,female,23,2022_May_11_1501,Partial repeat,2021.2.3,59.8947642512972,
5,5,0,1,3,2,2,1,1,1,0,0,1,1,0,0,69,69,69,1,0,1,0,,,,,,,,,971.6725637000054,None,972.6105438005179,None,s,1,0.5641597993671894,972.6105438005179,None,None,None,,,,,,,23,21,female,23,2022_May_11_1501,Partial repeat,2021.2.3,59.8947642512972,
5,5,0,1,3,2,2,1,1,1,0,0,1,1,0,0,69,69,69,,,,,,,,,,,,,,,,,,,,,,,,,,,,,,23,21,female,23,2022_May_11_1501,Partial repeat,2021.2.3,59.8947642512972,
5,5,0,1,2,2,2,1,0,1,1,0,0,1,0,0,70,70,70,0,0,0,0,,,,,,,973.1984080001712,None,973.9342024009675,None,974.8647846002132,None,l,1,0.4619526006281376,974.8647846002132,None,None,None,,,,,,,23,21,female,23,2022_May_11_1501,Partial repeat,2021.2.3,59.8947642512972,
5,5,0,1,2,2,2,1,0,1,1,0,0,1,0,0,70,70,70,1,0,1,0,,,,,,,,,975.340864000842,None,976.2009508013725,None,s,1,0.6937819998711348,976.2009508013725,None,None,None,,,,,,,23,21,female,23,2022_May_11_1501,Partial repeat,2021.2.3,59.8947642512972,
5,5,0,1,2,2,2,1,0,1,1,0,0,1,0,0,70,70,70,,,,,,,,,,,,,,,,,,,,,,,,,,,,,,23,21,female,23,2022_May_11_1501,Partial repeat,2021.2.3,59.8947642512972,
5,5,0,1,3,3,2,1,0,1,1,0,0,1,0,0,71,71,71,0,0,0,0,,,,,,,976.9206117000431,None,977.5078293010592,None,978.5225179996341,None,s,0,0.4922155998647213,978.5225179996341,None,979.0403199996799,None,,,,,,,23,21,female,23,2022_May_11_1501,Partial repeat,2021.2.3,59.8947642512972,
5,5,0,1,3,3,2,1,0,1,1,0,0,1,0,0,71,71,71,1,0,1,0,,,,,,,,,979.5451351013035,None,980.5257022995502,None,s,1,0.3930314015597105,980.5257022995502,None,None,None,,,,,,,23,21,female,23,2022_May_11_1501,Partial repeat,2021.2.3,59.8947642512972,
5,5,0,1,3,3,2,1,0,1,1,0,0,1,0,0,71,71,71,,,,,,,,,,,,,,,,,,,,,,,,,,,,,,23,21,female,23,2022_May_11_1501,Partial repeat,2021.2.3,59.8947642512972,
5,5,0,1,2,3,2,1,0,0,0,0,1,1,0,0,72,72,72,0,0,0,0,,,,,,,980.9440496005118,None,981.6158032007515,None,982.5630540009588,None,l,1,0.691685400903225,982.5630540009588,None,None,None,,,,,,,23,21,female,23,2022_May_11_1501,Partial repeat,2021.2.3,59.8947642512972,
5,5,0,1,2,3,2,1,0,0,0,0,1,1,0,0,72,72,72,1,0,1,0,,,,,,,,,983.2745518013835,None,984.200410399586,None,l,1,1.5263237990438938,984.200410399586,None,None,None,,,,,,,23,21,female,23,2022_May_11_1501,Partial repeat,2021.2.3,59.8947642512972,
5,5,0,1,2,3,2,1,0,0,0,0,1,1,0,0,72,72,72,,,,,,,,,,,,,,,,,,,,,,,,,,,,,,23,21,female,23,2022_May_11_1501,Partial repeat,2021.2.3,59.8947642512972,
5,5,0,1,2,2,1,1,0,0,1,1,1,1,0,0,73,73,73,0,0,0,0,,,,,,,985.7446941006929,None,986.3917771000415,None,987.4059085007757,None,l,1,0.5528852995485067,987.4059085007757,None,None,None,,,,,,,23,21,female,23,2022_May_11_1501,Partial repeat,2021.2.3,59.8947642512972,
5,5,0,1,2,2,1,1,0,0,1,1,1,1,0,0,73,73,73,1,0,1,0,,,,,,,,,987.9683114010841,None,988.7754996009171,None,l,1,0.7912066001445055,988.7754996009171,None,None,None,,,,,,,23,21,female,23,2022_May_11_1501,Partial repeat,2021.2.3,59.8947642512972,
5,5,0,1,2,2,1,1,0,0,1,1,1,1,0,0,73,73,73,,,,,,,,,,,,,,,,,,,,,,,,,,,,,,23,21,female,23,2022_May_11_1501,Partial repeat,2021.2.3,59.8947642512972,
5,5,0,1,2,2,1,2,0,0,1,0,1,1,0,0,74,74,74,0,0,0,0,,,,,,,989.5944419000298,None,990.2158562000841,None,990.962842900306,None,l,1,0.5319570004940033,990.962842900306,None,None,None,,,,,,,23,21,female,23,2022_May_11_1501,Partial repeat,2021.2.3,59.8947642512972,
5,5,0,1,2,2,1,2,0,0,1,0,1,1,0,0,74,74,74,1,0,1,0,,,,,,,,,991.5028994008899,None,992.4158252999187,None,l,1,0.6789114009588957,992.4158252999187,None,None,None,,,,,,,23,21,female,23,2022_May_11_1501,Partial repeat,2021.2.3,59.8947642512972,
5,5,0,1,2,2,1,2,0,0,1,0,1,1,0,0,74,74,74,,,,,,,,,,,,,,,,,,,,,,,,,,,,,,23,21,female,23,2022_May_11_1501,Partial repeat,2021.2.3,59.8947642512972,
5,5,0,1,2,3,2,2,0,1,0,1,0,1,0,0,75,75,75,0,0,0,0,,,,,,,993.1090475004166,None,993.9731744006276,None,994.7702163010836,None,l,1,0.48444500006735325,994.7702163010836,None,None,None,,,,,,,23,21,female,23,2022_May_11_1501,Partial repeat,2021.2.3,59.8947642512972,
5,5,0,1,2,3,2,2,0,1,0,1,0,1,0,0,75,75,75,1,0,1,0,,,,,,,,,995.2655471004546,None,996.223509600386,None,s,1,0.5192402992397547,996.223509600386,None,None,None,,,,,,,23,21,female,23,2022_May_11_1501,Partial repeat,2021.2.3,59.8947642512972,
5,5,0,1,2,3,2,2,0,1,0,1,0,1,0,0,75,75,75,,,,,,,,,,,,,,,,,,,,,,,,,,,,,,23,21,female,23,2022_May_11_1501,Partial repeat,2021.2.3,59.8947642512972,
5,5,0,1,2,2,2,1,0,0,1,0,1,1,0,0,76,76,76,0,0,0,0,,,,,,,996.7699547000229,None,997.3130390010774,None,998.227538600564,None,l,1,0.7231328003108501,998.227538600564,None,None,None,,,,,,,23,21,female,23,2022_May_11_1501,Partial repeat,2021.2.3,59.8947642512972,
5,5,0,1,2,2,2,1,0,0,1,0,1,1,0,0,76,76,76,1,0,1,0,,,,,,,,,998.9653588999063,None,999.9304185006768,None,l,1,0.4603210985660553,999.9304185006768,None,None,None,,,,,,,23,21,female,23,2022_May_11_1501,Partial repeat,2021.2.3,59.8947642512972,
5,5,0,1,2,2,2,1,0,0,1,0,1,1,0,0,76,76,76,,,,,,,,,,,,,,,,,,,,,,,,,,,,,,23,21,female,23,2022_May_11_1501,Partial repeat,2021.2.3,59.8947642512972,
5,5,0,1,2,2,1,1,0,1,1,1,0,1,0,0,77,77,77,0,0,0,0,,,,,,,1000.4081971012056,None,1000.9367370996624,None,1001.8339664004743,None,l,1,0.4687945004552603,1001.8339664004743,None,None,None,,,,,,,23,21,female,23,2022_May_11_1501,Partial repeat,2021.2.3,59.8947642512972,
5,5,0,1,2,2,1,1,0,1,1,1,0,1,0,0,77,77,77,1,0,1,0,,,,,,,,,1002.3123265001923,None,1003.0863889995962,None,s,1,0.5283433999866247,1003.0863889995962,None,None,None,,,,,,,23,21,female,23,2022_May_11_1501,Partial repeat,2021.2.3,59.8947642512972,
5,5,0,1,2,2,1,1,0,1,1,1,0,1,0,0,77,77,77,,,,,,,,,,,,,,,,,,,,,,,,,,,,,,23,21,female,23,2022_May_11_1501,Partial repeat,2021.2.3,59.8947642512972,
5,5,0,1,3,3,1,2,0,0,1,0,1,1,0,0,78,78,78,0,0,0,0,,,,,,,1003.6319137010723,None,1004.2598609998822,None,1005.0236985012889,None,l,1,0.551070200279355,1005.0236985012889,None,None,None,,,,,,,23,21,female,23,2022_May_11_1501,Partial repeat,2021.2.3,59.8947642512972,
5,5,0,1,3,3,1,2,0,0,1,0,1,1,0,0,78,78,78,1,0,1,0,,,,,,,,,1005.5843115001917,None,1006.3259571995586,None,l,1,0.5207869000732899,1006.3259571995586,None,None,None,,,,,,,23,21,female,23,2022_May_11_1501,Partial repeat,2021.2.3,59.8947642512972,
5,5,0,1,3,3,1,2,0,0,1,0,1,1,0,0,78,78,78,,,,,,,,,,,,,,,,,,,,,,,,,,,,,,23,21,female,23,2022_May_11_1501,Partial repeat,2021.2.3,59.8947642512972,
5,5,0,1,3,2,1,2,1,0,0,0,0,1,0,0,79,79,79,0,0,0,0,,,,,,,1006.8692901004106,None,1007.4660879001021,None,1008.3133014012128,None,s,1,0.46948480047285557,1008.3133014012128,None,None,None,,,,,,,23,21,female,23,2022_May_11_1501,Partial repeat,2021.2.3,59.8947642512972,
5,5,0,1,3,2,1,2,1,0,0,0,0,1,0,0,79,79,79,1,0,1,0,,,,,,,,,1008.7912279013544,None,1009.5667941011488,None,l,1,0.4640723988413811,1009.5667941011488,None,None,None,,,,,,,23,21,female,23,2022_May_11_1501,Partial repeat,2021.2.3,59.8947642512972,
5,5,0,1,3,2,1,2,1,0,0,0,0,1,0,0,79,79,79,,,,,,,,,,,,,,,,,,,,,,,,,,,,,,23,21,female,23,2022_May_11_1501,Partial repeat,2021.2.3,59.8947642512972,
5,5,0,1,2,3,1,1,0,0,0,1,1,1,0,0,80,80,80,0,0,0,0,,,,,,,1010.0438639000058,None,1011.5073196012527,None,1012.237751301378,None,l,1,1.5289417002350092,1012.237751301378,None,None,None,,,,,,,23,21,female,23,2022_May_11_1501,Partial repeat,2021.2.3,59.8947642512972,
5,5,0,1,2,3,1,1,0,0,0,1,1,1,0,0,80,80,80,1,0,1,0,,,,,,,,,1013.7808446995914,None,1014.7923741005361,None,l,1,0.42235790006816387,1014.7923741005361,None,None,None,,,,,,,23,21,female,23,2022_May_11_1501,Partial repeat,2021.2.3,59.8947642512972,
5,5,0,1,2,3,1,1,0,0,0,1,1,1,0,0,80,80,80,,,,,,,,,,,,,,,,,,,,,,,,,,,,,,23,21,female,23,2022_May_11_1501,Partial repeat,2021.2.3,59.8947642512972,
5,5,0,1,3,3,2,1,0,0,1,0,1,1,0,0,81,81,81,0,0,0,0,,,,,,,1015.2293647006154,None,1015.7488925009966,None,1016.7629958000034,None,l,1,0.4757079016417265,1016.7629958000034,None,None,None,,,,,,,23,21,female,23,2022_May_11_1501,Partial repeat,2021.2.3,59.8947642512972,
5,5,0,1,3,3,2,1,0,0,1,0,1,1,0,0,81,81,81,1,0,1,0,,,,,,,,,1017.2630759011954,None,1018.1323119010776,None,l,1,0.4264493007212877,1018.1323119010776,None,None,None,,,,,,,23,21,female,23,2022_May_11_1501,Partial repeat,2021.2.3,59.8947642512972,
5,5,0,1,3,3,2,1,0,0,1,0,1,1,0,0,81,81,81,,,,,,,,,,,,,,,,,,,,,,,,,,,,,,23,21,female,23,2022_May_11_1501,Partial repeat,2021.2.3,59.8947642512972,
5,5,0,1,2,2,2,1,1,0,1,0,0,1,0,0,82,82,82,0,0,0,0,,,,,,,1018.5699679013342,None,1019.5730197001249,None,1020.5872866008431,None,s,1,0.47537910006940365,1020.5872866008431,None,None,None,,,,,,,23,21,female,23,2022_May_11_1501,Partial repeat,2021.2.3,59.8947642512972,
5,5,0,1,2,2,2,1,1,0,1,0,0,1,0,0,82,82,82,1,0,1,0,,,,,,,,,1021.0827745012939,None,1022.0735585000366,None,s,0,0.38113619945943356,1022.0735585000366,None,1022.4811976999044,None,,,,,,,23,21,female,23,2022_May_11_1501,Partial repeat,2021.2.3,59.8947642512972,
5,5,0,1,2,2,2,1,1,0,1,0,0,1,0,0,82,82,82,,,,,,,,,,,,,,,,,,,,,,,,,,,,,,23,21,female,23,2022_May_11_1501,Partial repeat,2021.2.3,59.8947642512972,
5,5,0,1,2,3,2,2,0,0,0,1,1,1,0,0,83,83,83,0,0,0,0,,,,,,,1022.9963514003903,None,1023.79791210033,None,1024.5636192001402,None,l,1,0.6350331995636225,1024.5636192001402,None,None,None,,,,,,,23,21,female,23,2022_May_11_1501,Partial repeat,2021.2.3,59.8947642512972,
5,5,0,1,2,3,2,2,0,0,0,1,1,1,0,0,83,83,83,1,0,1,0,,,,,,,,,1025.2074199002236,None,1026.1983058005571,None,l,1,0.4644225984811783,1026.1983058005571,None,None,None,,,,,,,23,21,female,23,2022_May_11_1501,Partial repeat,2021.2.3,59.8947642512972,
5,5,0,1,2,3,2,2,0,0,0,1,1,1,0,0,83,83,83,,,,,,,,,,,,,,,,,,,,,,,,,,,,,,23,21,female,23,2022_May_11_1501,Partial repeat,2021.2.3,59.8947642512972,
5,5,0,1,3,3,2,2,1,1,1,1,1,1,0,0,84,84,84,0,0,0,0,,,,,,,1026.6792371999472,None,1027.321418499574,None,1028.18567099981,None,s,1,0.5010631997138262,1028.18567099981,None,None,None,,,,,,,23,21,female,23,2022_May_11_1501,Partial repeat,2021.2.3,59.8947642512972,
5,5,0,1,3,3,2,2,1,1,1,1,1,1,0,0,84,84,84,1,0,1,0,,,,,,,,,1028.7022495996207,None,1029.654662501067,None,s,1,1.416067000478506,1029.654662501067,None,None,None,,,,,,,23,21,female,23,2022_May_11_1501,Partial repeat,2021.2.3,59.8947642512972,
5,5,0,1,3,3,2,2,1,1,1,1,1,1,0,0,84,84,84,,,,,,,,,,,,,,,,,,,,,,,,,,,,,,23,21,female,23,2022_May_11_1501,Partial repeat,2021.2.3,59.8947642512972,
5,5,0,1,3,3,2,1,1,1,1,0,1,1,0,0,85,85,85,0,0,0,0,,,,,,,1031.0917803999037,None,1031.9136787001044,None,1032.7443214002997,None,s,1,0.5023765005171299,1032.7443214002997,None,None,None,,,,,,,23,21,female,23,2022_May_11_1501,Partial repeat,2021.2.3,59.8947642512972,
5,5,0,1,3,3,2,1,1,1,1,0,1,1,0,0,85,85,85,1,0,1,0,,,,,,,,,1033.264383200556,None,1034.0138327013701,None,s,1,0.512890100479126,1034.0138327013701,None,None,None,,,,,,,23,21,female,23,2022_May_11_1501,Partial repeat,2021.2.3,59.8947642512972,
5,5,0,1,3,3,2,1,1,1,1,0,1,1,0,0,85,85,85,,,,,,,,,,,,,,,,,,,,,,,,,,,,,,23,21,female,23,2022_May_11_1501,Partial repeat,2021.2.3,59.8947642512972,
5,5,0,1,2,3,1,2,0,0,0,0,1,1,0,0,86,86,86,0,0,0,0,,,,,,,1034.5370726007968,None,1035.2535134013742,None,1036.1172850001603,None,l,1,0.6815002001821995,1036.1172850001603,None,None,None,,,,,,,23,21,female,23,2022_May_11_1501,Partial repeat,2021.2.3,59.8947642512972,
5,5,0,1,2,3,1,2,0,0,0,0,1,1,0,0,86,86,86,1,0,1,0,,,,,,,,,1036.8211400005966,None,1037.7541610002518,None,l,1,0.460572499781847,1037.7541610002518,None,None,None,,,,,,,23,21,female,23,2022_May_11_1501,Partial repeat,2021.2.3,59.8947642512972,
5,5,0,1,2,3,1,2,0,0,0,0,1,1,0,0,86,86,86,,,,,,,,,,,,,,,,,,,,,,,,,,,,,,23,21,female,23,2022_May_11_1501,Partial repeat,2021.2.3,59.8947642512972,
5,5,0,1,3,3,1,2,1,1,1,0,1,1,0,0,87,87,87,0,0,0,0,,,,,,,1038.2339069005102,None,1038.9272736012936,None,1039.791668601334,None,s,1,0.4231690000742674,1039.791668601334,None,None,None,,,,,,,23,21,female,23,2022_May_11_1501,Partial repeat,2021.2.3,59.8947642512972,
5,5,0,1,3,3,1,2,1,1,1,0,1,1,0,0,87,87,87,1,0,1,0,,,,,,,,,1040.2434373013675,None,1041.193864300847,None,s,1,0.4049583002924919,1041.193864300847,None,None,None,,,,,,,23,21,female,23,2022_May_11_1501,Partial repeat,2021.2.3,59.8947642512972,
5,5,0,1,3,3,1,2,1,1,1,0,1,1,0,0,87,87,87,,,,,,,,,,,,,,,,,,,,,,,,,,,,,,23,21,female,23,2022_May_11_1501,Partial repeat,2021.2.3,59.8947642512972,
5,5,0,1,3,2,2,1,0,1,0,0,0,1,0,0,88,88,88,0,0,0,0,,,,,,,1041.6119157001376,None,1042.2003301009536,None,1042.9972991999239,None,l,1,0.5853991005569696,1042.9972991999239,None,None,None,,,,,,,23,21,female,23,2022_May_11_1501,Partial repeat,2021.2.3,59.8947642512972,
5,5,0,1,3,2,2,1,0,1,0,0,0,1,0,0,88,88,88,1,0,1,0,,,,,,,,,1043.6029065996408,None,1044.3846051003784,None,s,1,0.4541413988918066,1044.3846051003784,None,None,None,,,,,,,23,21,female,23,2022_May_11_1501,Partial repeat,2021.2.3,59.8947642512972,
5,5,0,1,3,2,2,1,0,1,0,0,0,1,0,0,88,88,88,,,,,,,,,,,,,,,,,,,,,,,,,,,,,,23,21,female,23,2022_May_11_1501,Partial repeat,2021.2.3,59.8947642512972,
5,5,0,1,3,2,1,2,1,1,0,0,1,1,0,0,89,89,89,0,0,0,0,,,,,,,1044.866489900276,None,1045.406589800492,None,1046.255804700777,None,s,1,0.4309323001652956,1046.255804700777,None,None,None,,,,,,,23,21,female,23,2022_May_11_1501,Partial repeat,2021.2.3,59.8947642512972,
5,5,0,1,3,2,1,2,1,1,0,0,1,1,0,0,89,89,89,1,0,1,0,,,,,,,,,1046.711878400296,None,1047.47288900055,None,s,1,0.41376700066030025,1047.47288900055,None,None,None,,,,,,,23,21,female,23,2022_May_11_1501,Partial repeat,2021.2.3,59.8947642512972,
5,5,0,1,3,2,1,2,1,1,0,0,1,1,0,0,89,89,89,,,,,,,,,,,,,,,,,,,,,,,,,,,,,,23,21,female,23,2022_May_11_1501,Partial repeat,2021.2.3,59.8947642512972,
5,5,0,1,3,3,1,1,0,0,1,1,1,1,0,0,90,90,90,0,0,0,0,,,,,,,1047.91033180058,None,1048.462565900758,None,1049.376380899921,None,l,1,0.45443190075457096,1049.376380899921,None,None,None,,,,,,,23,21,female,23,2022_May_11_1501,Partial repeat,2021.2.3,59.8947642512972,
5,5,0,1,3,3,1,1,0,0,1,1,1,1,0,0,90,90,90,1,0,1,0,,,,,,,,,1049.8534685000777,None,1050.7460111007094,None,l,1,0.4207124002277851,1050.7460111007094,None,None,None,,,,,,,23,21,female,23,2022_May_11_1501,Partial repeat,2021.2.3,59.8947642512972,
5,5,0,1,3,3,1,1,0,0,1,1,1,1,0,0,90,90,90,,,,,,,,,,,,,,,,,,,,,,,,,,,,,,23,21,female,23,2022_May_11_1501,Partial repeat,2021.2.3,59.8947642512972,
5,5,0,1,3,2,1,1,0,1,0,1,0,1,0,0,91,91,91,0,0,0,0,,,,,,,1051.182268699631,None,1051.7188805006444,None,1052.6832378003746,None,l,1,0.5314633995294571,1052.6832378003746,None,None,None,,,,,,,23,21,female,23,2022_May_11_1501,Partial repeat,2021.2.3,59.8947642512972,
5,5,0,1,3,2,1,1,0,1,0,1,0,1,0,0,91,91,91,1,0,1,0,,,,,,,,,1053.2431621011347,None,1053.985323799774,None,s,1,0.5013938993215561,1053.985323799774,None,None,None,,,,,,,23,21,female,23,2022_May_11_1501,Partial repeat,2021.2.3,59.8947642512972,
5,5,0,1,3,2,1,1,0,1,0,1,0,1,0,0,91,91,91,,,,,,,,,,,,,,,,,,,,,,,,,,,,,,23,21,female,23,2022_May_11_1501,Partial repeat,2021.2.3,59.8947642512972,
5,5,0,1,3,2,1,2,0,1,0,0,0,1,0,0,92,92,92,0,0,0,0,,,,,,,1054.5061269011348,None,1054.9919197000563,None,1055.9891868997365,None,l,1,0.9856224004179239,1055.9891868997365,None,None,None,,,,,,,23,21,female,23,2022_May_11_1501,Partial repeat,2021.2.3,59.8947642512972,
5,5,0,1,3,2,1,2,0,1,0,0,0,1,0,0,92,92,92,1,0,1,0,,,,,,,,,1056.9934425000101,None,1057.8430141005665,None,s,1,0.4757825005799532,1057.8430141005665,None,None,None,,,,,,,23,21,female,23,2022_May_11_1501,Partial repeat,2021.2.3,59.8947642512972,
5,5,0,1,3,2,1,2,0,1,0,0,0,1,0,0,92,92,92,,,,,,,,,,,,,,,,,,,,,,,,,,,,,,23,21,female,23,2022_May_11_1501,Partial repeat,2021.2.3,59.8947642512972,
5,5,0,1,2,3,2,2,1,1,0,1,1,1,0,0,93,93,93,0,0,0,0,,,,,,,1058.3455293998122,None,1058.899484200403,None,1059.8300451003015,None,l,0,0.6006815005093813,1059.8300451003015,None,1060.4538874011487,None,,,,,,,23,21,female,23,2022_May_11_1501,Partial repeat,2021.2.3,59.8947642512972,
5,5,0,1,2,3,2,2,1,1,0,1,1,1,0,0,93,93,93,1,0,1,0,,,,,,,,,1060.9534831997007,None,1061.8514431007206,None,s,1,0.5312828999012709,1061.8514431007206,None,None,None,,,,,,,23,21,female,23,2022_May_11_1501,Partial repeat,2021.2.3,59.8947642512972,
5,5,0,1,2,3,2,2,1,1,0,1,1,1,0,0,93,93,93,,,,,,,,,,,,,,,,,,,,,,,,,,,,,,23,21,female,23,2022_May_11_1501,Partial repeat,2021.2.3,59.8947642512972,
5,5,0,1,3,2,2,1,0,0,0,0,1,1,0,0,94,94,94,0,0,0,0,,,,,,,1062.3991723004729,None,1063.3081206008792,None,1064.256286200136,None,l,1,0.6385178007185459,1064.256286200136,None,None,None,,,,,,,23,21,female,23,2022_May_11_1501,Partial repeat,2021.2.3,59.8947642512972,
5,5,0,1,3,2,2,1,0,0,0,0,1,1,0,0,94,94,94,1,0,1,0,,,,,,,,,1064.9056157004088,None,1065.859394799918,None,s,0,0.4913221001625061,1065.859394799918,None,1066.3601850010455,None,,,,,,,23,21,female,23,2022_May_11_1501,Partial repeat,2021.2.3,59.8947642512972,
5,5,0,1,3,2,2,1,0,0,0,0,1,1,0,0,94,94,94,,,,,,,,,,,,,,,,,,,,,,,,,,,,,,23,21,female,23,2022_May_11_1501,Partial repeat,2021.2.3,59.8947642512972,
5,5,0,1,3,2,1,1,0,0,0,1,1,1,0,0,95,95,95,0,0,0,0,,,,,,,1066.8650525007397,None,1068.8521872013807,None,1069.699261199683,None,l,1,1.027420999482274,1069.699261199683,None,None,None,,,,,,,23,21,female,23,2022_May_11_1501,Partial repeat,2021.2.3,59.8947642512972,
5,5,0,1,3,2,1,1,0,0,0,1,1,1,0,0,95,95,95,1,0,1,0,,,,,,,,,1070.7439715005457,None,1071.4862613007426,None,l,1,0.7204199992120266,1071.4862613007426,None,None,None,,,,,,,23,21,female,23,2022_May_11_1501,Partial repeat,2021.2.3,59.8947642512972,
5,5,0,1,3,2,1,1,0,0,0,1,1,1,0,0,95,95,95,,,,,,,,,,,,,,,,,,,,,,,,,,,,,,23,21,female,23,2022_May_11_1501,Partial repeat,2021.2.3,59.8947642512972,
5,5,0,1,3,3,1,1,0,1,1,1,0,1,0,0,96,96,96,0,0,0,0,,,,,,,1072.2368761003017,None,1073.99556449987,None,1075.0096829999238,None,l,1,1.3650061003863811,1075.0096829999238,None,None,None,,,,,,,23,21,female,23,2022_May_11_1501,Partial repeat,2021.2.3,59.8947642512972,
5,5,0,1,3,3,1,1,0,1,1,1,0,1,0,0,96,96,96,1,0,1,0,,,,,,,,,1076.3948825001717,None,1077.2807903010398,None,s,1,0.5499063991010189,1077.2807903010398,None,None,None,,,,,,,23,21,female,23,2022_May_11_1501,Partial repeat,2021.2.3,59.8947642512972,
5,5,0,1,3,3,1,1,0,1,1,1,0,1,0,0,96,96,96,,,,,,,,,,,,,,,,,,,,,,,,,,,,,,23,21,female,23,2022_May_11_1501,Partial repeat,2021.2.3,59.8947642512972,
5,5,0,1,2,2,2,2,1,0,1,1,0,1,0,0,97,97,97,0,0,0,0,,,,,,,1077.8472246006131,None,1079.1388517003506,None,1079.9191859010607,None,s,1,0.5995856001973152,1079.9191859010607,None,None,None,,,,,,,23,21,female,23,2022_May_11_1501,Partial repeat,2021.2.3,59.8947642512972,
5,5,0,1,2,2,2,2,1,0,1,1,0,1,0,0,97,97,97,1,0,1,0,,,,,,,,,1080.5416528005153,None,1081.4056889005005,None,l,1,0.6330360006541014,1081.4056889005005,None,None,None,,,,,,,23,21,female,23,2022_May_11_1501,Partial repeat,2021.2.3,59.8947642512972,
5,5,0,1,2,2,2,2,1,0,1,1,0,1,0,0,97,97,97,,,,,,,,,,,,,,,,,,,,,,,,,,,,,,23,21,female,23,2022_May_11_1501,Partial repeat,2021.2.3,59.8947642512972,
5,5,0,1,3,2,1,1,1,1,0,1,1,1,0,0,98,98,98,0,0,0,0,,,,,,,1082.0549480002373,None,1082.612362600863,None,1083.5432281997055,None,s,1,0.6234646998345852,1083.5432281997055,None,None,None,,,,,,,23,21,female,23,2022_May_11_1501,Partial repeat,2021.2.3,59.8947642512972,
5,5,0,1,3,2,1,1,1,1,0,1,1,1,0,0,98,98,98,1,0,1,0,,,,,,,,,1084.1911506000906,None,1085.2165825013071,None,s,1,0.44611459970474243,1085.2165825013071,None,None,None,,,,,,,23,21,female,23,2022_May_11_1501,Partial repeat,2021.2.3,59.8947642512972,
5,5,0,1,3,2,1,1,1,1,0,1,1,1,0,0,98,98,98,,,,,,,,,,,,,,,,,,,,,,,,,,,,,,23,21,female,23,2022_May_11_1501,Partial repeat,2021.2.3,59.8947642512972,
5,5,0,1,3,3,1,1,1,1,1,1,1,1,0,0,99,99,99,0,0,0,0,,,,,,,1085.6762486007065,None,1086.3359339013696,None,1087.2691868003458,None,s,1,0.4974406994879246,1087.2691868003458,None,None,None,,,,,,,23,21,female,23,2022_May_11_1501,Partial repeat,2021.2.3,59.8947642512972,
5,5,0,1,3,3,1,1,1,1,1,1,1,1,0,0,99,99,99,1,0,1,0,,,,,,,,,1087.789630400017,None,1088.7028842009604,None,s,1,0.39183959923684597,1088.7028842009604,None,None,None,,,,,,,23,21,female,23,2022_May_11_1501,Partial repeat,2021.2.3,59.8947642512972,
5,5,0,1,3,3,1,1,1,1,1,1,1,1,0,0,99,99,99,,,,,,,,,,,,,,,,,,,,,,,,,,,,,,23,21,female,23,2022_May_11_1501,Partial repeat,2021.2.3,59.8947642512972,
5,5,0,1,3,3,2,2,0,0,1,1,1,1,0,0,100,100,100,0,0,0,0,,,,,,,1089.1193014010787,None,1089.7762065008283,None,1090.5899443998933,None,l,1,0.48877890035510063,1090.5899443998933,None,None,None,,,,,,,23,21,female,23,2022_May_11_1501,Partial repeat,2021.2.3,59.8947642512972,
5,5,0,1,3,3,2,2,0,0,1,1,1,1,0,0,100,100,100,1,0,1,0,,,,,,,,,1091.0933966003358,None,1092.0595207996666,None,l,1,0.46719460003077984,1092.0595207996666,None,None,None,,,,,,,23,21,female,23,2022_May_11_1501,Partial repeat,2021.2.3,59.8947642512972,
5,5,0,1,3,3,2,2,0,0,1,1,1,1,0,0,100,100,100,,,,,,,,,,,,,,,,,,,,,,,,,,,,,,23,21,female,23,2022_May_11_1501,Partial repeat,2021.2.3,59.8947642512972,
5,5,0,1,3,2,2,2,0,1,0,1,0,1,0,0,101,101,101,0,0,0,0,,,,,,,1092.5440563000739,None,1093.1160751003772,None,1094.0299295000732,None,l,1,0.4088078998029232,1094.0299295000732,None,None,None,,,,,,,23,21,female,23,2022_May_11_1501,Partial repeat,2021.2.3,59.8947642512972,
5,5,0,1,3,2,2,2,0,1,0,1,0,1,0,0,101,101,101,1,0,1,0,,,,,,,,,1094.4641756005585,None,1095.4828621000051,None,s,1,0.49983139894902706,1095.4828621000051,None,None,None,,,,,,,23,21,female,23,2022_May_11_1501,Partial repeat,2021.2.3,59.8947642512972,
5,5,0,1,3,2,2,2,0,1,0,1,0,1,0,0,101,101,101,,,,,,,,,,,,,,,,,,,,,,,,,,,,,,23,21,female,23,2022_May_11_1501,Partial repeat,2021.2.3,59.8947642512972,
5,5,0,1,2,3,1,1,1,0,0,1,0,1,0,0,102,102,102,0,0,0,0,,,,,,,1096.0090014003217,None,1096.5227375999093,None,1097.253046700731,None,s,1,0.5056762006133795,1097.253046700731,None,None,None,,,,,,,23,21,female,23,2022_May_11_1501,Partial repeat,2021.2.3,59.8947642512972,
5,5,0,1,2,3,1,1,1,0,0,1,0,1,0,0,102,102,102,1,0,1,0,,,,,,,,,1097.772575000301,None,1098.5556432008743,None,l,1,0.531199200078845,1098.5556432008743,None,None,None,,,,,,,23,21,female,23,2022_May_11_1501,Partial repeat,2021.2.3,59.8947642512972,
5,5,0,1,2,3,1,1,1,0,0,1,0,1,0,0,102,102,102,,,,,,,,,,,,,,,,,,,,,,,,,,,,,,23,21,female,23,2022_May_11_1501,Partial repeat,2021.2.3,59.8947642512972,
5,5,0,1,2,3,2,1,1,0,0,0,0,1,0,0,103,103,103,0,0,0,0,,,,,,,1099.0999785996974,None,1099.6788729000837,None,1100.609447799623,None,s,1,0.46127310022711754,1100.609447799623,None,None,None,,,,,,,23,21,female,23,2022_May_11_1501,Partial repeat,2021.2.3,59.8947642512972,
5,5,0,1,2,3,2,1,1,0,0,0,0,1,0,0,103,103,103,1,0,1,0,,,,,,,,,1101.0849534012377,None,1102.0291790999472,None,l,1,0.6255481000989676,1102.0291790999472,None,None,None,,,,,,,23,21,female,23,2022_May_11_1501,Partial repeat,2021.2.3,59.8947642512972,
5,5,0,1,2,3,2,1,1,0,0,0,0,1,0,0,103,103,103,,,,,,,,,,,,,,,,,,,,,,,,,,,,,,23,21,female,23,2022_May_11_1501,Partial repeat,2021.2.3,59.8947642512972,
5,5,0,1,3,2,2,2,1,1,0,1,1,1,0,0,104,104,104,0,0,0,0,,,,,,,1102.6789009012282,None,1103.3860915005207,None,1104.166256999597,None,s,1,0.592443099245429,1104.166256999597,None,None,None,,,,,,,23,21,female,23,2022_May_11_1501,Partial repeat,2021.2.3,59.8947642512972,
5,5,0,1,3,2,2,2,1,1,0,1,1,1,0,0,104,104,104,1,0,1,0,,,,,,,,,1104.7670841999352,None,1105.752771301195,None,s,1,0.421918299049139,1105.752771301195,None,None,None,,,,,,,23,21,female,23,2022_May_11_1501,Partial repeat,2021.2.3,59.8947642512972,
5,5,0,1,3,2,2,2,1,1,0,1,1,1,0,0,104,104,104,,,,,,,,,,,,,,,,,,,,,,,,,,,,,,23,21,female,23,2022_May_11_1501,Partial repeat,2021.2.3,59.8947642512972,
5,5,0,1,2,2,2,2,0,1,1,1,0,1,0,0,105,105,105,0,0,0,0,,,,,,,1106.189627200365,None,1106.7426261007786,None,1107.4903501998633,None,l,1,0.4763402007520199,1107.4903501998633,None,None,None,,,,,,,23,21,female,23,2022_May_11_1501,Partial repeat,2021.2.3,59.8947642512972,
5,5,0,1,2,2,2,2,0,1,1,1,0,1,0,0,105,105,105,1,0,1,0,,,,,,,,,1107.986248999834,None,1108.9926885012537,None,s,1,0.45399259962141514,1108.9926885012537,None,None,None,,,,,,,23,21,female,23,2022_May_11_1501,Partial repeat,2021.2.3,59.8947642512972,
5,5,0,1,2,2,2,2,0,1,1,1,0,1,0,0,105,105,105,,,,,,,,,,,,,,,,,,,,,,,,,,,,,,23,21,female,23,2022_May_11_1501,Partial repeat,2021.2.3,59.8947642512972,
5,5,0,1,2,2,1,1,1,1,1,1,1,1,0,0,106,106,106,0,0,0,0,,,,,,,1109.4732363000512,None,1109.998933199793,None,1110.9631971996278,None,s,1,0.4035138003528118,1110.9631971996278,None,None,None,,,,,,,23,21,female,23,2022_May_11_1501,Partial repeat,2021.2.3,59.8947642512972,
5,5,0,1,2,2,1,1,1,1,1,1,1,1,0,0,106,106,106,1,0,1,0,,,,,,,,,1111.3949758000672,None,1112.3657361995429,None,s,1,0.5129963997751474,1112.3657361995429,None,None,None,,,,,,,23,21,female,23,2022_May_11_1501,Partial repeat,2021.2.3,59.8947642512972,
5,5,0,1,2,2,1,1,1,1,1,1,1,1,0,0,106,106,106,,,,,,,,,,,,,,,,,,,,,,,,,,,,,,23,21,female,23,2022_May_11_1501,Partial repeat,2021.2.3,59.8947642512972,
5,5,0,1,3,3,2,2,1,0,1,1,0,1,0,0,107,107,107,0,0,0,0,,,,,,,1112.8914372008294,None,1113.68947170116,None,1114.6868958007544,None,s,1,0.45579779893159866,1114.6868958007544,None,None,None,,,,,,,23,21,female,23,2022_May_11_1501,Partial repeat,2021.2.3,59.8947642512972,
5,5,0,1,3,3,2,2,1,0,1,1,0,1,0,0,107,107,107,1,0,1,0,,,,,,,,,1115.1627319008112,None,1115.97275320068,None,l,1,0.6103364005684853,1115.97275320068,None,None,None,,,,,,,23,21,female,23,2022_May_11_1501,Partial repeat,2021.2.3,59.8947642512972,
5,5,0,1,3,3,2,2,1,0,1,1,0,1,0,0,107,107,107,,,,,,,,,,,,,,,,,,,,,,,,,,,,,,23,21,female,23,2022_May_11_1501,Partial repeat,2021.2.3,59.8947642512972,
5,5,0,1,2,2,2,2,1,1,1,1,1,1,0,0,108,108,108,0,0,0,0,,,,,,,1116.6026838999242,None,1117.0960996001959,None,1118.1110207997262,None,s,1,0.35970319993793964,1118.1110207997262,None,None,None,,,,,,,23,21,female,23,2022_May_11_1501,Partial repeat,2021.2.3,59.8947642512972,
5,5,0,1,2,2,2,2,1,1,1,1,1,1,0,0,108,108,108,1,0,1,0,,,,,,,,,1118.4950901996344,None,1119.413805199787,None,s,1,0.45693890005350113,1119.413805199787,None,None,None,,,,,,,23,21,female,23,2022_May_11_1501,Partial repeat,2021.2.3,59.8947642512972,
5,5,0,1,2,2,2,2,1,1,1,1,1,1,0,0,108,108,108,,,,,,,,,,,,,,,,,,,,,,,,,,,,,,23,21,female,23,2022_May_11_1501,Partial repeat,2021.2.3,59.8947642512972,
5,5,0,1,2,2,1,2,1,1,1,0,1,1,0,0,109,109,109,0,0,0,0,,,,,,,1119.8889007996768,None,1120.5361281000078,None,1121.3330423012376,None,s,1,0.3696362003684044,1121.3330423012376,None,None,None,,,,,,,23,21,female,23,2022_May_11_1501,Partial repeat,2021.2.3,59.8947642512972,
5,5,0,1,2,2,1,2,1,1,1,0,1,1,0,0,109,109,109,1,0,1,0,,,,,,,,,1121.7237408012152,None,1122.5523666013032,None,s,1,0.3903625011444092,1122.5523666013032,None,None,None,,,,,,,23,21,female,23,2022_May_11_1501,Partial repeat,2021.2.3,59.8947642512972,
5,5,0,1,2,2,1,2,1,1,1,0,1,1,0,0,109,109,109,,,,,,,,,,,,,,,,,,,,,,,,,,,,,,23,21,female,23,2022_May_11_1501,Partial repeat,2021.2.3,59.8947642512972,
5,5,0,1,3,2,2,1,1,0,0,0,0,1,0,0,110,110,110,0,0,0,0,,,,,,,1122.9729644004256,None,1123.5252710003406,None,1124.3059273008257,None,s,1,0.3648042008280754,1124.3059273008257,None,None,None,,,,,,,23,21,female,23,2022_May_11_1501,Partial repeat,2021.2.3,59.8947642512972,
5,5,0,1,3,2,2,1,1,0,0,0,0,1,0,0,110,110,110,1,0,1,0,,,,,,,,,1124.6785768009722,None,1125.4923494011164,None,l,1,0.5383728984743357,1125.4923494011164,None,None,None,,,,,,,23,21,female,23,2022_May_11_1501,Partial repeat,2021.2.3,59.8947642512972,
5,5,0,1,3,2,2,1,1,0,0,0,0,1,0,0,110,110,110,,,,,,,,,,,,,,,,,,,,,,,,,,,,,,23,21,female,23,2022_May_11_1501,Partial repeat,2021.2.3,59.8947642512972,
5,5,0,1,2,3,1,2,1,0,0,0,0,1,0,0,111,111,111,0,0,0,0,,,,,,,1126.0585658997297,None,1126.6312570013106,None,1127.411728899926,None,s,1,0.3629557006061077,1127.411728899926,None,None,None,,,,,,,23,21,female,23,2022_May_11_1501,Partial repeat,2021.2.3,59.8947642512972,
5,5,0,1,2,3,1,2,1,0,0,0,0,1,0,0,111,111,111,1,0,1,0,,,,,,,,,1127.789166400209,None,1128.6139241997153,None,l,1,0.5447789002209902,1128.6139241997153,None,None,None,,,,,,,23,21,female,23,2022_May_11_1501,Partial repeat,2021.2.3,59.8947642512972,
5,5,0,1,2,3,1,2,1,0,0,0,0,1,0,0,111,111,111,,,,,,,,,,,,,,,,,,,,,,,,,,,,,,23,21,female,23,2022_May_11_1501,Partial repeat,2021.2.3,59.8947642512972,
5,5,0,1,2,3,1,1,1,1,0,1,1,1,0,0,112,112,112,0,0,0,0,,,,,,,1129.1803796999156,None,1129.7874413002282,None,1130.652124799788,None,s,1,0.5225585997104645,1130.652124799788,None,None,None,,,,,,,23,21,female,23,2022_May_11_1501,Partial repeat,2021.2.3,59.8947642512972,
5,5,0,1,2,3,1,1,1,1,0,1,1,1,0,0,112,112,112,1,0,1,0,,,,,,,,,1131.1919926013798,None,1132.1372980009764,None,s,1,0.5334241986274719,1132.1372980009764,None,None,None,,,,,,,23,21,female,23,2022_May_11_1501,Partial repeat,2021.2.3,59.8947642512972,
5,5,0,1,2,3,1,1,1,1,0,1,1,1,0,0,112,112,112,,,,,,,,,,,,,,,,,,,,,,,,,,,,,,23,21,female,23,2022_May_11_1501,Partial repeat,2021.2.3,59.8947642512972,
5,5,0,1,2,2,1,1,1,0,1,1,0,1,0,0,113,113,113,0,0,0,0,,,,,,,1132.6811440009624,None,1133.3276688996702,None,1134.158946800977,None,s,1,0.43980349972844124,1134.158946800977,None,None,None,,,,,,,23,21,female,23,2022_May_11_1501,Partial repeat,2021.2.3,59.8947642512972,
5,5,0,1,2,2,1,1,1,0,1,1,0,1,0,0,113,113,113,1,0,1,0,,,,,,,,,1134.6118184998631,None,1135.561044299975,None,l,1,0.35760580003261566,1135.561044299975,None,None,None,,,,,,,23,21,female,23,2022_May_11_1501,Partial repeat,2021.2.3,59.8947642512972,
5,5,0,1,2,2,1,1,1,0,1,1,0,1,0,0,113,113,113,,,,,,,,,,,,,,,,,,,,,,,,,,,,,,23,21,female,23,2022_May_11_1501,Partial repeat,2021.2.3,59.8947642512972,
5,5,0,1,2,3,1,1,0,1,0,1,0,1,0,0,114,114,114,0,0,0,0,,,,,,,1135.9336569011211,None,1136.4337221998721,None,1137.1823162995279,None,s,0,0.3204092998057604,1137.1823162995279,None,1137.512197200209,None,,,,,,,23,21,female,23,2022_May_11_1501,Partial repeat,2021.2.3,59.8947642512972,
5,5,0,1,2,3,1,1,0,1,0,1,0,1,0,0,114,114,114,1,0,1,0,,,,,,,,,1138.0201351996511,None,1138.8184208013117,None,s,1,0.6682559996843338,1138.8184208013117,None,None,None,,,,,,,23,21,female,23,2022_May_11_1501,Partial repeat,2021.2.3,59.8947642512972,
5,5,0,1,2,3,1,1,0,1,0,1,0,1,0,0,114,114,114,,,,,,,,,,,,,,,,,,,,,,,,,,,,,,23,21,female,23,2022_May_11_1501,Partial repeat,2021.2.3,59.8947642512972,
5,5,0,1,2,2,2,1,1,1,1,0,1,1,0,0,115,115,115,0,0,0,0,,,,,,,1139.5108113009483,None,1139.9906082004309,None,1140.9879838004708,None,s,1,0.40277119912207127,1140.9879838004708,None,None,None,,,,,,,23,21,female,23,2022_May_11_1501,Partial repeat,2021.2.3,59.8947642512972,
5,5,0,1,2,2,2,1,1,1,1,0,1,1,0,0,115,115,115,1,0,1,0,,,,,,,,,1141.3996756002307,None,1142.2738368995488,None,s,1,0.4447622001171112,1142.2738368995488,None,None,None,,,,,,,23,21,female,23,2022_May_11_1501,Partial repeat,2021.2.3,59.8947642512972,
5,5,0,1,2,2,2,1,1,1,1,0,1,1,0,0,115,115,115,,,,,,,,,,,,,,,,,,,,,,,,,,,,,,23,21,female,23,2022_May_11_1501,Partial repeat,2021.2.3,59.8947642512972,
5,5,0,1,2,2,1,2,0,1,1,0,0,1,0,0,116,116,116,0,0,0,0,,,,,,,1142.7421858999878,None,1143.2469830997288,None,1144.1777181010693,None,l,1,0.5249700006097555,1144.1777181010693,None,None,None,,,,,,,23,21,female,23,2022_May_11_1501,Partial repeat,2021.2.3,59.8947642512972,
5,5,0,1,2,2,1,2,0,1,1,0,0,1,0,0,116,116,116,1,0,1,0,,,,,,,,,1144.7186716012657,None,1145.730846600607,None,s,1,0.41980000026524067,1145.730846600607,None,None,None,,,,,,,23,21,female,23,2022_May_11_1501,Partial repeat,2021.2.3,59.8947642512972,
5,5,0,1,2,2,1,2,0,1,1,0,0,1,0,0,116,116,116,,,,,,,,,,,,,,,,,,,,,,,,,,,,,,23,21,female,23,2022_May_11_1501,Partial repeat,2021.2.3,59.8947642512972,
5,5,0,1,3,3,1,1,1,0,1,1,0,1,0,0,117,117,117,0,0,0,0,,,,,,,1146.1714254003018,None,1146.6702984012663,None,1147.6844169013202,None,s,1,0.6102808993309736,1147.6844169013202,None,None,None,,,,,,,23,21,female,23,2022_May_11_1501,Partial repeat,2021.2.3,59.8947642512972,
5,5,0,1,3,3,1,1,1,0,1,1,0,1,0,0,117,117,117,1,0,1,0,,,,,,,,,1148.310963600874,None,1149.2710236012936,None,l,1,0.47170150093734264,1149.2710236012936,None,None,None,,,,,,,23,21,female,23,2022_May_11_1501,Partial repeat,2021.2.3,59.8947642512972,
5,5,0,1,3,3,1,1,1,0,1,1,0,1,0,0,117,117,117,,,,,,,,,,,,,,,,,,,,,,,,,,,,,,23,21,female,23,2022_May_11_1501,Partial repeat,2021.2.3,59.8947642512972,
5,5,0,1,3,3,1,2,0,1,1,0,0,1,0,0,118,118,118,0,0,0,0,,,,,,,1149.773435300216,None,1150.344095600769,None,1151.075160799548,None,l,1,0.4755582008510828,1151.075160799548,None,None,None,,,,,,,23,21,female,23,2022_May_11_1501,Partial repeat,2021.2.3,59.8947642512972,
5,5,0,1,3,3,1,2,0,1,1,0,0,1,0,0,118,118,118,1,0,1,0,,,,,,,,,1151.569173000753,None,1152.376867800951,None,s,1,0.4698069002479315,1152.376867800951,None,None,None,,,,,,,23,21,female,23,2022_May_11_1501,Partial repeat,2021.2.3,59.8947642512972,
5,5,0,1,3,3,1,2,0,1,1,0,0,1,0,0,118,118,118,,,,,,,,,,,,,,,,,,,,,,,,,,,,,,23,21,female,23,2022_May_11_1501,Partial repeat,2021.2.3,59.8947642512972,
5,5,0,1,2,2,2,2,0,0,1,1,1,1,0,0,119,119,119,0,0,0,0,,,,,,,1152.8581533003598,None,1153.4501482006162,None,1154.2805454004556,None,l,1,0.6221190001815557,1154.2805454004556,None,None,None,,,,,,,23,21,female,23,2022_May_11_1501,Partial repeat,2021.2.3,59.8947642512972,
5,5,0,1,2,2,2,2,0,0,1,1,1,1,0,0,119,119,119,1,0,1,0,,,,,,,,,1154.9111206997186,None,1155.716732500121,None,l,1,0.665981899946928,1155.716732500121,None,None,None,,,,,,,23,21,female,23,2022_May_11_1501,Partial repeat,2021.2.3,59.8947642512972,
5,5,0,1,2,2,2,2,0,0,1,1,1,1,0,0,119,119,119,,,,,,,,,,,,,,,,,,,,,,,,,,,,,,23,21,female,23,2022_May_11_1501,Partial repeat,2021.2.3,59.8947642512972,
5,5,0,1,3,3,1,2,1,0,1,0,0,1,0,0,120,120,120,0,0,0,0,,,,,,,1156.4078067000955,None,1157.2408563997597,None,1158.137972600758,None,s,1,0.4687734991312027,1158.137972600758,None,None,None,,,,,,,23,21,female,23,2022_May_11_1501,Partial repeat,2021.2.3,59.8947642512972,
5,5,0,1,3,3,1,2,1,0,1,0,0,1,0,0,120,120,120,1,0,1,0,,,,,,,,,1158.6343267001212,None,1159.390463700518,None,l,1,0.4162472002208233,1159.390463700518,None,None,None,,,,,,,23,21,female,23,2022_May_11_1501,Partial repeat,2021.2.3,59.8947642512972,
5,5,0,1,3,3,1,2,1,0,1,0,0,1,0,0,120,120,120,,,,,,,,,,,,,,,,,,,,,,,,,,,,,,23,21,female,23,2022_May_11_1501,Partial repeat,2021.2.3,59.8947642512972,
5,5,0,1,3,2,1,2,0,0,0,0,1,1,0,0,121,121,121,0,0,0,0,,,,,,,1159.8281608000398,None,1160.2967638000846,None,1161.2945070005953,None,l,1,0.43217650055885315,1161.2945070005953,None,None,None,,,,,,,23,21,female,23,2022_May_11_1501,Partial repeat,2021.2.3,59.8947642512972,
5,5,0,1,3,2,1,2,0,0,0,0,1,1,0,0,121,121,121,1,0,1,0,,,,,,,,,1161.7445490006357,None,1162.4797790013254,None,l,1,0.41490730084478855,1162.4797790013254,None,None,None,,,,,,,23,21,female,23,2022_May_11_1501,Partial repeat,2021.2.3,59.8947642512972,
5,5,0,1,3,2,1,2,0,0,0,0,1,1,0,0,121,121,121,,,,,,,,,,,,,,,,,,,,,,,,,,,,,,23,21,female,23,2022_May_11_1501,Partial repeat,2021.2.3,59.8947642512972,
5,5,0,1,2,3,1,2,1,1,0,0,1,1,0,0,122,122,122,0,0,0,0,,,,,,,1162.9166211001575,None,1163.5698303002864,None,1164.5851640012115,None,s,1,0.4375128988176584,1164.5851640012115,None,None,None,,,,,,,23,21,female,23,2022_May_11_1501,Partial repeat,2021.2.3,59.8947642512972,
5,5,0,1,2,3,1,2,1,1,0,0,1,1,0,0,122,122,122,1,0,1,0,,,,,,,,,1165.037689100951,None,1166.003097601235,None,s,1,0.4676359985023737,1166.003097601235,None,None,None,,,,,,,23,21,female,23,2022_May_11_1501,Partial repeat,2021.2.3,59.8947642512972,
5,5,0,1,2,3,1,2,1,1,0,0,1,1,0,0,122,122,122,,,,,,,,,,,,,,,,,,,,,,,,,,,,,,23,21,female,23,2022_May_11_1501,Partial repeat,2021.2.3,59.8947642512972,
5,5,0,1,2,3,2,1,0,1,0,0,0,1,0,0,123,123,123,0,0,0,0,,,,,,,1166.5006568003446,None,1168.2956822998822,None,1169.1928642001003,None,l,1,0.4698645006865263,1169.1928642001003,None,None,None,,,,,,,23,21,female,23,2022_May_11_1501,Partial repeat,2021.2.3,59.8947642512972,
5,5,0,1,2,3,2,1,0,1,0,0,0,1,0,0,123,123,123,1,0,1,0,,,,,,,,,1169.672344200313,None,1170.4289516005665,None,s,1,0.40178269892930984,1170.4289516005665,None,None,None,,,,,,,23,21,female,23,2022_May_11_1501,Partial repeat,2021.2.3,59.8947642512972,
5,5,0,1,2,3,2,1,0,1,0,0,0,1,0,0,123,123,123,,,,,,,,,,,,,,,,,,,,,,,,,,,,,,23,21,female,23,2022_May_11_1501,Partial repeat,2021.2.3,59.8947642512972,
5,5,0,1,3,3,2,2,0,1,1,1,0,1,0,0,124,124,124,0,0,0,0,,,,,,,1170.8459038008004,None,1171.3516403995454,None,1172.215532200411,None,l,1,0.5432080999016762,1172.215532200411,None,None,None,,,,,,,23,21,female,23,2022_May_11_1501,Partial repeat,2021.2.3,59.8947642512972,
5,5,0,1,3,3,2,2,0,1,1,1,0,1,0,0,124,124,124,1,0,1,0,,,,,,,,,1172.777603700757,None,1173.7695042006671,None,s,1,0.32521230168640614,1173.7695042006671,None,None,None,,,,,,,23,21,female,23,2022_May_11_1501,Partial repeat,2021.2.3,59.8947642512972,
5,5,0,1,3,3,2,2,0,1,1,1,0,1,0,0,124,124,124,,,,,,,,,,,,,,,,,,,,,,,,,,,,,,23,21,female,23,2022_May_11_1501,Partial repeat,2021.2.3,59.8947642512972,
5,5,0,1,2,3,2,2,1,0,0,1,0,1,0,0,125,125,125,0,0,0,0,,,,,,,1174.119782499969,None,1174.6246451996267,None,1175.555272500962,None,s,1,0.4674331992864609,1175.555272500962,None,None,None,,,,,,,23,21,female,23,2022_May_11_1501,Partial repeat,2021.2.3,59.8947642512972,
5,5,0,1,2,3,2,2,1,0,0,1,0,1,0,0,125,125,125,1,0,1,0,,,,,,,,,1176.031878599897,None,1176.8413504995406,None,l,1,0.4453011993318796,1176.8413504995406,None,None,None,,,,,,,23,21,female,23,2022_May_11_1501,Partial repeat,2021.2.3,59.8947642512972,
5,5,0,1,2,3,2,2,1,0,0,1,0,1,0,0,125,125,125,,,,,,,,,,,,,,,,,,,,,,,,,,,,,,23,21,female,23,2022_May_11_1501,Partial repeat,2021.2.3,59.8947642512972,
5,5,0,1,2,3,1,2,0,1,0,0,0,1,0,0,126,126,126,0,0,0,0,,,,,,,1177.3015535995364,None,1177.8142332006246,None,1178.5779924001545,None,l,1,0.4527495987713337,1178.5779924001545,None,None,None,,,,,,,23,21,female,23,2022_May_11_1501,Partial repeat,2021.2.3,59.8947642512972,
5,5,0,1,2,3,1,2,0,1,0,0,0,1,0,0,126,126,126,1,0,1,0,,,,,,,,,1179.0530162006617,None,1179.8636831007898,None,s,1,0.3910390008240938,1179.8636831007898,None,None,None,,,,,,,23,21,female,23,2022_May_11_1501,Partial repeat,2021.2.3,59.8947642512972,
5,5,0,1,2,3,1,2,0,1,0,0,0,1,0,0,126,126,126,,,,,,,,,,,,,,,,,,,,,,,,,,,,,,23,21,female,23,2022_May_11_1501,Partial repeat,2021.2.3,59.8947642512972,
5,5,0,1,3,2,2,2,0,0,0,1,1,1,0,0,127,127,127,0,0,0,0,,,,,,,1180.283646300435,None,1180.7365975007415,None,1181.500200200826,None,l,1,0.45853069983422756,1181.500200200826,None,None,None,,,,,,,23,21,female,23,2022_May_11_1501,Partial repeat,2021.2.3,59.8947642512972,
5,5,0,1,3,2,2,2,0,0,0,1,1,1,0,0,127,127,127,1,0,1,0,,,,,,,,,1181.97838300094,None,1182.9863981995732,None,l,1,0.4284239988774061,1182.9863981995732,None,None,None,,,,,,,23,21,female,23,2022_May_11_1501,Partial repeat,2021.2.3,59.8947642512972,
5,5,0,1,3,2,2,2,0,0,0,1,1,1,0,0,127,127,127,,,,,,,,,,,,,,,,,,,,,,,,,,,,,,23,21,female,23,2022_May_11_1501,Partial repeat,2021.2.3,59.8947642512972,
8,6,0,1,3,2,1,2,0,0,0,0,1,0,0,0,128,128,128,0,0,0,0,,,,,,,1210.9099139999598,None,1212.565187200904,None,1213.295527100563,None,l,1,1.0952936988323927,1213.295527100563,None,None,None,,,,,,,23,21,female,23,2022_May_11_1501,Partial repeat,2021.2.3,59.8947642512972,
8,6,0,1,3,2,1,2,0,0,0,0,1,0,0,0,128,128,128,1,0,1,0,,,,,,,,,1214.4002275001258,None,1215.3659746013582,None,l,1,0.71264429949224,1215.3659746013582,None,None,None,,,,,,,23,21,female,23,2022_May_11_1501,Partial repeat,2021.2.3,59.8947642512972,
8,6,0,1,3,2,1,2,0,0,0,0,1,0,0,0,128,128,128,,,,,,,,,,,,,,,,,,,,,,,,,,,,,,23,21,female,23,2022_May_11_1501,Partial repeat,2021.2.3,59.8947642512972,
5,8,0,1,2,2,2,1,0,1,1,0,0,0,0,0,129,129,129,0,0,0,0,,,,,,,1216.1079716999084,None,1216.7564791999757,None,1217.7040290012956,None,l,1,0.5987413004040718,1217.7040290012956,None,None,None,,,,,,,23,21,female,23,2022_May_11_1501,Partial repeat,2021.2.3,59.8947642512972,
5,8,0,1,2,2,2,1,0,1,1,0,0,0,0,0,129,129,129,1,0,1,0,,,,,,,,,1218.3316336013377,None,1219.1233175005764,None,s,1,0.8193560000509024,1219.1233175005764,None,None,None,,,,,,,23,21,female,23,2022_May_11_1501,Partial repeat,2021.2.3,59.8947642512972,
5,8,0,1,2,2,2,1,0,1,1,0,0,0,0,0,129,129,129,,,,,,,,,,,,,,,,,,,,,,,,,,,,,,23,21,female,23,2022_May_11_1501,Partial repeat,2021.2.3,59.8947642512972,
5,4,0,1,3,3,2,1,1,1,1,0,1,0,0,0,130,130,130,0,0,0,0,,,,,,,1219.9672714006156,None,1220.6475812010467,None,1221.595382399857,None,s,1,1.1553278006613255,1221.595382399857,None,None,None,,,,,,,23,21,female,23,2022_May_11_1501,Partial repeat,2021.2.3,59.8947642512972,
5,4,0,1,3,3,2,1,1,1,1,0,1,0,0,0,130,130,130,1,0,1,0,,,,,,,,,1222.777116401121,None,1223.7826586011797,None,s,1,0.6080106999725103,1223.7826586011797,None,None,None,,,,,,,23,21,female,23,2022_May_11_1501,Partial repeat,2021.2.3,59.8947642512972,
5,4,0,1,3,3,2,1,1,1,1,0,1,0,0,0,130,130,130,,,,,,,,,,,,,,,,,,,,,,,,,,,,,,23,21,female,23,2022_May_11_1501,Partial repeat,2021.2.3,59.8947642512972,
1,7,0,1,3,3,2,1,1,0,1,0,0,0,0,0,131,131,131,0,0,0,0,,,,,,,1224.4114098995924,None,1225.156350299716,None,1226.1036486010998,None,s,1,0.5990698989480734,1226.1036486010998,None,None,None,,,,,,,23,21,female,23,2022_May_11_1501,Partial repeat,2021.2.3,59.8947642512972,
1,7,0,1,3,3,2,1,1,0,1,0,0,0,0,0,131,131,131,1,0,1,0,,,,,,,,,1226.7301438003778,None,1227.5731738004833,None,l,1,0.6416127998381853,1227.5731738004833,None,None,None,,,,,,,23,21,female,23,2022_May_11_1501,Partial repeat,2021.2.3,59.8947642512972,
1,7,0,1,3,3,2,1,1,0,1,0,0,0,0,0,131,131,131,,,,,,,,,,,,,,,,,,,,,,,,,,,,,,23,21,female,23,2022_May_11_1501,Partial repeat,2021.2.3,59.8947642512972,
1,2,0,1,3,2,2,1,0,1,0,0,0,0,0,0,132,132,132,0,0,0,0,,,,,,,1228.2273310013115,None,1228.7967149000615,None,1229.8107860013843,None,l,1,0.611939700320363,1229.8107860013843,None,None,None,,,,,,,23,21,female,23,2022_May_11_1501,Partial repeat,2021.2.3,59.8947642512972,
1,2,0,1,3,2,2,1,0,1,0,0,0,0,0,0,132,132,132,1,0,1,0,,,,,,,,,1230.435934200883,None,1231.1636856999248,None,s,1,0.5869823005050421,1231.1636856999248,None,None,None,,,,,,,23,21,female,23,2022_May_11_1501,Partial repeat,2021.2.3,59.8947642512972,
1,2,0,1,3,2,2,1,0,1,0,0,0,0,0,0,132,132,132,,,,,,,,,,,,,,,,,,,,,,,,,,,,,,23,21,female,23,2022_May_11_1501,Partial repeat,2021.2.3,59.8947642512972,
4,8,0,1,2,3,1,2,0,1,0,0,0,0,0,0,133,133,133,0,0,0,0,,,,,,,1231.771869899705,None,1232.3369676005095,None,1233.167400000617,None,l,1,0.6472474001348019,1233.167400000617,None,None,None,,,,,,,23,21,female,23,2022_May_11_1501,Partial repeat,2021.2.3,59.8947642512972,
4,8,0,1,2,3,1,2,0,1,0,0,0,0,0,0,133,133,133,1,0,1,0,,,,,,,,,1233.8361096996814,None,1234.587096400559,None,s,1,0.5876086987555027,1234.587096400559,None,None,None,,,,,,,23,21,female,23,2022_May_11_1501,Partial repeat,2021.2.3,59.8947642512972,
4,8,0,1,2,3,1,2,0,1,0,0,0,0,0,0,133,133,133,,,,,,,,,,,,,,,,,,,,,,,,,,,,,,23,21,female,23,2022_May_11_1501,Partial repeat,2021.2.3,59.8947642512972,
5,3,0,1,3,3,2,1,0,1,1,0,0,0,0,0,134,134,134,0,0,0,0,,,,,,,1235.1959937997162,None,1235.7269163001329,None,1236.6743666008115,None,l,1,0.772341201081872,1236.6743666008115,None,None,None,,,,,,,23,21,female,23,2022_May_11_1501,Partial repeat,2021.2.3,59.8947642512972,
5,3,0,1,3,3,2,1,0,1,1,0,0,0,0,0,134,134,134,1,0,1,0,,,,,,,,,1237.469902800396,None,1238.4445025008172,None,s,1,0.6582025997340679,1238.4445025008172,None,None,None,,,,,,,23,21,female,23,2022_May_11_1501,Partial repeat,2021.2.3,59.8947642512972,
5,3,0,1,3,3,2,1,0,1,1,0,0,0,0,0,134,134,134,,,,,,,,,,,,,,,,,,,,,,,,,,,,,,23,21,female,23,2022_May_11_1501,Partial repeat,2021.2.3,59.8947642512972,
1,5,0,1,3,3,1,2,1,0,1,0,0,0,0,0,135,135,135,0,0,0,0,,,,,,,1239.131433499977,None,1239.6845864001662,None,1240.598731201142,None,s,1,0.7039037998765707,1240.598731201142,None,None,None,,,,,,,23,21,female,23,2022_May_11_1501,Partial repeat,2021.2.3,59.8947642512972,
1,5,0,1,3,3,1,2,1,0,1,0,0,0,0,0,135,135,135,1,0,1,0,,,,,,,,,1241.32575779967,None,1242.2854485008866,None,l,1,0.6573240999132395,1242.2854485008866,None,None,None,,,,,,,23,21,female,23,2022_May_11_1501,Partial repeat,2021.2.3,59.8947642512972,
1,5,0,1,3,3,1,2,1,0,1,0,0,0,0,0,135,135,135,,,,,,,,,,,,,,,,,,,,,,,,,,,,,,23,21,female,23,2022_May_11_1501,Partial repeat,2021.2.3,59.8947642512972,
4,5,0,1,3,2,2,1,1,1,0,0,1,0,0,0,136,136,136,0,0,0,0,,,,,,,1242.9557886011899,None,1243.4920272007585,None,1244.4730593003333,None,s,1,1.8856114987283945,1244.4730593003333,None,None,None,,,,,,,23,21,female,23,2022_May_11_1501,Partial repeat,2021.2.3,59.8947642512972,
4,5,0,1,3,2,2,1,1,1,0,0,1,0,0,0,136,136,136,1,0,1,0,,,,,,,,,1246.3800994995981,None,1247.3788370005786,None,s,1,1.0678371991962194,1247.3788370005786,None,None,None,,,,,,,23,21,female,23,2022_May_11_1501,Partial repeat,2021.2.3,59.8947642512972,
4,5,0,1,3,2,2,1,1,1,0,0,1,0,0,0,136,136,136,,,,,,,,,,,,,,,,,,,,,,,,,,,,,,23,21,female,23,2022_May_11_1501,Partial repeat,2021.2.3,59.8947642512972,
8,3,0,1,2,2,2,2,0,1,1,1,0,0,0,0,137,137,137,0,0,0,0,,,,,,,1248.4739463012666,None,1249.2030868008733,None,1250.0334975011647,None,l,1,0.6371621992439032,1250.0334975011647,None,None,None,,,,,,,23,21,female,23,2022_May_11_1501,Partial repeat,2021.2.3,59.8947642512972,
8,3,0,1,2,2,2,2,0,1,1,1,0,0,0,0,137,137,137,1,0,1,0,,,,,,,,,1250.6992600001395,None,1251.4197505004704,None,s,1,0.6669507995247841,1251.4197505004704,None,None,None,,,,,,,23,21,female,23,2022_May_11_1501,Partial repeat,2021.2.3,59.8947642512972,
8,3,0,1,2,2,2,2,0,1,1,1,0,0,0,0,137,137,137,,,,,,,,,,,,,,,,,,,,,,,,,,,,,,23,21,female,23,2022_May_11_1501,Partial repeat,2021.2.3,59.8947642512972,
4,1,0,1,3,3,1,2,0,0,1,0,1,0,0,0,138,138,138,0,0,0,0,,,,,,,1252.1147153005004,None,1252.7433609012514,None,1253.6907245013863,None,l,1,0.7079496998339891,1253.6907245013863,None,None,None,,,,,,,23,21,female,23,2022_May_11_1501,Partial repeat,2021.2.3,59.8947642512972,
4,1,0,1,3,3,1,2,0,0,1,0,1,0,0,0,138,138,138,1,0,1,0,,,,,,,,,1254.4226502999663,None,1255.361044401303,None,l,1,0.605706101283431,1255.361044401303,None,None,None,,,,,,,23,21,female,23,2022_May_11_1501,Partial repeat,2021.2.3,59.8947642512972,
4,1,0,1,3,3,1,2,0,0,1,0,1,0,0,0,138,138,138,,,,,,,,,,,,,,,,,,,,,,,,,,,,,,23,21,female,23,2022_May_11_1501,Partial repeat,2021.2.3,59.8947642512972,
2,6,0,1,3,2,1,2,0,1,0,0,0,0,0,0,139,139,139,0,0,0,0,,,,,,,1255.990690300241,None,1256.6342715006322,None,1257.4314913004637,None,l,1,0.5752154998481274,1257.4314913004637,None,None,None,,,,,,,23,21,female,23,2022_May_11_1501,Partial repeat,2021.2.3,59.8947642512972,
2,6,0,1,3,2,1,2,0,1,0,0,0,0,0,0,139,139,139,1,0,1,0,,,,,,,,,1258.0197468008846,None,1258.9678550008684,None,s,1,0.7588443011045456,1258.9678550008684,None,None,None,,,,,,,23,21,female,23,2022_May_11_1501,Partial repeat,2021.2.3,59.8947642512972,
2,6,0,1,3,2,1,2,0,1,0,0,0,0,0,0,139,139,139,,,,,,,,,,,,,,,,,,,,,,,,,,,,,,23,21,female,23,2022_May_11_1501,Partial repeat,2021.2.3,59.8947642512972,
5,7,0,1,2,3,2,2,1,1,0,1,1,0,0,0,140,140,140,0,0,0,0,,,,,,,1259.7460661996156,None,1260.358176400885,None,1261.3564298003912,None,s,1,0.602318599820137,1261.3564298003912,None,None,None,,,,,,,23,21,female,23,2022_May_11_1501,Partial repeat,2021.2.3,59.8947642512972,
5,7,0,1,2,3,2,2,1,1,0,1,1,0,0,0,140,140,140,1,0,1,0,,,,,,,,,1261.9814248997718,None,1262.9936084002256,None,s,1,0.48505960032343864,1262.9936084002256,None,None,None,,,,,,,23,21,female,23,2022_May_11_1501,Partial repeat,2021.2.3,59.8947642512972,
5,7,0,1,2,3,2,2,1,1,0,1,1,0,0,0,140,140,140,,,,,,,,,,,,,,,,,,,,,,,,,,,,,,23,21,female,23,2022_May_11_1501,Partial repeat,2021.2.3,59.8947642512972,
8,5,0,1,2,3,1,1,0,1,0,1,0,0,0,0,141,141,141,0,0,0,0,,,,,,,1263.49940459989,None,1264.0987846013159,None,1264.9792833011597,None,l,1,0.7154720984399319,1264.9792833011597,None,None,None,,,,,,,23,21,female,23,2022_May_11_1501,Partial repeat,2021.2.3,59.8947642512972,
8,5,0,1,2,3,1,1,0,1,0,1,0,0,0,0,141,141,141,1,0,1,0,,,,,,,,,1265.710171200335,None,1266.4499535001814,None,s,1,0.5726916007697582,1266.4499535001814,None,None,None,,,,,,,23,21,female,23,2022_May_11_1501,Partial repeat,2021.2.3,59.8947642512972,
8,5,0,1,2,3,1,1,0,1,0,1,0,0,0,0,141,141,141,,,,,,,,,,,,,,,,,,,,,,,,,,,,,,23,21,female,23,2022_May_11_1501,Partial repeat,2021.2.3,59.8947642512972,
5,6,0,1,2,2,2,1,1,1,1,0,1,0,0,0,142,142,142,0,0,0,0,,,,,,,1267.0345299001783,None,1267.5888522006571,None,1268.402608299628,None,s,1,0.5161357000470161,1268.402608299628,None,None,None,,,,,,,23,21,female,23,2022_May_11_1501,Partial repeat,2021.2.3,59.8947642512972,
5,6,0,1,2,2,2,1,1,1,1,0,1,0,0,0,142,142,142,1,0,1,0,,,,,,,,,1268.9370635002851,None,1269.8556311000139,None,s,1,0.5190642010420561,1269.8556311000139,None,None,None,,,,,,,23,21,female,23,2022_May_11_1501,Partial repeat,2021.2.3,59.8947642512972,
5,6,0,1,2,2,2,1,1,1,1,0,1,0,0,0,142,142,142,,,,,,,,,,,,,,,,,,,,,,,,,,,,,,23,21,female,23,2022_May_11_1501,Partial repeat,2021.2.3,59.8947642512972,
6,8,0,1,2,3,2,1,0,1,0,0,0,0,0,0,143,143,143,0,0,0,0,,,,,,,1270.4007191006094,None,1270.9120464008301,None,1271.7256438005716,None,s,0,0.5370035003870726,1271.7256438005716,None,1272.2871268000454,None,,,,,,,23,21,female,23,2022_May_11_1501,Partial repeat,2021.2.3,59.8947642512972,
6,8,0,1,2,3,2,1,0,1,0,0,0,0,0,0,143,143,143,1,0,1,0,,,,,,,,,1272.7990405000746,None,1273.6295721996576,None,l,0,0.5531686004251242,1273.6295721996576,None,1274.1917129997164,None,,,,,,,23,21,female,23,2022_May_11_1501,Partial repeat,2021.2.3,59.8947642512972,
6,8,0,1,2,3,2,1,0,1,0,0,0,0,0,0,143,143,143,,,,,,,,,,,,,,,,,,,,,,,,,,,,,,23,21,female,23,2022_May_11_1501,Partial repeat,2021.2.3,59.8947642512972,
7,2,0,1,2,3,1,2,1,1,0,0,1,0,0,0,144,144,144,0,0,0,0,,,,,,,1274.7027029003948,None,1275.470894901082,None,1276.351566400379,None,s,1,0.6070677991956472,1276.351566400379,None,None,None,,,,,,,23,21,female,23,2022_May_11_1501,Partial repeat,2021.2.3,59.8947642512972,
7,2,0,1,2,3,1,2,1,1,0,0,1,0,0,0,144,144,144,1,0,1,0,,,,,,,,,1276.976446500048,None,1277.8208788000047,None,s,1,0.7138237003237009,1277.8208788000047,None,None,None,,,,,,,23,21,female,23,2022_May_11_1501,Partial repeat,2021.2.3,59.8947642512972,
7,2,0,1,2,3,1,2,1,1,0,0,1,0,0,0,144,144,144,,,,,,,,,,,,,,,,,,,,,,,,,,,,,,23,21,female,23,2022_May_11_1501,Partial repeat,2021.2.3,59.8947642512972,
6,4,0,1,2,2,1,1,0,1,1,1,0,0,0,0,145,145,145,0,0,0,0,,,,,,,1278.5569892004132,None,1279.3284028004855,None,1280.158723000437,None,l,1,0.5839399993419647,1280.158723000437,None,None,None,,,,,,,23,21,female,23,2022_May_11_1501,Partial repeat,2021.2.3,59.8947642512972,
6,4,0,1,2,2,1,1,0,1,1,1,0,0,0,0,145,145,145,1,0,1,0,,,,,,,,,1280.7609665002674,None,1281.4947373010218,None,s,1,0.6559797991067171,1281.4947373010218,None,None,None,,,,,,,23,21,female,23,2022_May_11_1501,Partial repeat,2021.2.3,59.8947642512972,
6,4,0,1,2,2,1,1,0,1,1,1,0,0,0,0,145,145,145,,,,,,,,,,,,,,,,,,,,,,,,,,,,,,23,21,female,23,2022_May_11_1501,Partial repeat,2021.2.3,59.8947642512972,
1,8,0,1,3,2,1,1,1,0,0,1,0,0,0,0,146,146,146,0,0,0,0,,,,,,,1282.1697388011962,None,1282.7350067999214,None,1283.7162916008383,None,s,1,0.6425228007137775,1283.7162916008383,None,None,None,,,,,,,23,21,female,23,2022_May_11_1501,Partial repeat,2021.2.3,59.8947642512972,
1,8,0,1,3,2,1,1,1,0,0,1,0,0,0,0,146,146,146,1,0,1,0,,,,,,,,,1284.368703899905,None,1285.235350601375,None,l,1,0.6513145007193089,1285.235350601375,None,None,None,,,,,,,23,21,female,23,2022_May_11_1501,Partial repeat,2021.2.3,59.8947642512972,
1,8,0,1,3,2,1,1,1,0,0,1,0,0,0,0,146,146,146,,,,,,,,,,,,,,,,,,,,,,,,,,,,,,23,21,female,23,2022_May_11_1501,Partial repeat,2021.2.3,59.8947642512972,
6,7,0,1,2,3,2,2,1,0,0,1,0,0,0,0,147,147,147,0,0,0,0,,,,,,,1285.9103766996413,None,1286.4422073010355,None,1287.2559433002025,None,s,1,0.5347851999104023,1287.2559433002025,None,None,None,,,,,,,23,21,female,23,2022_May_11_1501,Partial repeat,2021.2.3,59.8947642512972,
6,7,0,1,2,3,2,2,1,0,0,1,0,0,0,0,147,147,147,1,0,1,0,,,,,,,,,1287.8171089012176,None,1288.8091457001865,None,l,1,0.6935142986476421,1288.8091457001865,None,None,None,,,,,,,23,21,female,23,2022_May_11_1501,Partial repeat,2021.2.3,59.8947642512972,
6,7,0,1,2,3,2,2,1,0,0,1,0,0,0,0,147,147,147,,,,,,,,,,,,,,,,,,,,,,,,,,,,,,23,21,female,23,2022_May_11_1501,Partial repeat,2021.2.3,59.8947642512972,
4,7,0,1,3,3,1,1,0,1,1,1,0,0,0,0,148,148,148,0,0,0,0,,,,,,,1289.5277377013117,None,1290.0993179995567,None,1291.0314921997488,None,l,1,0.935241399332881,1291.0314921997488,None,None,None,,,,,,,23,21,female,23,2022_May_11_1501,Partial repeat,2021.2.3,59.8947642512972,
4,7,0,1,3,3,1,1,0,1,1,1,0,0,0,0,148,148,148,1,0,1,0,,,,,,,,,1291.9762885998935,None,1292.7833239007741,None,s,1,0.6073681991547346,1292.7833239007741,None,None,None,,,,,,,23,21,female,23,2022_May_11_1501,Partial repeat,2021.2.3,59.8947642512972,
4,7,0,1,3,3,1,1,0,1,1,1,0,0,0,0,148,148,148,,,,,,,,,,,,,,,,,,,,,,,,,,,,,,23,21,female,23,2022_May_11_1501,Partial repeat,2021.2.3,59.8947642512972,
4,4,0,1,3,2,2,2,1,0,0,1,0,0,0,0,149,149,149,0,0,0,0,,,,,,,1293.4168047010899,None,1294.006943700835,None,1294.9879961013794,None,s,1,0.6747000999748707,1294.9879961013794,None,None,None,,,,,,,23,21,female,23,2022_May_11_1501,Partial repeat,2021.2.3,59.8947642512972,
4,4,0,1,3,2,2,2,1,0,0,1,0,0,0,0,149,149,149,1,0,1,0,,,,,,,,,1295.6765190009028,None,1296.4571040011942,None,l,1,0.6536044999957085,1296.4571040011942,None,None,None,,,,,,,23,21,female,23,2022_May_11_1501,Partial repeat,2021.2.3,59.8947642512972,
4,4,0,1,3,2,2,2,1,0,0,1,0,0,0,0,149,149,149,,,,,,,,,,,,,,,,,,,,,,,,,,,,,,23,21,female,23,2022_May_11_1501,Partial repeat,2021.2.3,59.8947642512972,
3,3,0,1,3,3,1,1,1,1,1,1,1,0,0,0,150,150,150,0,0,0,0,,,,,,,1297.12552620098,None,1297.7308949008584,None,1298.6787868011743,None,s,1,0.6239293999969959,1298.6787868011743,None,None,None,,,,,,,23,21,female,23,2022_May_11_1501,Partial repeat,2021.2.3,59.8947642512972,
3,3,0,1,3,3,1,1,1,1,1,1,1,0,0,0,150,150,150,1,0,1,0,,,,,,,,,1299.3240140005946,None,1300.2816295009106,None,s,1,0.6850754991173744,1300.2816295009106,None,None,None,,,,,,,23,21,female,23,2022_May_11_1501,Partial repeat,2021.2.3,59.8947642512972,
3,3,0,1,3,3,1,1,1,1,1,1,1,0,0,0,150,150,150,,,,,,,,,,,,,,,,,,,,,,,,,,,,,,23,21,female,23,2022_May_11_1501,Partial repeat,2021.2.3,59.8947642512972,
7,3,0,1,2,3,2,1,1,1,0,0,1,0,0,0,151,151,151,0,0,0,0,,,,,,,1300.9964803010225,None,1301.5716469995677,None,1302.4356394000351,None,s,1,0.5950566995888948,1302.4356394000351,None,None,None,,,,,,,23,21,female,23,2022_May_11_1501,Partial repeat,2021.2.3,59.8947642512972,
