prime_tar_pos,probe_tar_pos,dimension,tar_color,prime_dist_color,probe_dist_color,prime_dist_shape,probe_dist_shape,prime_tar_dot_pos,probe_tar_dot_pos,col_rep,shape_rep,resp_rep,pos_fixed,sparse,MainLoop.thisRepN,MainLoop.thisTrialN,MainLoop.thisN,MainLoop.thisIndex,PrimeProbe.thisRepN,PrimeProbe.thisTrialN,PrimeProbe.thisN,PrimeProbe.thisIndex,Instruction.started,Instruction.stopped,instruction_key.keys,instruction_key.rt,instruction_key.started,instruction_key.stopped,PairStartText.started,PairStartText.stopped,FixCross.started,FixCross.stopped,SearchFixCross.started,SearchFixCross.stopped,key_resp.keys,key_resp.corr,key_resp.rt,key_resp.started,key_resp.stopped,feedback_text.started,feedback_text.stopped,text_finish.started,text_finish.stopped,finish_key.keys,finish_key.rt,finish_key.started,finish_key.stopped,participant,age,gender,group,date,expName,psychopyVersion,frameRate,
,,,,,,,,,,,,,,,,,,,,,,,207.31827840022743,None,space,59.384197199717164,207.31827840022743,None,,,,,,,,,,,,,,,,,,,,24,22,female,24,2022_May_11_1526,Partial repeat,2021.2.3,59.926601618503284,
8,8,0,1,2,3,2,2,1,0,0,1,0,1,0,0,0,0,0,0,0,0,0,,,,,,,266.84752770140767,None,271.73942019976676,None,272.75768840126693,None,s,1,0.9765042997896671,272.75768840126693,None,None,None,,,,,,,24,22,female,24,2022_May_11_1526,Partial repeat,2021.2.3,59.926601618503284,
8,8,0,1,2,3,2,2,1,0,0,1,0,1,0,0,0,0,0,1,0,1,0,,,,,,,,,273.7511481009424,None,274.640732800588,None,l,1,0.6774545013904572,274.640732800588,None,None,None,,,,,,,24,22,female,24,2022_May_11_1526,Partial repeat,2021.2.3,59.926601618503284,
8,8,0,1,2,3,2,2,1,0,0,1,0,1,0,0,0,0,0,,,,,,,,,,,,,,,,,,,,,,,,,,,,,,24,22,female,24,2022_May_11_1526,Partial repeat,2021.2.3,59.926601618503284,
8,8,0,1,3,2,2,1,0,0,0,0,1,1,0,0,1,1,1,0,0,0,0,,,,,,,275.33398330025375,None,277.55069660022855,None,278.4478723015636,None,l,1,0.5584040004760027,278.4478723015636,None,None,None,,,,,,,24,22,female,24,2022_May_11_1526,Partial repeat,2021.2.3,59.926601618503284,
8,8,0,1,3,2,2,1,0,0,0,0,1,1,0,0,1,1,1,1,0,1,0,,,,,,,,,279.028780400753,None,280.0340759009123,None,l,1,0.49217999912798405,280.0340759009123,None,None,None,,,,,,,24,22,female,24,2022_May_11_1526,Partial repeat,2021.2.3,59.926601618503284,
8,8,0,1,3,2,2,1,0,0,0,0,1,1,0,0,1,1,1,,,,,,,,,,,,,,,,,,,,,,,,,,,,,,24,22,female,24,2022_May_11_1526,Partial repeat,2021.2.3,59.926601618503284,
8,8,0,1,3,2,1,1,1,0,0,1,0,1,0,0,2,2,2,0,0,0,0,,,,,,,280.5565816015005,None,282.1096420008689,None,283.02382010035217,None,s,1,0.574363399296999,283.02382010035217,None,None,None,,,,,,,24,22,female,24,2022_May_11_1526,Partial repeat,2021.2.3,59.926601618503284,
8,8,0,1,3,2,1,1,1,0,0,1,0,1,0,0,2,2,2,1,0,1,0,,,,,,,,,283.6218629013747,None,284.42613000050187,None,l,1,0.4360594004392624,284.42613000050187,None,None,None,,,,,,,24,22,female,24,2022_May_11_1526,Partial repeat,2021.2.3,59.926601618503284,
8,8,0,1,3,2,1,1,1,0,0,1,0,1,0,0,2,2,2,,,,,,,,,,,,,,,,,,,,,,,,,,,,,,24,22,female,24,2022_May_11_1526,Partial repeat,2021.2.3,59.926601618503284,
8,8,0,1,2,3,2,1,1,1,0,0,1,1,0,0,3,3,3,0,0,0,0,,,,,,,284.8824426997453,None,285.9671666007489,None,286.7308911997825,None,s,1,0.58724470064044,286.7308911997825,None,None,None,,,,,,,24,22,female,24,2022_May_11_1526,Partial repeat,2021.2.3,59.926601618503284,
8,8,0,1,2,3,2,1,1,1,0,0,1,1,0,0,3,3,3,1,0,1,0,,,,,,,,,287.3349843006581,None,288.1002453006804,None,s,1,0.4579717982560396,288.1002453006804,None,None,None,,,,,,,24,22,female,24,2022_May_11_1526,Partial repeat,2021.2.3,59.926601618503284,
8,8,0,1,2,3,2,1,1,1,0,0,1,1,0,0,3,3,3,,,,,,,,,,,,,,,,,,,,,,,,,,,,,,24,22,female,24,2022_May_11_1526,Partial repeat,2021.2.3,59.926601618503284,
8,8,0,1,3,3,1,1,0,1,1,1,0,1,0,0,4,4,4,0,0,0,0,,,,,,,288.57932570017874,None,290.2087604999542,None,291.15591930039227,None,l,1,0.5302689988166094,291.15591930039227,None,None,None,,,,,,,24,22,female,24,2022_May_11_1526,Partial repeat,2021.2.3,59.926601618503284,
8,8,0,1,3,3,1,1,0,1,1,1,0,1,0,0,4,4,4,1,0,1,0,,,,,,,,,291.7084646001458,None,292.6086771003902,None,s,1,0.4535137992352247,292.6086771003902,None,None,None,,,,,,,24,22,female,24,2022_May_11_1526,Partial repeat,2021.2.3,59.926601618503284,
8,8,0,1,3,3,1,1,0,1,1,1,0,1,0,0,4,4,4,,,,,,,,,,,,,,,,,,,,,,,,,,,,,,24,22,female,24,2022_May_11_1526,Partial repeat,2021.2.3,59.926601618503284,
8,8,0,1,2,2,1,2,0,0,1,0,1,1,0,0,5,5,5,0,0,0,0,,,,,,,293.08451410010457,None,294.5672390013933,None,295.5148297008127,None,l,1,0.5153513997793198,295.5148297008127,None,None,None,,,,,,,24,22,female,24,2022_May_11_1526,Partial repeat,2021.2.3,59.926601618503284,
8,8,0,1,2,2,1,2,0,0,1,0,1,1,0,0,5,5,5,1,0,1,0,,,,,,,,,296.0485133007169,None,296.8837933000177,None,l,1,0.41060169972479343,296.8837933000177,None,None,None,,,,,,,24,22,female,24,2022_May_11_1526,Partial repeat,2021.2.3,59.926601618503284,
8,8,0,1,2,2,1,2,0,0,1,0,1,1,0,0,5,5,5,,,,,,,,,,,,,,,,,,,,,,,,,,,,,,24,22,female,24,2022_May_11_1526,Partial repeat,2021.2.3,59.926601618503284,
8,8,0,1,2,2,1,1,0,1,1,1,0,1,0,0,6,6,6,0,0,0,0,,,,,,,297.3167364001274,None,298.40805950015783,None,299.388670200482,None,l,1,0.465515099465847,299.388670200482,None,None,None,,,,,,,24,22,female,24,2022_May_11_1526,Partial repeat,2021.2.3,59.926601618503284,
8,8,0,1,2,2,1,1,0,1,1,1,0,1,0,0,6,6,6,1,0,1,0,,,,,,,,,299.87855420075357,None,300.79155649989843,None,s,1,0.47861750051379204,300.79155649989843,None,None,None,,,,,,,24,22,female,24,2022_May_11_1526,Partial repeat,2021.2.3,59.926601618503284,
8,8,0,1,2,2,1,1,0,1,1,1,0,1,0,0,6,6,6,,,,,,,,,,,,,,,,,,,,,,,,,,,,,,24,22,female,24,2022_May_11_1526,Partial repeat,2021.2.3,59.926601618503284,
8,8,0,1,2,3,1,1,0,1,0,1,0,1,0,0,7,7,7,0,0,0,0,,,,,,,301.2907138001174,None,302.2153823003173,None,302.995813800022,None,l,1,0.5383621994405985,302.995813800022,None,None,None,,,,,,,24,22,female,24,2022_May_11_1526,Partial repeat,2021.2.3,59.926601618503284,
8,8,0,1,2,3,1,1,0,1,0,1,0,1,0,0,7,7,7,1,0,1,0,,,,,,,,,303.55235830135643,None,304.3481642007828,None,s,1,0.4500711001455784,304.3481642007828,None,None,None,,,,,,,24,22,female,24,2022_May_11_1526,Partial repeat,2021.2.3,59.926601618503284,
8,8,0,1,2,3,1,1,0,1,0,1,0,1,0,0,7,7,7,,,,,,,,,,,,,,,,,,,,,,,,,,,,,,24,22,female,24,2022_May_11_1526,Partial repeat,2021.2.3,59.926601618503284,
8,8,0,1,3,3,1,1,0,0,1,1,1,1,0,0,8,8,8,0,0,0,0,,,,,,,304.8232417013496,None,309.9304317012429,None,310.74401920102537,None,l,1,0.43815349973738194,310.74401920102537,None,None,None,,,,,,,24,22,female,24,2022_May_11_1526,Partial repeat,2021.2.3,59.926601618503284,
8,8,0,1,3,3,1,1,0,0,1,1,1,1,0,0,8,8,8,1,0,1,0,,,,,,,,,311.199486900121,None,311.9795827008784,None,l,1,0.44255360029637814,311.9795827008784,None,None,None,,,,,,,24,22,female,24,2022_May_11_1526,Partial repeat,2021.2.3,59.926601618503284,
8,8,0,1,3,3,1,1,0,0,1,1,1,1,0,0,8,8,8,,,,,,,,,,,,,,,,,,,,,,,,,,,,,,24,22,female,24,2022_May_11_1526,Partial repeat,2021.2.3,59.926601618503284,
8,8,0,1,3,2,2,1,0,1,0,0,0,1,0,0,9,9,9,0,0,0,0,,,,,,,312.43334230035543,None,315.0069508999586,None,315.83737930096686,None,l,1,0.4647300001233816,315.83737930096686,None,None,None,,,,,,,24,22,female,24,2022_May_11_1526,Partial repeat,2021.2.3,59.926601618503284,
8,8,0,1,3,2,2,1,0,1,0,0,0,1,0,0,9,9,9,1,0,1,0,,,,,,,,,316.31123760156333,None,317.3236567005515,None,s,1,0.41051160171628,317.3236567005515,None,None,None,,,,,,,24,22,female,24,2022_May_11_1526,Partial repeat,2021.2.3,59.926601618503284,
8,8,0,1,3,2,2,1,0,1,0,0,0,1,0,0,9,9,9,,,,,,,,,,,,,,,,,,,,,,,,,,,,,,24,22,female,24,2022_May_11_1526,Partial repeat,2021.2.3,59.926601618503284,
8,8,0,1,3,3,2,1,0,0,1,0,1,1,0,0,10,10,10,0,0,0,0,,,,,,,317.760330401361,None,319.0148038007319,None,319.8284541014582,None,l,1,0.46583469957113266,319.8284541014582,None,None,None,,,,,,,24,22,female,24,2022_May_11_1526,Partial repeat,2021.2.3,59.926601618503284,
8,8,0,1,3,3,2,1,0,0,1,0,1,1,0,0,10,10,10,1,0,1,0,,,,,,,,,320.3224232997745,None,321.1976696997881,None,l,1,0.39249080047011375,321.1976696997881,None,None,None,,,,,,,24,22,female,24,2022_May_11_1526,Partial repeat,2021.2.3,59.926601618503284,
8,8,0,1,3,3,2,1,0,0,1,0,1,1,0,0,10,10,10,,,,,,,,,,,,,,,,,,,,,,,,,,,,,,24,22,female,24,2022_May_11_1526,Partial repeat,2021.2.3,59.926601618503284,
8,8,0,1,2,2,2,2,1,0,1,1,0,1,0,0,11,11,11,0,0,0,0,,,,,,,321.6101059000939,None,322.4714903011918,None,323.3520450014621,None,s,1,0.6861207000911236,323.3520450014621,None,None,None,,,,,,,24,22,female,24,2022_May_11_1526,Partial repeat,2021.2.3,59.926601618503284,
8,8,0,1,2,2,2,2,1,0,1,1,0,1,0,0,11,11,11,1,0,1,0,,,,,,,,,324.05527720041573,None,324.93851430155337,None,l,1,0.4196450989693403,324.93851430155337,None,None,None,,,,,,,24,22,female,24,2022_May_11_1526,Partial repeat,2021.2.3,59.926601618503284,
8,8,0,1,2,2,2,2,1,0,1,1,0,1,0,0,11,11,11,,,,,,,,,,,,,,,,,,,,,,,,,,,,,,24,22,female,24,2022_May_11_1526,Partial repeat,2021.2.3,59.926601618503284,
8,8,0,1,2,2,2,2,0,1,1,1,0,1,0,0,12,12,12,0,0,0,0,,,,,,,325.3723605014384,None,326.2622485011816,None,326.9926655013114,None,l,1,0.42153820022940636,326.9926655013114,None,None,None,,,,,,,24,22,female,24,2022_May_11_1526,Partial repeat,2021.2.3,59.926601618503284,
8,8,0,1,2,2,2,2,0,1,1,1,0,1,0,0,12,12,12,1,0,1,0,,,,,,,,,327.42202940024436,None,328.2615048009902,None,s,1,0.4086624011397362,328.2615048009902,None,None,None,,,,,,,24,22,female,24,2022_May_11_1526,Partial repeat,2021.2.3,59.926601618503284,
8,8,0,1,2,2,2,2,0,1,1,1,0,1,0,0,12,12,12,,,,,,,,,,,,,,,,,,,,,,,,,,,,,,24,22,female,24,2022_May_11_1526,Partial repeat,2021.2.3,59.926601618503284,
8,8,0,1,3,2,2,2,0,0,0,1,1,1,0,0,13,13,13,0,0,0,0,,,,,,,328.69563660025597,None,329.6521469000727,None,330.39929040148854,None,l,1,0.4229036998003721,330.39929040148854,None,None,None,,,,,,,24,22,female,24,2022_May_11_1526,Partial repeat,2021.2.3,59.926601618503284,
8,8,0,1,3,2,2,2,0,0,0,1,1,1,0,0,13,13,13,1,0,1,0,,,,,,,,,330.84716830030084,None,331.60151670128107,None,l,1,0.3966426011174917,331.60151670128107,None,None,None,,,,,,,24,22,female,24,2022_May_11_1526,Partial repeat,2021.2.3,59.926601618503284,
8,8,0,1,3,2,2,2,0,0,0,1,1,1,0,0,13,13,13,,,,,,,,,,,,,,,,,,,,,,,,,,,,,,24,22,female,24,2022_May_11_1526,Partial repeat,2021.2.3,59.926601618503284,
8,8,0,1,3,3,2,1,1,1,1,0,1,1,0,0,14,14,14,0,0,0,0,,,,,,,332.0150164999068,None,332.80828390084207,None,333.8062443006784,None,s,1,0.40008769929409027,333.8062443006784,None,None,None,,,,,,,24,22,female,24,2022_May_11_1526,Partial repeat,2021.2.3,59.926601618503284,
8,8,0,1,3,3,2,1,1,1,1,0,1,1,0,0,14,14,14,1,0,1,0,,,,,,,,,334.23264770023525,None,335.008267801255,None,s,1,0.39788289926946163,335.008267801255,None,None,None,,,,,,,24,22,female,24,2022_May_11_1526,Partial repeat,2021.2.3,59.926601618503284,
8,8,0,1,3,3,2,1,1,1,1,0,1,1,0,0,14,14,14,,,,,,,,,,,,,,,,,,,,,,,,,,,,,,24,22,female,24,2022_May_11_1526,Partial repeat,2021.2.3,59.926601618503284,
8,8,0,1,3,3,1,1,1,1,1,1,1,1,0,0,15,15,15,0,0,0,0,,,,,,,335.4223237000406,None,336.06445210054517,None,337.0620594006032,None,s,1,0.4880950003862381,337.0620594006032,None,None,None,,,,,,,24,22,female,24,2022_May_11_1526,Partial repeat,2021.2.3,59.926601618503284,
8,8,0,1,3,3,1,1,1,1,1,1,1,1,0,0,15,15,15,1,0,1,0,,,,,,,,,337.5744812004268,None,338.43218819983304,None,s,1,0.3579718004912138,338.43218819983304,None,None,None,,,,,,,24,22,female,24,2022_May_11_1526,Partial repeat,2021.2.3,59.926601618503284,
8,8,0,1,3,3,1,1,1,1,1,1,1,1,0,0,15,15,15,,,,,,,,,,,,,,,,,,,,,,,,,,,,,,24,22,female,24,2022_May_11_1526,Partial repeat,2021.2.3,59.926601618503284,
8,8,0,1,3,2,1,1,0,0,0,1,1,1,0,0,16,16,16,0,0,0,0,,,,,,,338.806533601135,None,340.05562490038574,None,340.8525915015489,None,l,1,0.4016418997198343,340.8525915015489,None,None,None,,,,,,,24,22,female,24,2022_May_11_1526,Partial repeat,2021.2.3,59.926601618503284,
8,8,0,1,3,2,1,1,0,0,0,1,1,1,0,0,16,16,16,1,0,1,0,,,,,,,,,341.2823290005326,None,342.3056372012943,None,l,1,0.38046929985284805,342.3056372012943,None,None,None,,,,,,,24,22,female,24,2022_May_11_1526,Partial repeat,2021.2.3,59.926601618503284,
8,8,0,1,3,2,1,1,0,0,0,1,1,1,0,0,16,16,16,,,,,,,,,,,,,,,,,,,,,,,,,,,,,,24,22,female,24,2022_May_11_1526,Partial repeat,2021.2.3,59.926601618503284,
8,8,0,1,2,2,2,2,0,0,1,1,1,1,0,0,17,17,17,0,0,0,0,,,,,,,342.6977603007108,None,343.3788234014064,None,344.21062809973955,None,l,1,0.5075317993760109,344.21062809973955,None,None,None,,,,,,,24,22,female,24,2022_May_11_1526,Partial repeat,2021.2.3,59.926601618503284,
8,8,0,1,2,2,2,2,0,0,1,1,1,1,0,0,17,17,17,1,0,1,0,,,,,,,,,344.74170430004597,None,345.51190230064094,None,l,1,0.4062488991767168,345.51190230064094,None,None,None,,,,,,,24,22,female,24,2022_May_11_1526,Partial repeat,2021.2.3,59.926601618503284,
8,8,0,1,2,2,2,2,0,0,1,1,1,1,0,0,17,17,17,,,,,,,,,,,,,,,,,,,,,,,,,,,,,,24,22,female,24,2022_May_11_1526,Partial repeat,2021.2.3,59.926601618503284,
8,8,0,1,2,3,1,2,0,0,0,0,1,1,0,0,18,18,18,0,0,0,0,,,,,,,345.945561401546,None,346.7187044005841,None,347.46569250151515,None,l,1,0.4044556003063917,347.46569250151515,None,None,None,,,,,,,24,22,female,24,2022_May_11_1526,Partial repeat,2021.2.3,59.926601618503284,
8,8,0,1,2,3,1,2,0,0,0,0,1,1,0,0,18,18,18,1,0,1,0,,,,,,,,,347.88446940109134,None,348.65151020139456,None,l,1,0.37064010091125965,348.65151020139456,None,None,None,,,,,,,24,22,female,24,2022_May_11_1526,Partial repeat,2021.2.3,59.926601618503284,
8,8,0,1,2,3,1,2,0,0,0,0,1,1,0,0,18,18,18,,,,,,,,,,,,,,,,,,,,,,,,,,,,,,24,22,female,24,2022_May_11_1526,Partial repeat,2021.2.3,59.926601618503284,
8,8,0,1,2,3,2,1,0,1,0,0,0,1,0,0,19,19,19,0,0,0,0,,,,,,,349.04731720127165,None,350.1753440015018,None,351.0223814006895,None,l,1,0.36777250096201897,351.0223814006895,None,None,None,,,,,,,24,22,female,24,2022_May_11_1526,Partial repeat,2021.2.3,59.926601618503284,
8,8,0,1,2,3,2,1,0,1,0,0,0,1,0,0,19,19,19,1,0,1,0,,,,,,,,,351.4080289006233,None,352.2416973002255,None,s,1,0.4445035997778177,352.2416973002255,None,None,None,,,,,,,24,22,female,24,2022_May_11_1526,Partial repeat,2021.2.3,59.926601618503284,
8,8,0,1,2,3,2,1,0,1,0,0,0,1,0,0,19,19,19,,,,,,,,,,,,,,,,,,,,,,,,,,,,,,24,22,female,24,2022_May_11_1526,Partial repeat,2021.2.3,59.926601618503284,
8,8,0,1,2,3,1,2,1,1,0,0,1,1,0,0,20,20,20,0,0,0,0,,,,,,,352.69652110151947,None,353.5319239012897,None,354.27858450077474,None,s,1,0.4076227992773056,354.27858450077474,None,None,None,,,,,,,24,22,female,24,2022_May_11_1526,Partial repeat,2021.2.3,59.926601618503284,
8,8,0,1,2,3,1,2,1,1,0,0,1,1,0,0,20,20,20,1,0,1,0,,,,,,,,,354.7089771013707,None,355.6321239005774,None,s,1,0.3900577016174793,355.6321239005774,None,None,None,,,,,,,24,22,female,24,2022_May_11_1526,Partial repeat,2021.2.3,59.926601618503284,
8,8,0,1,2,3,1,2,1,1,0,0,1,1,0,0,20,20,20,,,,,,,,,,,,,,,,,,,,,,,,,,,,,,24,22,female,24,2022_May_11_1526,Partial repeat,2021.2.3,59.926601618503284,
8,8,0,1,3,2,1,2,1,1,0,0,1,1,0,0,21,21,21,0,0,0,0,,,,,,,356.0412170998752,None,356.8215314000845,None,357.73546530120075,None,s,1,0.4547431003302336,357.73546530120075,None,None,None,,,,,,,24,22,female,24,2022_May_11_1526,Partial repeat,2021.2.3,59.926601618503284,
8,8,0,1,3,2,1,2,1,1,0,0,1,1,0,0,21,21,21,1,0,1,0,,,,,,,,,358.20799420028925,None,358.9711176007986,None,s,1,0.38698730058968067,358.9711176007986,None,None,None,,,,,,,24,22,female,24,2022_May_11_1526,Partial repeat,2021.2.3,59.926601618503284,
8,8,0,1,3,2,1,2,1,1,0,0,1,1,0,0,21,21,21,,,,,,,,,,,,,,,,,,,,,,,,,,,,,,24,22,female,24,2022_May_11_1526,Partial repeat,2021.2.3,59.926601618503284,
8,8,0,1,3,2,1,1,0,1,0,1,0,1,0,0,22,22,22,0,0,0,0,,,,,,,359.3860923014581,None,360.54554050043225,None,361.34243470057845,None,l,1,0.4397576991468668,361.34243470057845,None,None,None,,,,,,,24,22,female,24,2022_May_11_1526,Partial repeat,2021.2.3,59.926601618503284,
8,8,0,1,3,2,1,1,0,1,0,1,0,1,0,0,22,22,22,1,0,1,0,,,,,,,,,361.79090090095997,None,362.66167210042477,None,s,1,0.33652150072157383,362.66167210042477,None,None,None,,,,,,,24,22,female,24,2022_May_11_1526,Partial repeat,2021.2.3,59.926601618503284,
8,8,0,1,3,2,1,1,0,1,0,1,0,1,0,0,22,22,22,,,,,,,,,,,,,,,,,,,,,,,,,,,,,,24,22,female,24,2022_May_11_1526,Partial repeat,2021.2.3,59.926601618503284,
8,8,0,1,2,3,2,2,1,1,0,1,1,1,0,0,23,23,23,0,0,0,0,,,,,,,363.00852890126407,None,363.65159260109067,None,364.63243450038135,None,s,1,0.4857301991432905,364.63243450038135,None,None,None,,,,,,,24,22,female,24,2022_May_11_1526,Partial repeat,2021.2.3,59.926601618503284,
8,8,0,1,2,3,2,2,1,1,0,1,1,1,0,0,23,23,23,1,0,1,0,,,,,,,,,365.1419441010803,None,366.00177570059896,None,s,1,0.3403626009821892,366.00177570059896,None,None,None,,,,,,,24,22,female,24,2022_May_11_1526,Partial repeat,2021.2.3,59.926601618503284,
8,8,0,1,2,3,2,2,1,1,0,1,1,1,0,0,23,23,23,,,,,,,,,,,,,,,,,,,,,,,,,,,,,,24,22,female,24,2022_May_11_1526,Partial repeat,2021.2.3,59.926601618503284,
8,8,0,1,3,3,2,2,1,0,1,1,0,1,0,0,24,24,24,0,0,0,0,,,,,,,366.3723435997963,None,366.95804470032454,None,367.8053756002337,None,s,1,0.40079900063574314,367.8053756002337,None,None,None,,,,,,,24,22,female,24,2022_May_11_1526,Partial repeat,2021.2.3,59.926601618503284,
8,8,0,1,3,3,2,2,1,0,1,1,0,1,0,0,24,24,24,1,0,1,0,,,,,,,,,368.2346195001155,None,369.09091209992766,None,s,0,0.37122620083391666,369.09091209992766,None,369.48203339986503,None,,,,,,,24,22,female,24,2022_May_11_1526,Partial repeat,2021.2.3,59.926601618503284,
8,8,0,1,3,3,2,2,1,0,1,1,0,1,0,0,24,24,24,,,,,,,,,,,,,,,,,,,,,,,,,,,,,,24,22,female,24,2022_May_11_1526,Partial repeat,2021.2.3,59.926601618503284,
8,8,0,1,2,2,1,2,1,0,1,0,0,1,0,0,25,25,25,0,0,0,0,,,,,,,369.9973268005997,None,370.9658650010824,None,371.696220099926,None,s,1,0.4139155987650156,371.696220099926,None,None,None,,,,,,,24,22,female,24,2022_May_11_1526,Partial repeat,2021.2.3,59.926601618503284,
8,8,0,1,2,2,1,2,1,0,1,0,0,1,0,0,25,25,25,1,0,1,0,,,,,,,,,372.1268704999238,None,372.93159230053425,None,l,1,0.4105412997305393,372.93159230053425,None,None,None,,,,,,,24,22,female,24,2022_May_11_1526,Partial repeat,2021.2.3,59.926601618503284,
8,8,0,1,2,2,1,2,1,0,1,0,0,1,0,0,25,25,25,,,,,,,,,,,,,,,,,,,,,,,,,,,,,,24,22,female,24,2022_May_11_1526,Partial repeat,2021.2.3,59.926601618503284,
8,8,0,1,3,3,2,1,1,0,1,0,0,1,0,0,26,26,26,0,0,0,0,,,,,,,373.36477239988744,None,374.5728051010519,None,375.55442050099373,None,s,1,0.37171549908816814,375.55442050099373,None,None,None,,,,,,,24,22,female,24,2022_May_11_1526,Partial repeat,2021.2.3,59.926601618503284,
8,8,0,1,3,3,2,1,1,0,1,0,0,1,0,0,26,26,26,1,0,1,0,,,,,,,,,375.938509400934,None,376.8235865011811,None,l,1,0.42254910059273243,376.8235865011811,None,None,None,,,,,,,24,22,female,24,2022_May_11_1526,Partial repeat,2021.2.3,59.926601618503284,
8,8,0,1,3,3,2,1,1,0,1,0,0,1,0,0,26,26,26,,,,,,,,,,,,,,,,,,,,,,,,,,,,,,24,22,female,24,2022_May_11_1526,Partial repeat,2021.2.3,59.926601618503284,
8,8,0,1,2,2,2,2,1,1,1,1,1,1,0,0,27,27,27,0,0,0,0,,,,,,,377.27722110040486,None,378.36356840096414,None,379.3274642005563,None,s,1,0.5106712002307177,379.3274642005563,None,None,None,,,,,,,24,22,female,24,2022_May_11_1526,Partial repeat,2021.2.3,59.926601618503284,
8,8,0,1,2,2,2,2,1,1,1,1,1,1,0,0,27,27,27,1,0,1,0,,,,,,,,,379.86204950138927,None,380.71385600045323,None,s,1,0.38828169927001,380.71385600045323,None,None,None,,,,,,,24,22,female,24,2022_May_11_1526,Partial repeat,2021.2.3,59.926601618503284,
8,8,0,1,2,2,2,2,1,1,1,1,1,1,0,0,27,27,27,,,,,,,,,,,,,,,,,,,,,,,,,,,,,,24,22,female,24,2022_May_11_1526,Partial repeat,2021.2.3,59.926601618503284,
8,8,0,1,2,3,2,1,0,0,0,0,1,1,0,0,28,28,28,0,0,0,0,,,,,,,381.1290303003043,None,381.8369895014912,None,382.58428960107267,None,l,1,0.46193090081214905,382.58428960107267,None,None,None,,,,,,,24,22,female,24,2022_May_11_1526,Partial repeat,2021.2.3,59.926601618503284,
8,8,0,1,2,3,2,1,0,0,0,0,1,1,0,0,28,28,28,1,0,1,0,,,,,,,,,383.0561834014952,None,383.8699329011142,None,l,1,0.37619709968566895,383.8699329011142,None,None,None,,,,,,,24,22,female,24,2022_May_11_1526,Partial repeat,2021.2.3,59.926601618503284,
8,8,0,1,2,3,2,1,0,0,0,0,1,1,0,0,28,28,28,,,,,,,,,,,,,,,,,,,,,,,,,,,,,,24,22,female,24,2022_May_11_1526,Partial repeat,2021.2.3,59.926601618503284,
8,8,0,1,3,2,2,2,0,1,0,1,0,1,0,0,29,29,29,0,0,0,0,,,,,,,384.2603047005832,None,385.2937468998134,None,386.257588500157,None,l,1,0.3965455014258623,386.257588500157,None,None,None,,,,,,,24,22,female,24,2022_May_11_1526,Partial repeat,2021.2.3,59.926601618503284,
8,8,0,1,3,2,2,2,0,1,0,1,0,1,0,0,29,29,29,1,0,1,0,,,,,,,,,386.670884700492,None,387.6772313006222,None,s,1,0.44890790060162544,387.6772313006222,None,None,None,,,,,,,24,22,female,24,2022_May_11_1526,Partial repeat,2021.2.3,59.926601618503284,
8,8,0,1,3,2,2,2,0,1,0,1,0,1,0,0,29,29,29,,,,,,,,,,,,,,,,,,,,,,,,,,,,,,24,22,female,24,2022_May_11_1526,Partial repeat,2021.2.3,59.926601618503284,
8,8,0,1,2,2,1,1,1,0,1,1,0,1,0,0,30,30,30,0,0,0,0,,,,,,,388.1566968001425,None,388.8506573997438,None,389.71433370001614,None,s,1,0.44382630102336407,389.71433370001614,None,None,None,,,,,,,24,22,female,24,2022_May_11_1526,Partial repeat,2021.2.3,59.926601618503284,
8,8,0,1,2,2,1,1,1,0,1,1,0,1,0,0,30,30,30,1,0,1,0,,,,,,,,,390.1841184012592,None,390.9674158003181,None,l,1,0.39072530157864094,390.9674158003181,None,None,None,,,,,,,24,22,female,24,2022_May_11_1526,Partial repeat,2021.2.3,59.926601618503284,
8,8,0,1,2,2,1,1,1,0,1,1,0,1,0,0,30,30,30,,,,,,,,,,,,,,,,,,,,,,,,,,,,,,24,22,female,24,2022_May_11_1526,Partial repeat,2021.2.3,59.926601618503284,
8,8,0,1,3,2,1,2,1,0,0,0,0,1,0,0,31,31,31,0,0,0,0,,,,,,,391.38319130055606,None,392.09028900042176,None,392.9875419009477,None,s,1,0.402640700340271,392.9875419009477,None,None,None,,,,,,,24,22,female,24,2022_May_11_1526,Partial repeat,2021.2.3,59.926601618503284,
8,8,0,1,3,2,1,2,1,0,0,0,0,1,0,0,31,31,31,1,0,1,0,,,,,,,,,393.4169287998229,None,394.17290659993887,None,l,1,0.38522399961948395,394.17290659993887,None,None,None,,,,,,,24,22,female,24,2022_May_11_1526,Partial repeat,2021.2.3,59.926601618503284,
8,8,0,1,3,2,1,2,1,0,0,0,0,1,0,0,31,31,31,,,,,,,,,,,,,,,,,,,,,,,,,,,,,,24,22,female,24,2022_May_11_1526,Partial repeat,2021.2.3,59.926601618503284,
8,8,0,1,3,2,1,2,0,1,0,0,0,1,0,0,32,32,32,0,0,0,0,,,,,,,394.58293060027063,None,395.46349550038576,None,396.39395180158317,None,l,1,0.4202034007757902,396.39395180158317,None,None,None,,,,,,,24,22,female,24,2022_May_11_1526,Partial repeat,2021.2.3,59.926601618503284,
8,8,0,1,3,2,1,2,0,1,0,0,0,1,0,0,32,32,32,1,0,1,0,,,,,,,,,396.82283520139754,None,397.6802118010819,None,s,1,0.3658901993185282,397.6802118010819,None,None,None,,,,,,,24,22,female,24,2022_May_11_1526,Partial repeat,2021.2.3,59.926601618503284,
8,8,0,1,3,2,1,2,0,1,0,0,0,1,0,0,32,32,32,,,,,,,,,,,,,,,,,,,,,,,,,,,,,,24,22,female,24,2022_May_11_1526,Partial repeat,2021.2.3,59.926601618503284,
8,8,0,1,3,3,1,2,0,1,1,0,0,1,0,0,33,33,33,0,0,0,0,,,,,,,398.0701812002808,None,398.6697462014854,None,399.53367000073195,None,l,1,0.4005113001912832,399.53367000073195,None,None,None,,,,,,,24,22,female,24,2022_May_11_1526,Partial repeat,2021.2.3,59.926601618503284,
8,8,0,1,3,3,1,2,0,1,1,0,0,1,0,0,33,33,33,1,0,1,0,,,,,,,,,399.94294250011444,None,400.73579790070653,None,s,1,0.3984245993196964,400.73579790070653,None,None,None,,,,,,,24,22,female,24,2022_May_11_1526,Partial repeat,2021.2.3,59.926601618503284,
8,8,0,1,3,3,1,2,0,1,1,0,0,1,0,0,33,33,33,,,,,,,,,,,,,,,,,,,,,,,,,,,,,,24,22,female,24,2022_May_11_1526,Partial repeat,2021.2.3,59.926601618503284,
8,8,0,1,3,2,2,1,1,1,0,0,1,1,0,0,34,34,34,0,0,0,0,,,,,,,401.1465287003666,None,401.85927700065076,None,402.83985560014844,None,s,1,0.39826809987425804,402.83985560014844,None,None,None,,,,,,,24,22,female,24,2022_May_11_1526,Partial repeat,2021.2.3,59.926601618503284,
8,8,0,1,3,2,2,1,1,1,0,0,1,1,0,0,34,34,34,1,0,1,0,,,,,,,,,403.252035100013,None,404.259389501065,None,s,1,0.32267360016703606,404.259389501065,None,None,None,,,,,,,24,22,female,24,2022_May_11_1526,Partial repeat,2021.2.3,59.926601618503284,
8,8,0,1,3,2,2,1,1,1,0,0,1,1,0,0,34,34,34,,,,,,,,,,,,,,,,,,,,,,,,,,,,,,24,22,female,24,2022_May_11_1526,Partial repeat,2021.2.3,59.926601618503284,
8,8,0,1,2,2,2,1,1,0,1,0,0,1,0,0,35,35,35,0,0,0,0,,,,,,,404.6065785009414,None,405.1656942013651,None,406.1799155008048,None,s,1,0.47420440055429935,406.1799155008048,None,None,None,,,,,,,24,22,female,24,2022_May_11_1526,Partial repeat,2021.2.3,59.926601618503284,
8,8,0,1,2,2,2,1,1,0,1,0,0,1,0,0,35,35,35,1,0,1,0,,,,,,,,,406.66914610005915,None,407.4487945009023,None,l,1,0.389359999448061,407.4487945009023,None,None,None,,,,,,,24,22,female,24,2022_May_11_1526,Partial repeat,2021.2.3,59.926601618503284,
8,8,0,1,2,2,2,1,1,0,1,0,0,1,0,0,35,35,35,,,,,,,,,,,,,,,,,,,,,,,,,,,,,,24,22,female,24,2022_May_11_1526,Partial repeat,2021.2.3,59.926601618503284,
8,8,0,1,3,2,2,1,1,0,0,0,0,1,0,0,36,36,36,0,0,0,0,,,,,,,407.84997810050845,None,408.50556410104036,None,409.23661900125444,None,s,1,0.4094958007335663,409.23661900125444,None,None,None,,,,,,,24,22,female,24,2022_May_11_1526,Partial repeat,2021.2.3,59.926601618503284,
8,8,0,1,3,2,2,1,1,0,0,0,0,1,0,0,36,36,36,1,0,1,0,,,,,,,,,409.66513810120523,None,410.67171800136566,None,l,1,0.414410300552845,410.67171800136566,None,None,None,,,,,,,24,22,female,24,2022_May_11_1526,Partial repeat,2021.2.3,59.926601618503284,
8,8,0,1,3,2,2,1,1,0,0,0,0,1,0,0,36,36,36,,,,,,,,,,,,,,,,,,,,,,,,,,,,,,24,22,female,24,2022_May_11_1526,Partial repeat,2021.2.3,59.926601618503284,
8,8,0,1,3,3,1,1,1,0,1,1,0,1,0,0,37,37,37,0,0,0,0,,,,,,,411.10759290121496,None,411.87878780066967,None,412.8593515008688,None,s,1,0.4347989000380039,412.8593515008688,None,None,None,,,,,,,24,22,female,24,2022_May_11_1526,Partial repeat,2021.2.3,59.926601618503284,
8,8,0,1,3,3,1,1,1,0,1,1,0,1,0,0,37,37,37,1,0,1,0,,,,,,,,,413.310543499887,None,414.0952844005078,None,l,1,0.39886519871652126,414.0952844005078,None,None,None,,,,,,,24,22,female,24,2022_May_11_1526,Partial repeat,2021.2.3,59.926601618503284,
8,8,0,1,3,3,1,1,1,0,1,1,0,1,0,0,37,37,37,,,,,,,,,,,,,,,,,,,,,,,,,,,,,,24,22,female,24,2022_May_11_1526,Partial repeat,2021.2.3,59.926601618503284,
8,8,0,1,2,3,1,1,1,1,0,1,1,1,0,0,38,38,38,0,0,0,0,,,,,,,414.51044490002096,None,418.0071945004165,None,418.93778810091317,None,s,1,0.42832519859075546,418.93778810091317,None,None,None,,,,,,,24,22,female,24,2022_May_11_1526,Partial repeat,2021.2.3,59.926601618503284,
8,8,0,1,2,3,1,1,1,1,0,1,1,1,0,0,38,38,38,1,0,1,0,,,,,,,,,419.38749490119517,None,420.1401725001633,None,s,1,0.5619777012616396,420.1401725001633,None,None,None,,,,,,,24,22,female,24,2022_May_11_1526,Partial repeat,2021.2.3,59.926601618503284,
8,8,0,1,2,3,1,1,1,1,0,1,1,1,0,0,38,38,38,,,,,,,,,,,,,,,,,,,,,,,,,,,,,,24,22,female,24,2022_May_11_1526,Partial repeat,2021.2.3,59.926601618503284,
8,8,0,1,2,3,2,2,0,1,0,1,0,1,0,0,39,39,39,0,0,0,0,,,,,,,420.72953790053725,None,421.4975005015731,None,422.4114817008376,None,l,1,0.4186291005462408,422.4114817008376,None,None,None,,,,,,,24,22,female,24,2022_May_11_1526,Partial repeat,2021.2.3,59.926601618503284,
8,8,0,1,2,3,2,2,0,1,0,1,0,1,0,0,39,39,39,1,0,1,0,,,,,,,,,422.84335079975426,None,423.5801854003221,None,l,0,0.4019891992211342,423.5801854003221,None,423.9919426012784,None,,,,,,,24,22,female,24,2022_May_11_1526,Partial repeat,2021.2.3,59.926601618503284,
8,8,0,1,2,3,2,2,0,1,0,1,0,1,0,0,39,39,39,,,,,,,,,,,,,,,,,,,,,,,,,,,,,,24,22,female,24,2022_May_11_1526,Partial repeat,2021.2.3,59.926601618503284,
8,8,0,1,2,3,1,2,0,1,0,0,0,1,0,0,40,40,40,0,0,0,0,,,,,,,424.50337539985776,None,427.34219610132277,None,428.1892300006002,None,l,1,0.4888828992843628,428.1892300006002,None,None,None,,,,,,,24,22,female,24,2022_May_11_1526,Partial repeat,2021.2.3,59.926601618503284,
8,8,0,1,2,3,1,2,0,1,0,0,0,1,0,0,40,40,40,1,0,1,0,,,,,,,,,428.70475869998336,None,429.59207160025835,None,s,1,0.43004290014505386,429.59207160025835,None,None,None,,,,,,,24,22,female,24,2022_May_11_1526,Partial repeat,2021.2.3,59.926601618503284,
8,8,0,1,2,3,1,2,0,1,0,0,0,1,0,0,40,40,40,,,,,,,,,,,,,,,,,,,,,,,,,,,,,,24,22,female,24,2022_May_11_1526,Partial repeat,2021.2.3,59.926601618503284,
8,8,0,1,3,3,1,2,1,0,1,0,0,1,0,0,41,41,41,0,0,0,0,,,,,,,430.04779940098524,None,431.95115960016847,None,432.8150689005852,None,s,1,0.49504129961133003,432.8150689005852,None,None,None,,,,,,,24,22,female,24,2022_May_11_1526,Partial repeat,2021.2.3,59.926601618503284,
8,8,0,1,3,3,1,2,1,0,1,0,0,1,0,0,41,41,41,1,0,1,0,,,,,,,,,433.3292869012803,None,434.06756520085037,None,l,1,0.3705457001924515,434.06756520085037,None,None,None,,,,,,,24,22,female,24,2022_May_11_1526,Partial repeat,2021.2.3,59.926601618503284,
8,8,0,1,3,3,1,2,1,0,1,0,0,1,0,0,41,41,41,,,,,,,,,,,,,,,,,,,,,,,,,,,,,,24,22,female,24,2022_May_11_1526,Partial repeat,2021.2.3,59.926601618503284,
8,8,0,1,3,2,1,1,1,1,0,1,1,1,0,0,42,42,42,0,0,0,0,,,,,,,434.4576577004045,None,434.9737137015909,None,435.9045221004635,None,s,1,0.39759100042283535,435.9045221004635,None,None,None,,,,,,,24,22,female,24,2022_May_11_1526,Partial repeat,2021.2.3,59.926601618503284,
8,8,0,1,3,2,1,1,1,1,0,1,1,1,0,0,42,42,42,1,0,1,0,,,,,,,,,436.3201352003962,None,437.29013490118086,None,s,1,0.3799203000962734,437.29013490118086,None,None,None,,,,,,,24,22,female,24,2022_May_11_1526,Partial repeat,2021.2.3,59.926601618503284,
8,8,0,1,3,2,1,1,1,1,0,1,1,1,0,0,42,42,42,,,,,,,,,,,,,,,,,,,,,,,,,,,,,,24,22,female,24,2022_May_11_1526,Partial repeat,2021.2.3,59.926601618503284,
8,8,0,1,3,3,1,2,0,0,1,0,1,1,0,0,43,43,43,0,0,0,0,,,,,,,437.6808313000947,None,438.31336390040815,None,439.19412590004504,None,l,1,0.4039782006293535,439.19412590004504,None,None,None,,,,,,,24,22,female,24,2022_May_11_1526,Partial repeat,2021.2.3,59.926601618503284,
8,8,0,1,3,3,1,2,0,0,1,0,1,1,0,0,43,43,43,1,0,1,0,,,,,,,,,439.6243014000356,None,440.4297433011234,None,l,1,0.4323587007820606,440.4297433011234,None,None,None,,,,,,,24,22,female,24,2022_May_11_1526,Partial repeat,2021.2.3,59.926601618503284,
8,8,0,1,3,3,1,2,0,0,1,0,1,1,0,0,43,43,43,,,,,,,,,,,,,,,,,,,,,,,,,,,,,,24,22,female,24,2022_May_11_1526,Partial repeat,2021.2.3,59.926601618503284,
8,8,0,1,2,3,1,1,0,0,0,1,1,1,0,0,44,44,44,0,0,0,0,,,,,,,440.88632520101964,None,441.40283320099115,None,442.1999984998256,None,l,1,0.43811010010540485,442.1999984998256,None,None,None,,,,,,,24,22,female,24,2022_May_11_1526,Partial repeat,2021.2.3,59.926601618503284,
8,8,0,1,2,3,1,1,0,0,0,1,1,1,0,0,44,44,44,1,0,1,0,,,,,,,,,442.6532152015716,None,443.603801401332,None,l,1,0.4023123998194933,443.603801401332,None,None,None,,,,,,,24,22,female,24,2022_May_11_1526,Partial repeat,2021.2.3,59.926601618503284,
8,8,0,1,2,3,1,1,0,0,0,1,1,1,0,0,44,44,44,,,,,,,,,,,,,,,,,,,,,,,,,,,,,,24,22,female,24,2022_May_11_1526,Partial repeat,2021.2.3,59.926601618503284,
8,8,0,1,2,3,1,2,1,0,0,0,0,1,0,0,45,45,45,0,0,0,0,,,,,,,444.0368205010891,None,444.54233240149915,None,445.28914320096374,None,s,1,0.46098960004746914,445.28914320096374,None,None,None,,,,,,,24,22,female,24,2022_May_11_1526,Partial repeat,2021.2.3,59.926601618503284,
8,8,0,1,2,3,1,2,1,0,0,0,0,1,0,0,45,45,45,1,0,1,0,,,,,,,,,445.75835370086133,None,446.6252586003393,None,l,1,0.3888427000492811,446.6252586003393,None,None,None,,,,,,,24,22,female,24,2022_May_11_1526,Partial repeat,2021.2.3,59.926601618503284,
8,8,0,1,2,3,1,2,1,0,0,0,0,1,0,0,45,45,45,,,,,,,,,,,,,,,,,,,,,,,,,,,,,,24,22,female,24,2022_May_11_1526,Partial repeat,2021.2.3,59.926601618503284,
8,8,0,1,2,2,2,1,0,0,1,0,1,1,0,0,46,46,46,0,0,0,0,,,,,,,447.03907060064375,None,447.59825760126114,None,448.36172650009394,None,l,1,0.4203861001878977,448.36172650009394,None,None,None,,,,,,,24,22,female,24,2022_May_11_1526,Partial repeat,2021.2.3,59.926601618503284,
8,8,0,1,2,2,2,1,0,0,1,0,1,1,0,0,46,46,46,1,0,1,0,,,,,,,,,448.79301900044084,None,449.5807153005153,None,l,1,0.3933953996747732,449.5807153005153,None,None,None,,,,,,,24,22,female,24,2022_May_11_1526,Partial repeat,2021.2.3,59.926601618503284,
8,8,0,1,2,2,2,1,0,0,1,0,1,1,0,0,46,46,46,,,,,,,,,,,,,,,,,,,,,,,,,,,,,,24,22,female,24,2022_May_11_1526,Partial repeat,2021.2.3,59.926601618503284,
8,8,0,1,3,2,1,2,0,0,0,0,1,1,0,0,47,47,47,0,0,0,0,,,,,,,449.9932922013104,None,450.5371345002204,None,451.38428360037506,None,l,1,0.3898076005280018,451.38428360037506,None,None,None,,,,,,,24,22,female,24,2022_May_11_1526,Partial repeat,2021.2.3,59.926601618503284,
8,8,0,1,3,2,1,2,0,0,0,0,1,1,0,0,47,47,47,1,0,1,0,,,,,,,,,451.7929570004344,None,452.55328870005906,None,l,1,0.3648685999214649,452.55328870005906,None,None,None,,,,,,,24,22,female,24,2022_May_11_1526,Partial repeat,2021.2.3,59.926601618503284,
8,8,0,1,3,2,1,2,0,0,0,0,1,1,0,0,47,47,47,,,,,,,,,,,,,,,,,,,,,,,,,,,,,,24,22,female,24,2022_May_11_1526,Partial repeat,2021.2.3,59.926601618503284,
8,8,0,1,2,2,1,1,0,0,1,1,1,1,0,0,48,48,48,0,0,0,0,,,,,,,452.9440183006227,None,453.5598673000932,None,454.3404184002429,None,l,1,0.3857661001384258,454.3404184002429,None,None,None,,,,,,,24,22,female,24,2022_May_11_1526,Partial repeat,2021.2.3,59.926601618503284,
8,8,0,1,2,2,1,1,0,0,1,1,1,1,0,0,48,48,48,1,0,1,0,,,,,,,,,454.79281510040164,None,455.7597059998661,None,l,1,0.4143908992409706,455.7597059998661,None,None,None,,,,,,,24,22,female,24,2022_May_11_1526,Partial repeat,2021.2.3,59.926601618503284,
8,8,0,1,2,2,1,1,0,0,1,1,1,1,0,0,48,48,48,,,,,,,,,,,,,,,,,,,,,,,,,,,,,,24,22,female,24,2022_May_11_1526,Partial repeat,2021.2.3,59.926601618503284,
8,8,0,1,2,3,1,1,1,0,0,1,0,1,0,0,49,49,49,0,0,0,0,,,,,,,456.1928612012416,None,456.9998503997922,None,457.91448670066893,None,s,1,0.4915858004242182,457.91448670066893,None,None,None,,,,,,,24,22,female,24,2022_May_11_1526,Partial repeat,2021.2.3,59.926601618503284,
8,8,0,1,2,3,1,1,1,0,0,1,0,1,0,0,49,49,49,1,0,1,0,,,,,,,,,458.4313367009163,None,459.3166777007282,None,l,1,0.4254713002592325,459.3166777007282,None,None,None,,,,,,,24,22,female,24,2022_May_11_1526,Partial repeat,2021.2.3,59.926601618503284,
8,8,0,1,2,3,1,1,1,0,0,1,0,1,0,0,49,49,49,,,,,,,,,,,,,,,,,,,,,,,,,,,,,,24,22,female,24,2022_May_11_1526,Partial repeat,2021.2.3,59.926601618503284,
8,8,0,1,3,3,2,1,0,1,1,0,0,1,0,0,50,50,50,0,0,0,0,,,,,,,459.75353860110044,None,460.3062744997442,None,461.0365257002413,None,l,1,0.44166829995810986,461.0365257002413,None,None,None,,,,,,,24,22,female,24,2022_May_11_1526,Partial repeat,2021.2.3,59.926601618503284,
8,8,0,1,3,3,2,1,0,1,1,0,0,1,0,0,50,50,50,1,0,1,0,,,,,,,,,461.48660520091653,None,462.456621600315,None,s,1,0.5574741009622812,462.456621600315,None,None,None,,,,,,,24,22,female,24,2022_May_11_1526,Partial repeat,2021.2.3,59.926601618503284,
8,8,0,1,3,3,2,1,0,1,1,0,0,1,0,0,50,50,50,,,,,,,,,,,,,,,,,,,,,,,,,,,,,,24,22,female,24,2022_May_11_1526,Partial repeat,2021.2.3,59.926601618503284,
8,8,0,1,2,2,2,1,1,1,1,0,1,1,0,0,51,51,51,0,0,0,0,,,,,,,463.04125479981303,None,463.54584970138967,None,464.50989060103893,None,s,1,0.43221209943294525,464.50989060103893,None,None,None,,,,,,,24,22,female,24,2022_May_11_1526,Partial repeat,2021.2.3,59.926601618503284,
8,8,0,1,2,2,2,1,1,1,1,0,1,1,0,0,51,51,51,1,0,1,0,,,,,,,,,464.963579300791,None,465.6953877005726,None,s,1,0.46270230039954185,465.6953877005726,None,None,None,,,,,,,24,22,female,24,2022_May_11_1526,Partial repeat,2021.2.3,59.926601618503284,
8,8,0,1,2,2,2,1,1,1,1,0,1,1,0,0,51,51,51,,,,,,,,,,,,,,,,,,,,,,,,,,,,,,24,22,female,24,2022_May_11_1526,Partial repeat,2021.2.3,59.926601618503284,
8,8,0,1,3,3,2,2,0,1,1,1,0,1,0,0,52,52,52,0,0,0,0,,,,,,,466.174554400146,None,466.7354809008539,None,467.6661882009357,None,l,1,0.46789349988102913,467.6661882009357,None,None,None,,,,,,,24,22,female,24,2022_May_11_1526,Partial repeat,2021.2.3,59.926601618503284,
8,8,0,1,3,3,2,2,0,1,1,1,0,1,0,0,52,52,52,1,0,1,0,,,,,,,,,468.14867090061307,None,468.98537000082433,None,s,1,0.44479139894247055,468.98537000082433,None,None,None,,,,,,,24,22,female,24,2022_May_11_1526,Partial repeat,2021.2.3,59.926601618503284,
8,8,0,1,3,3,2,2,0,1,1,1,0,1,0,0,52,52,52,,,,,,,,,,,,,,,,,,,,,,,,,,,,,,24,22,female,24,2022_May_11_1526,Partial repeat,2021.2.3,59.926601618503284,
8,8,0,1,2,2,1,1,1,1,1,1,1,1,0,0,53,53,53,0,0,0,0,,,,,,,469.442630501464,None,469.9250064007938,None,470.7555584013462,None,s,1,0.4345315992832184,470.7555584013462,None,None,None,,,,,,,24,22,female,24,2022_May_11_1526,Partial repeat,2021.2.3,59.926601618503284,
8,8,0,1,2,2,1,1,1,1,1,1,1,1,0,0,53,53,53,1,0,1,0,,,,,,,,,471.2052607014775,None,472.1249109003693,None,s,1,0.4091712012887001,472.1249109003693,None,None,None,,,,,,,24,22,female,24,2022_May_11_1526,Partial repeat,2021.2.3,59.926601618503284,
8,8,0,1,2,2,1,1,1,1,1,1,1,1,0,0,53,53,53,,,,,,,,,,,,,,,,,,,,,,,,,,,,,,24,22,female,24,2022_May_11_1526,Partial repeat,2021.2.3,59.926601618503284,
8,8,0,1,3,3,1,2,1,1,1,0,1,1,0,0,54,54,54,0,0,0,0,,,,,,,472.55784800089896,None,473.1479364000261,None,474.1456570997834,None,s,1,0.3725607991218567,474.1456570997834,None,None,None,,,,,,,24,22,female,24,2022_May_11_1526,Partial repeat,2021.2.3,59.926601618503284,
8,8,0,1,3,3,1,2,1,1,1,0,1,1,0,0,54,54,54,1,0,1,0,,,,,,,,,474.5288794003427,None,475.2809979002923,None,s,1,0.4450870007276535,475.2809979002923,None,None,None,,,,,,,24,22,female,24,2022_May_11_1526,Partial repeat,2021.2.3,59.926601618503284,
8,8,0,1,3,3,1,2,1,1,1,0,1,1,0,0,54,54,54,,,,,,,,,,,,,,,,,,,,,,,,,,,,,,24,22,female,24,2022_May_11_1526,Partial repeat,2021.2.3,59.926601618503284,
8,8,0,1,2,3,2,2,0,0,0,1,1,1,0,0,55,55,55,0,0,0,0,,,,,,,475.74089940078557,None,476.1705230008811,None,477.0520418006927,None,l,1,0.585989199578762,477.0520418006927,None,None,None,,,,,,,24,22,female,24,2022_May_11_1526,Partial repeat,2021.2.3,59.926601618503284,
8,8,0,1,2,3,2,2,0,0,0,1,1,1,0,0,55,55,55,1,0,1,0,,,,,,,,,477.65356370061636,None,478.4368751011789,None,l,1,0.4013237003237009,478.4368751011789,None,None,None,,,,,,,24,22,female,24,2022_May_11_1526,Partial repeat,2021.2.3,59.926601618503284,
8,8,0,1,2,3,2,2,0,0,0,1,1,1,0,0,55,55,55,,,,,,,,,,,,,,,,,,,,,,,,,,,,,,24,22,female,24,2022_May_11_1526,Partial repeat,2021.2.3,59.926601618503284,
8,8,0,1,2,2,2,1,0,1,1,0,0,1,0,0,56,56,56,0,0,0,0,,,,,,,478.8500906005502,None,479.32662330009043,None,480.3241710010916,None,l,1,0.4098827000707388,480.3241710010916,None,None,None,,,,,,,24,22,female,24,2022_May_11_1526,Partial repeat,2021.2.3,59.926601618503284,
8,8,0,1,2,2,2,1,0,1,1,0,0,1,0,0,56,56,56,1,0,1,0,,,,,,,,,480.7535137999803,None,481.57677280157804,None,s,1,0.44539619982242584,481.57677280157804,None,None,None,,,,,,,24,22,female,24,2022_May_11_1526,Partial repeat,2021.2.3,59.926601618503284,
8,8,0,1,2,2,2,1,0,1,1,0,0,1,0,0,56,56,56,,,,,,,,,,,,,,,,,,,,,,,,,,,,,,24,22,female,24,2022_May_11_1526,Partial repeat,2021.2.3,59.926601618503284,
8,8,0,1,3,3,2,2,1,1,1,1,1,1,0,0,57,57,57,0,0,0,0,,,,,,,482.0529804006219,None,482.616366000846,None,483.4801213014871,None,s,1,0.37387740053236485,483.4801213014871,None,None,None,,,,,,,24,22,female,24,2022_May_11_1526,Partial repeat,2021.2.3,59.926601618503284,
8,8,0,1,3,3,2,2,1,1,1,1,1,1,0,0,57,57,57,1,0,1,0,,,,,,,,,483.86750510148704,None,484.5990280006081,None,s,1,0.39909510128200054,484.5990280006081,None,None,None,,,,,,,24,22,female,24,2022_May_11_1526,Partial repeat,2021.2.3,59.926601618503284,
8,8,0,1,3,3,2,2,1,1,1,1,1,1,0,0,57,57,57,,,,,,,,,,,,,,,,,,,,,,,,,,,,,,24,22,female,24,2022_May_11_1526,Partial repeat,2021.2.3,59.926601618503284,
8,8,0,1,2,2,1,2,0,1,1,0,0,1,0,0,58,58,58,0,0,0,0,,,,,,,485.0123629011214,None,485.5721281003207,None,486.35264880023897,None,l,1,0.4614351000636816,486.35264880023897,None,None,None,,,,,,,24,22,female,24,2022_May_11_1526,Partial repeat,2021.2.3,59.926601618503284,
8,8,0,1,2,2,1,2,0,1,1,0,0,1,0,0,58,58,58,1,0,1,0,,,,,,,,,486.82988820038736,None,487.6550515014678,None,s,1,0.37502729892730713,487.6550515014678,None,None,None,,,,,,,24,22,female,24,2022_May_11_1526,Partial repeat,2021.2.3,59.926601618503284,
8,8,0,1,2,2,1,2,0,1,1,0,0,1,0,0,58,58,58,,,,,,,,,,,,,,,,,,,,,,,,,,,,,,24,22,female,24,2022_May_11_1526,Partial repeat,2021.2.3,59.926601618503284,
8,8,0,1,2,2,1,2,1,1,1,0,1,1,0,0,59,59,59,0,0,0,0,,,,,,,488.0491117015481,None,488.5278113000095,None,489.4584452006966,None,s,1,0.3636831995099783,489.4584452006966,None,None,None,,,,,,,24,22,female,24,2022_May_11_1526,Partial repeat,2021.2.3,59.926601618503284,
8,8,0,1,2,2,1,2,1,1,1,0,1,1,0,0,59,59,59,1,0,1,0,,,,,,,,,489.8501278012991,None,490.69457000121474,None,s,1,0.36749500036239624,490.69457000121474,None,None,None,,,,,,,24,22,female,24,2022_May_11_1526,Partial repeat,2021.2.3,59.926601618503284,
8,8,0,1,2,2,1,2,1,1,1,0,1,1,0,0,59,59,59,,,,,,,,,,,,,,,,,,,,,,,,,,,,,,24,22,female,24,2022_May_11_1526,Partial repeat,2021.2.3,59.926601618503284,
8,8,0,1,3,3,2,2,0,0,1,1,1,1,0,0,60,60,60,0,0,0,0,,,,,,,491.0886311009526,None,491.8844183012843,None,492.8482829015702,None,l,1,0.381920900195837,492.8482829015702,None,None,None,,,,,,,24,22,female,24,2022_May_11_1526,Partial repeat,2021.2.3,59.926601618503284,
8,8,0,1,3,3,2,2,0,0,1,1,1,1,0,0,60,60,60,1,0,1,0,,,,,,,,,493.23871060088277,None,494.03408710099757,None,l,1,0.4039895012974739,494.03408710099757,None,None,None,,,,,,,24,22,female,24,2022_May_11_1526,Partial repeat,2021.2.3,59.926601618503284,
8,8,0,1,3,3,2,2,0,0,1,1,1,1,0,0,60,60,60,,,,,,,,,,,,,,,,,,,,,,,,,,,,,,24,22,female,24,2022_May_11_1526,Partial repeat,2021.2.3,59.926601618503284,
8,8,0,1,2,3,2,1,1,0,0,0,0,1,0,0,61,61,61,0,0,0,0,,,,,,,494.45319070108235,None,494.9904605001211,None,495.80432409979403,None,s,1,0.5377444997429848,495.80432409979403,None,None,None,,,,,,,24,22,female,24,2022_May_11_1526,Partial repeat,2021.2.3,59.926601618503284,
8,8,0,1,2,3,2,1,1,0,0,0,0,1,0,0,61,61,61,1,0,1,0,,,,,,,,,496.3595253005624,None,497.10655960068107,None,l,1,0.4515292998403311,497.10655960068107,None,None,None,,,,,,,24,22,female,24,2022_May_11_1526,Partial repeat,2021.2.3,59.926601618503284,
8,8,0,1,2,3,2,1,1,0,0,0,0,1,0,0,61,61,61,,,,,,,,,,,,,,,,,,,,,,,,,,,,,,24,22,female,24,2022_May_11_1526,Partial repeat,2021.2.3,59.926601618503284,
8,8,0,1,3,2,2,2,1,1,0,1,1,1,0,0,62,62,62,0,0,0,0,,,,,,,497.5839389003813,None,498.2133473008871,None,499.06035820022225,None,s,1,0.46577079966664314,499.06035820022225,None,None,None,,,,,,,24,22,female,24,2022_May_11_1526,Partial repeat,2021.2.3,59.926601618503284,
8,8,0,1,3,2,2,2,1,1,0,1,1,1,0,0,62,62,62,1,0,1,0,,,,,,,,,499.5553644001484,None,500.2794556003064,None,s,1,0.36667639948427677,500.2794556003064,None,None,None,,,,,,,24,22,female,24,2022_May_11_1526,Partial repeat,2021.2.3,59.926601618503284,
8,8,0,1,3,2,2,2,1,1,0,1,1,1,0,0,62,62,62,,,,,,,,,,,,,,,,,,,,,,,,,,,,,,24,22,female,24,2022_May_11_1526,Partial repeat,2021.2.3,59.926601618503284,
8,8,0,1,3,2,2,2,1,0,0,1,0,1,0,0,63,63,63,0,0,0,0,,,,,,,500.6682783011347,None,501.21914510056376,None,502.0494360998273,None,s,1,0.3966653998941183,502.0494360998273,None,None,None,,,,,,,24,22,female,24,2022_May_11_1526,Partial repeat,2021.2.3,59.926601618503284,
8,8,0,1,3,2,2,2,1,0,0,1,0,1,0,0,63,63,63,1,0,1,0,,,,,,,,,502.455558501184,None,503.30213830061257,None,l,1,0.3919357005506754,503.30213830061257,None,None,None,,,,,,,24,22,female,24,2022_May_11_1526,Partial repeat,2021.2.3,59.926601618503284,
8,8,0,1,3,2,2,2,1,0,0,1,0,1,0,0,63,63,63,,,,,,,,,,,,,,,,,,,,,,,,,,,,,,24,22,female,24,2022_May_11_1526,Partial repeat,2021.2.3,59.926601618503284,
1,8,0,1,3,2,2,2,0,0,0,1,1,0,0,0,64,64,64,0,0,0,0,,,,,,,507.0772991012782,None,507.88220340013504,None,508.59595470130444,None,l,1,0.6661504991352558,508.59595470130444,None,None,None,,,,,,,24,22,female,24,2022_May_11_1526,Partial repeat,2021.2.3,59.926601618503284,
1,8,0,1,3,2,2,2,0,0,0,1,1,0,0,0,64,64,64,1,0,1,0,,,,,,,,,509.2899989001453,None,510.2155086006969,None,l,1,0.9585343990474939,510.2155086006969,None,None,None,,,,,,,24,22,female,24,2022_May_11_1526,Partial repeat,2021.2.3,59.926601618503284,
1,8,0,1,3,2,2,2,0,0,0,1,1,0,0,0,64,64,64,,,,,,,,,,,,,,,,,,,,,,,,,,,,,,24,22,female,24,2022_May_11_1526,Partial repeat,2021.2.3,59.926601618503284,
2,2,0,1,2,2,1,2,1,0,1,0,0,0,0,0,65,65,65,0,0,0,0,,,,,,,511.20428279973567,None,511.9734875001013,None,512.9206999000162,None,s,1,0.7573329992592335,512.9206999000162,None,None,None,,,,,,,24,22,female,24,2022_May_11_1526,Partial repeat,2021.2.3,59.926601618503284,
2,2,0,1,2,2,1,2,1,0,1,0,0,0,0,0,65,65,65,1,0,1,0,,,,,,,,,513.6947926003486,None,514.4404164012522,None,l,1,0.63766960054636,514.4404164012522,None,None,None,,,,,,,24,22,female,24,2022_May_11_1526,Partial repeat,2021.2.3,59.926601618503284,
2,2,0,1,2,2,1,2,1,0,1,0,0,0,0,0,65,65,65,,,,,,,,,,,,,,,,,,,,,,,,,,,,,,24,22,female,24,2022_May_11_1526,Partial repeat,2021.2.3,59.926601618503284,
6,4,0,1,3,3,2,1,0,1,1,0,0,0,0,0,66,66,66,0,0,0,0,,,,,,,515.0888050999492,None,515.7807189002633,None,516.6616008002311,None,l,1,0.6724683996289968,516.6616008002311,None,None,None,,,,,,,24,22,female,24,2022_May_11_1526,Partial repeat,2021.2.3,59.926601618503284,
6,4,0,1,3,3,2,1,0,1,1,0,0,0,0,0,66,66,66,1,0,1,0,,,,,,,,,517.3485189005733,None,518.14808380045,None,s,1,0.5699752010405064,518.14808380045,None,None,None,,,,,,,24,22,female,24,2022_May_11_1526,Partial repeat,2021.2.3,59.926601618503284,
6,4,0,1,3,3,2,1,0,1,1,0,0,0,0,0,66,66,66,,,,,,,,,,,,,,,,,,,,,,,,,,,,,,24,22,female,24,2022_May_11_1526,Partial repeat,2021.2.3,59.926601618503284,
3,6,0,1,3,2,2,1,0,0,0,0,1,0,0,0,67,67,67,0,0,0,0,,,,,,,518.7324790004641,None,519.3211308009923,None,520.0515509005636,None,l,1,0.5865104999393225,520.0515509005636,None,None,None,,,,,,,24,22,female,24,2022_May_11_1526,Partial repeat,2021.2.3,59.926601618503284,
3,6,0,1,3,2,2,1,0,0,0,0,1,0,0,0,67,67,67,1,0,1,0,,,,,,,,,520.6505888998508,None,521.6383322011679,None,l,1,0.5677255000919104,521.6383322011679,None,None,None,,,,,,,24,22,female,24,2022_May_11_1526,Partial repeat,2021.2.3,59.926601618503284,
3,6,0,1,3,2,2,1,0,0,0,0,1,0,0,0,67,67,67,,,,,,,,,,,,,,,,,,,,,,,,,,,,,,24,22,female,24,2022_May_11_1526,Partial repeat,2021.2.3,59.926601618503284,
8,3,0,1,2,2,2,2,0,1,1,1,0,0,0,0,68,68,68,0,0,0,0,,,,,,,522.2262799013406,None,522.7611065004021,None,523.741735599935,None,l,1,0.4963259007781744,523.741735599935,None,None,None,,,,,,,24,22,female,24,2022_May_11_1526,Partial repeat,2021.2.3,59.926601618503284,
8,3,0,1,2,2,2,2,0,1,1,1,0,0,0,0,68,68,68,1,0,1,0,,,,,,,,,524.254645800218,None,525.2116107009351,None,s,1,0.6424461994320154,525.2116107009351,None,None,None,,,,,,,24,22,female,24,2022_May_11_1526,Partial repeat,2021.2.3,59.926601618503284,
8,3,0,1,2,2,2,2,0,1,1,1,0,0,0,0,68,68,68,,,,,,,,,,,,,,,,,,,,,,,,,,,,,,24,22,female,24,2022_May_11_1526,Partial repeat,2021.2.3,59.926601618503284,
2,6,0,1,2,2,1,1,1,1,1,1,1,0,0,0,69,69,69,0,0,0,0,,,,,,,525.8798737004399,None,526.3347734007984,None,527.0651520006359,None,s,1,0.6128829997032881,527.0651520006359,None,None,None,,,,,,,24,22,female,24,2022_May_11_1526,Partial repeat,2021.2.3,59.926601618503284,
2,6,0,1,2,2,1,1,1,1,1,1,1,0,0,0,69,69,69,1,0,1,0,,,,,,,,,527.6865629013628,None,528.4513025004417,None,s,1,0.56271249987185,528.4513025004417,None,None,None,,,,,,,24,22,female,24,2022_May_11_1526,Partial repeat,2021.2.3,59.926601618503284,
2,6,0,1,2,2,1,1,1,1,1,1,1,0,0,0,69,69,69,,,,,,,,,,,,,,,,,,,,,,,,,,,,,,24,22,female,24,2022_May_11_1526,Partial repeat,2021.2.3,59.926601618503284,
7,2,0,1,3,3,1,1,1,1,1,1,1,0,0,0,70,70,70,0,0,0,0,,,,,,,529.0323607008904,None,529.4741560015827,None,530.4383468013257,None,s,1,0.6157595999538898,530.4383468013257,None,None,None,,,,,,,24,22,female,24,2022_May_11_1526,Partial repeat,2021.2.3,59.926601618503284,
7,2,0,1,3,3,1,1,1,1,1,1,1,0,0,0,70,70,70,1,0,1,0,,,,,,,,,531.0828208997846,None,531.8912041001022,None,s,1,0.6348908990621567,531.8912041001022,None,None,None,,,,,,,24,22,female,24,2022_May_11_1526,Partial repeat,2021.2.3,59.926601618503284,
7,2,0,1,3,3,1,1,1,1,1,1,1,0,0,0,70,70,70,,,,,,,,,,,,,,,,,,,,,,,,,,,,,,24,22,female,24,2022_May_11_1526,Partial repeat,2021.2.3,59.926601618503284,
3,3,0,1,3,2,1,1,0,1,0,1,0,0,0,0,71,71,71,0,0,0,0,,,,,,,532.5564831998199,None,532.9142407998443,None,533.928205801174,None,l,1,0.6778657995164394,533.928205801174,None,None,None,,,,,,,24,22,female,24,2022_May_11_1526,Partial repeat,2021.2.3,59.926601618503284,
3,3,0,1,3,2,1,1,0,1,0,1,0,0,0,0,71,71,71,1,0,1,0,,,,,,,,,534.6145548000932,None,535.5492847003043,None,s,1,0.5369447991251945,535.5492847003043,None,None,None,,,,,,,24,22,female,24,2022_May_11_1526,Partial repeat,2021.2.3,59.926601618503284,
3,3,0,1,3,2,1,1,0,1,0,1,0,0,0,0,71,71,71,,,,,,,,,,,,,,,,,,,,,,,,,,,,,,24,22,female,24,2022_May_11_1526,Partial repeat,2021.2.3,59.926601618503284,
8,6,0,1,2,3,1,1,0,1,0,1,0,0,0,0,72,72,72,0,0,0,0,,,,,,,536.1170071009547,None,536.5378847010434,None,537.3682091999799,None,l,1,0.52583990059793,537.3682091999799,None,None,None,,,,,,,24,22,female,24,2022_May_11_1526,Partial repeat,2021.2.3,59.926601618503284,
8,6,0,1,2,3,1,1,0,1,0,1,0,0,0,0,72,72,72,1,0,1,0,,,,,,,,,537.9083073008806,None,538.8381916005164,None,s,1,0.6318640988320112,538.8381916005164,None,None,None,,,,,,,24,22,female,24,2022_May_11_1526,Partial repeat,2021.2.3,59.926601618503284,
8,6,0,1,2,3,1,1,0,1,0,1,0,0,0,0,72,72,72,,,,,,,,,,,,,,,,,,,,,,,,,,,,,,24,22,female,24,2022_May_11_1526,Partial repeat,2021.2.3,59.926601618503284,
3,1,0,1,3,2,1,2,1,1,0,0,1,0,0,0,73,73,73,0,0,0,0,,,,,,,539.4897767007351,None,539.9278701003641,None,540.8584935013205,None,s,1,0.6116212997585535,540.8584935013205,None,None,None,,,,,,,24,22,female,24,2022_May_11_1526,Partial repeat,2021.2.3,59.926601618503284,
3,1,0,1,3,2,1,2,1,1,0,0,1,0,0,0,73,73,73,1,0,1,0,,,,,,,,,541.4780152998865,None,542.194232000038,None,s,1,0.6358296014368534,542.194232000038,None,None,None,,,,,,,24,22,female,24,2022_May_11_1526,Partial repeat,2021.2.3,59.926601618503284,
3,1,0,1,3,2,1,2,1,1,0,0,1,0,0,0,73,73,73,,,,,,,,,,,,,,,,,,,,,,,,,,,,,,24,22,female,24,2022_May_11_1526,Partial repeat,2021.2.3,59.926601618503284,
4,1,0,1,3,2,2,2,0,1,0,1,0,0,0,0,74,74,74,0,0,0,0,,,,,,,542.8417281005532,None,543.5515988003463,None,544.5326508004218,None,l,1,0.7054453995078802,544.5326508004218,None,None,None,,,,,,,24,22,female,24,2022_May_11_1526,Partial repeat,2021.2.3,59.926601618503284,
4,1,0,1,3,2,2,2,0,1,0,1,0,0,0,0,74,74,74,1,0,1,0,,,,,,,,,545.2493161000311,None,546.2353781014681,None,s,1,0.5307976994663477,546.2353781014681,None,None,None,,,,,,,24,22,female,24,2022_May_11_1526,Partial repeat,2021.2.3,59.926601618503284,
4,1,0,1,3,2,2,2,0,1,0,1,0,0,0,0,74,74,74,,,,,,,,,,,,,,,,,,,,,,,,,,,,,,24,22,female,24,2022_May_11_1526,Partial repeat,2021.2.3,59.926601618503284,
6,7,0,1,3,3,1,1,0,1,1,1,0,0,0,0,75,75,75,0,0,0,0,,,,,,,546.7780634015799,None,547.1250307001173,None,547.9389903005213,None,s,0,0.691058799624443,547.9389903005213,None,548.6455091014504,None,,,,,,,24,22,female,24,2022_May_11_1526,Partial repeat,2021.2.3,59.926601618503284,
6,7,0,1,3,3,1,1,0,1,1,1,0,0,0,0,75,75,75,1,0,1,0,,,,,,,,,549.1456992011517,None,550.0096915010363,None,s,1,0.6043521985411644,550.0096915010363,None,None,None,,,,,,,24,22,female,24,2022_May_11_1526,Partial repeat,2021.2.3,59.926601618503284,
6,7,0,1,3,3,1,1,0,1,1,1,0,0,0,0,75,75,75,,,,,,,,,,,,,,,,,,,,,,,,,,,,,,24,22,female,24,2022_May_11_1526,Partial repeat,2021.2.3,59.926601618503284,
5,7,0,1,2,3,2,1,1,1,0,0,1,0,0,0,76,76,76,0,0,0,0,,,,,,,550.6380919013172,None,550.9159207008779,None,551.8799041006714,None,s,1,0.6222198996692896,551.8799041006714,None,None,None,,,,,,,24,22,female,24,2022_May_11_1526,Partial repeat,2021.2.3,59.926601618503284,
5,7,0,1,2,3,2,1,1,1,0,0,1,0,0,0,76,76,76,1,0,1,0,,,,,,,,,552.5309167001396,None,553.3161076009274,None,s,1,0.6259212996810675,553.3161076009274,None,None,None,,,,,,,24,22,female,24,2022_May_11_1526,Partial repeat,2021.2.3,59.926601618503284,
5,7,0,1,2,3,2,1,1,1,0,0,1,0,0,0,76,76,76,,,,,,,,,,,,,,,,,,,,,,,,,,,,,,24,22,female,24,2022_May_11_1526,Partial repeat,2021.2.3,59.926601618503284,
4,2,0,1,2,3,2,2,1,1,0,1,1,0,0,0,77,77,77,0,0,0,0,,,,,,,553.9632286000997,None,554.2891460005194,None,555.0527136009187,None,s,1,0.6493348013609648,555.0527136009187,None,None,None,,,,,,,24,22,female,24,2022_May_11_1526,Partial repeat,2021.2.3,59.926601618503284,
4,2,0,1,2,3,2,2,1,1,0,1,1,0,0,0,77,77,77,1,0,1,0,,,,,,,,,555.7164377998561,None,556.6560038998723,None,s,1,0.5420449003577232,556.6560038998723,None,None,None,,,,,,,24,22,female,24,2022_May_11_1526,Partial repeat,2021.2.3,59.926601618503284,
4,2,0,1,2,3,2,2,1,1,0,1,1,0,0,0,77,77,77,,,,,,,,,,,,,,,,,,,,,,,,,,,,,,24,22,female,24,2022_May_11_1526,Partial repeat,2021.2.3,59.926601618503284,
6,2,0,1,2,2,1,2,0,1,1,0,0,0,0,0,78,78,78,0,0,0,0,,,,,,,557.2205363009125,None,557.5788631010801,None,558.5595088005066,None,l,1,0.5585715994238853,558.5595088005066,None,None,None,,,,,,,24,22,female,24,2022_May_11_1526,Partial repeat,2021.2.3,59.926601618503284,
6,2,0,1,2,2,1,2,0,1,1,0,0,0,0,0,78,78,78,1,0,1,0,,,,,,,,,559.1287172008306,None,559.945854799822,None,s,1,0.5641641989350319,559.945854799822,None,None,None,,,,,,,24,22,female,24,2022_May_11_1526,Partial repeat,2021.2.3,59.926601618503284,
6,2,0,1,2,2,1,2,0,1,1,0,0,0,0,0,78,78,78,,,,,,,,,,,,,,,,,,,,,,,,,,,,,,24,22,female,24,2022_May_11_1526,Partial repeat,2021.2.3,59.926601618503284,
7,3,0,1,3,2,2,2,1,0,0,1,0,0,0,0,79,79,79,0,0,0,0,,,,,,,560.5292532015592,None,560.8017768003047,None,561.6154589001089,None,s,1,0.5585821010172367,561.6154589001089,None,None,None,,,,,,,24,22,female,24,2022_May_11_1526,Partial repeat,2021.2.3,59.926601618503284,
7,3,0,1,3,2,2,2,1,0,0,1,0,0,0,0,79,79,79,1,0,1,0,,,,,,,,,562.1930039003491,None,563.1851787008345,None,l,1,0.6288588009774685,563.1851787008345,None,None,None,,,,,,,24,22,female,24,2022_May_11_1526,Partial repeat,2021.2.3,59.926601618503284,
7,3,0,1,3,2,2,2,1,0,0,1,0,0,0,0,79,79,79,,,,,,,,,,,,,,,,,,,,,,,,,,,,,,24,22,female,24,2022_May_11_1526,Partial repeat,2021.2.3,59.926601618503284,
4,4,0,1,2,3,1,1,1,0,0,1,0,0,0,0,80,80,80,0,0,0,0,,,,,,,563.8306020013988,None,564.1917317006737,None,564.9886234998703,None,s,1,0.6094126999378204,564.9886234998703,None,None,None,,,,,,,24,22,female,24,2022_May_11_1526,Partial repeat,2021.2.3,59.926601618503284,
4,4,0,1,2,3,1,1,1,0,0,1,0,0,0,0,80,80,80,1,0,1,0,,,,,,,,,565.6117129009217,None,566.4928435012698,None,l,1,0.5932547003030777,566.4928435012698,None,None,None,,,,,,,24,22,female,24,2022_May_11_1526,Partial repeat,2021.2.3,59.926601618503284,
4,4,0,1,2,3,1,1,1,0,0,1,0,0,0,0,80,80,80,,,,,,,,,,,,,,,,,,,,,,,,,,,,,,24,22,female,24,2022_May_11_1526,Partial repeat,2021.2.3,59.926601618503284,
5,5,0,1,2,2,2,2,1,0,1,1,0,0,0,0,81,81,81,0,0,0,0,,,,,,,567.1149430014193,None,567.4814606998116,None,568.362698500976,None,s,1,0.5633393991738558,568.362698500976,None,None,None,,,,,,,24,22,female,24,2022_May_11_1526,Partial repeat,2021.2.3,59.926601618503284,
5,5,0,1,2,2,2,2,1,0,1,1,0,0,0,0,81,81,81,1,0,1,0,,,,,,,,,568.9443613998592,None,569.8817283008248,None,l,1,0.6042781006544828,569.8817283008248,None,None,None,,,,,,,24,22,female,24,2022_May_11_1526,Partial repeat,2021.2.3,59.926601618503284,
5,5,0,1,2,2,2,2,1,0,1,1,0,0,0,0,81,81,81,,,,,,,,,,,,,,,,,,,,,,,,,,,,,,24,22,female,24,2022_May_11_1526,Partial repeat,2021.2.3,59.926601618503284,
6,5,0,1,3,2,2,2,1,1,0,1,1,0,0,0,82,82,82,0,0,0,0,,,,,,,570.5124840009958,None,570.8380109015852,None,571.7855233009905,None,s,1,0.6605082992464304,571.7855233009905,None,None,None,,,,,,,24,22,female,24,2022_May_11_1526,Partial repeat,2021.2.3,59.926601618503284,
6,5,0,1,3,2,2,2,1,1,0,1,1,0,0,0,82,82,82,1,0,1,0,,,,,,,,,572.4701227005571,None,573.3719670008868,None,s,1,0.6500701997429132,573.3719670008868,None,None,None,,,,,,,24,22,female,24,2022_May_11_1526,Partial repeat,2021.2.3,59.926601618503284,
6,5,0,1,3,2,2,2,1,1,0,1,1,0,0,0,82,82,82,,,,,,,,,,,,,,,,,,,,,,,,,,,,,,24,22,female,24,2022_May_11_1526,Partial repeat,2021.2.3,59.926601618503284,
3,8,0,1,2,2,1,1,1,0,1,1,0,0,0,0,83,83,83,0,0,0,0,,,,,,,574.0466318000108,None,574.4450035002083,None,575.1920545008034,None,s,1,0.6059837006032467,575.1920545008034,None,None,None,,,,,,,24,22,female,24,2022_May_11_1526,Partial repeat,2021.2.3,59.926601618503284,
3,8,0,1,2,2,1,1,1,0,1,1,0,0,0,0,83,83,83,1,0,1,0,,,,,,,,,575.8136536013335,None,576.7948883008212,None,l,1,0.5471330992877483,576.7948883008212,None,None,None,,,,,,,24,22,female,24,2022_May_11_1526,Partial repeat,2021.2.3,59.926601618503284,
3,8,0,1,2,2,1,1,1,0,1,1,0,0,0,0,83,83,83,,,,,,,,,,,,,,,,,,,,,,,,,,,,,,24,22,female,24,2022_May_11_1526,Partial repeat,2021.2.3,59.926601618503284,
5,8,0,1,2,2,1,1,0,0,1,1,1,0,0,0,84,84,84,0,0,0,0,,,,,,,577.360323799774,None,577.8683305997401,None,578.7154315002263,None,l,1,0.5466753989458084,578.7154315002263,None,None,None,,,,,,,24,22,female,24,2022_May_11_1526,Partial repeat,2021.2.3,59.926601618503284,
5,8,0,1,2,2,1,1,0,0,1,1,1,0,0,0,84,84,84,1,0,1,0,,,,,,,,,579.2726489007473,None,580.1349173001945,None,l,1,0.559111999347806,580.1349173001945,None,None,None,,,,,,,24,22,female,24,2022_May_11_1526,Partial repeat,2021.2.3,59.926601618503284,
5,8,0,1,2,2,1,1,0,0,1,1,1,0,0,0,84,84,84,,,,,,,,,,,,,,,,,,,,,,,,,,,,,,24,22,female,24,2022_May_11_1526,Partial repeat,2021.2.3,59.926601618503284,
7,1,0,1,3,3,2,1,1,0,1,0,0,0,0,0,85,85,85,0,0,0,0,,,,,,,580.7218030001968,None,581.0076715014875,None,581.8884107004851,None,s,1,0.645618999376893,581.8884107004851,None,None,None,,,,,,,24,22,female,24,2022_May_11_1526,Partial repeat,2021.2.3,59.926601618503284,
7,1,0,1,3,3,2,1,1,0,1,0,0,0,0,0,85,85,85,1,0,1,0,,,,,,,,,582.5545326005667,None,583.2910401001573,None,l,1,0.6349932011216879,583.2910401001573,None,None,None,,,,,,,24,22,female,24,2022_May_11_1526,Partial repeat,2021.2.3,59.926601618503284,
7,1,0,1,3,3,2,1,1,0,1,0,0,0,0,0,85,85,85,,,,,,,,,,,,,,,,,,,,,,,,,,,,,,24,22,female,24,2022_May_11_1526,Partial repeat,2021.2.3,59.926601618503284,
6,1,0,1,2,2,1,1,0,1,1,1,0,0,0,0,86,86,86,0,0,0,0,,,,,,,583.9422350004315,None,584.2973568998277,None,585.0612479001284,None,l,1,0.5287843011319637,585.0612479001284,None,None,None,,,,,,,24,22,female,24,2022_May_11_1526,Partial repeat,2021.2.3,59.926601618503284,
6,1,0,1,2,2,1,1,0,1,1,1,0,0,0,0,86,86,86,1,0,1,0,,,,,,,,,585.6174203008413,None,586.5806542001665,None,s,1,0.5535350013524294,586.5806542001665,None,None,None,,,,,,,24,22,female,24,2022_May_11_1526,Partial repeat,2021.2.3,59.926601618503284,
6,1,0,1,2,2,1,1,0,1,1,1,0,0,0,0,86,86,86,,,,,,,,,,,,,,,,,,,,,,,,,,,,,,24,22,female,24,2022_May_11_1526,Partial repeat,2021.2.3,59.926601618503284,
5,6,0,1,3,3,2,2,0,1,1,1,0,0,0,0,87,87,87,0,0,0,0,,,,,,,587.1644352003932,None,587.5203645005822,None,588.3516295999289,None,l,1,0.6784330010414124,588.3516295999289,None,None,None,,,,,,,24,22,female,24,2022_May_11_1526,Partial repeat,2021.2.3,59.926601618503284,
5,6,0,1,3,3,2,2,0,1,1,1,0,0,0,0,87,87,87,1,0,1,0,,,,,,,,,589.0590203013271,None,589.9538592007011,None,s,1,0.4681711997836828,589.9538592007011,None,None,None,,,,,,,24,22,female,24,2022_May_11_1526,Partial repeat,2021.2.3,59.926601618503284,
5,6,0,1,3,3,2,2,0,1,1,1,0,0,0,0,87,87,87,,,,,,,,,,,,,,,,,,,,,,,,,,,,,,24,22,female,24,2022_May_11_1526,Partial repeat,2021.2.3,59.926601618503284,
7,5,0,1,2,3,2,1,0,1,0,0,0,0,0,0,88,88,88,0,0,0,0,,,,,,,590.4516567010432,None,590.6932996008545,None,591.674650201574,None,l,1,0.5074547994881868,591.674650201574,None,None,None,,,,,,,24,22,female,24,2022_May_11_1526,Partial repeat,2021.2.3,59.926601618503284,
7,5,0,1,2,3,2,1,0,1,0,0,0,0,0,0,88,88,88,1,0,1,0,,,,,,,,,592.1927204001695,None,593.0936885997653,None,s,1,0.5763360001146793,593.0936885997653,None,None,None,,,,,,,24,22,female,24,2022_May_11_1526,Partial repeat,2021.2.3,59.926601618503284,
7,5,0,1,2,3,2,1,0,1,0,0,0,0,0,0,88,88,88,,,,,,,,,,,,,,,,,,,,,,,,,,,,,,24,22,female,24,2022_May_11_1526,Partial repeat,2021.2.3,59.926601618503284,
1,5,0,1,3,2,2,1,1,1,0,0,1,0,0,0,89,89,89,0,0,0,0,,,,,,,593.6964018009603,None,594.4171553011984,None,595.4144513998181,None,s,1,0.5035812985152006,595.4144513998181,None,None,None,,,,,,,24,22,female,24,2022_May_11_1526,Partial repeat,2021.2.3,59.926601618503284,
1,5,0,1,3,2,2,1,1,1,0,0,1,0,0,0,89,89,89,1,0,1,0,,,,,,,,,595.9332833997905,None,596.8342109005898,None,s,1,0.4838186986744404,596.8342109005898,None,None,None,,,,,,,24,22,female,24,2022_May_11_1526,Partial repeat,2021.2.3,59.926601618503284,
1,5,0,1,3,2,2,1,1,1,0,0,1,0,0,0,89,89,89,,,,,,,,,,,,,,,,,,,,,,,,,,,,,,24,22,female,24,2022_May_11_1526,Partial repeat,2021.2.3,59.926601618503284,
3,5,0,1,2,3,1,2,1,1,0,0,1,0,0,0,90,90,90,0,0,0,0,,,,,,,597.3338850010186,None,597.7903675008565,None,598.787816401571,None,s,1,0.5382399000227451,598.787816401571,None,None,None,,,,,,,24,22,female,24,2022_May_11_1526,Partial repeat,2021.2.3,59.926601618503284,
3,5,0,1,2,3,1,2,1,1,0,0,1,0,0,0,90,90,90,1,0,1,0,,,,,,,,,599.3451209999621,None,600.19078049995,None,s,1,0.5992443989962339,600.19078049995,None,None,None,,,,,,,24,22,female,24,2022_May_11_1526,Partial repeat,2021.2.3,59.926601618503284,
3,5,0,1,2,3,1,2,1,1,0,0,1,0,0,0,90,90,90,,,,,,,,,,,,,,,,,,,,,,,,,,,,,,24,22,female,24,2022_May_11_1526,Partial repeat,2021.2.3,59.926601618503284,
3,7,0,1,2,3,2,2,0,0,0,1,1,0,0,0,91,91,91,0,0,0,0,,,,,,,600.8181974999607,None,601.1135121006519,None,601.9609939008951,None,l,1,0.6930232997983694,601.9609939008951,None,None,None,,,,,,,24,22,female,24,2022_May_11_1526,Partial repeat,2021.2.3,59.926601618503284,
3,7,0,1,2,3,2,2,0,0,0,1,1,0,0,0,91,91,91,1,0,1,0,,,,,,,,,602.6733828000724,None,603.4136789999902,None,l,1,0.5843461994081736,603.4136789999902,None,None,None,,,,,,,24,22,female,24,2022_May_11_1526,Partial repeat,2021.2.3,59.926601618503284,
3,7,0,1,2,3,2,2,0,0,0,1,1,0,0,0,91,91,91,,,,,,,,,,,,,,,,,,,,,,,,,,,,,,24,22,female,24,2022_May_11_1526,Partial repeat,2021.2.3,59.926601618503284,
5,4,0,1,3,2,1,2,1,0,0,0,0,0,0,0,92,92,92,0,0,0,0,,,,,,,604.0195618998259,None,604.4700825009495,None,605.4508905000985,None,s,1,0.5791280996054411,605.4508905000985,None,None,None,,,,,,,24,22,female,24,2022_May_11_1526,Partial repeat,2021.2.3,59.926601618503284,
5,4,0,1,3,2,1,2,1,0,0,0,0,0,0,0,92,92,92,1,0,1,0,,,,,,,,,606.0503782015294,None,607.0539753008634,None,l,1,0.6960402000695467,607.0539753008634,None,None,None,,,,,,,24,22,female,24,2022_May_11_1526,Partial repeat,2021.2.3,59.926601618503284,
5,4,0,1,3,2,1,2,1,0,0,0,0,0,0,0,92,92,92,,,,,,,,,,,,,,,,,,,,,,,,,,,,,,24,22,female,24,2022_May_11_1526,Partial repeat,2021.2.3,59.926601618503284,
5,2,0,1,2,3,2,2,1,0,0,1,0,0,0,0,93,93,93,0,0,0,0,,,,,,,607.7680562008172,None,608.0270151998848,None,608.9242746010423,None,s,1,0.5297998990863562,608.9242746010423,None,None,None,,,,,,,24,22,female,24,2022_May_11_1526,Partial repeat,2021.2.3,59.926601618503284,
5,2,0,1,2,3,2,2,1,0,0,1,0,0,0,0,93,93,93,1,0,1,0,,,,,,,,,609.4826890006661,None,610.4103391002864,None,l,1,0.5876755993813276,610.4103391002864,None,None,None,,,,,,,24,22,female,24,2022_May_11_1526,Partial repeat,2021.2.3,59.926601618503284,
5,2,0,1,2,3,2,2,1,0,0,1,0,0,0,0,93,93,93,,,,,,,,,,,,,,,,,,,,,,,,,,,,,,24,22,female,24,2022_May_11_1526,Partial repeat,2021.2.3,59.926601618503284,
1,6,0,1,2,2,2,1,0,1,1,0,0,0,0,0,94,94,94,0,0,0,0,,,,,,,611.029630901292,None,611.2165219001472,None,612.1641489006579,None,l,1,2.297865901142359,612.1641489006579,None,None,None,,,,,,,24,22,female,24,2022_May_11_1526,Partial repeat,2021.2.3,59.926601618503284,
1,6,0,1,2,2,2,1,0,1,1,0,0,0,0,0,94,94,94,1,0,1,0,,,,,,,,,614.4746420998126,None,615.3365995008498,None,s,1,0.5333914998918772,615.3365995008498,None,None,None,,,,,,,24,22,female,24,2022_May_11_1526,Partial repeat,2021.2.3,59.926601618503284,
1,6,0,1,2,2,2,1,0,1,1,0,0,0,0,0,94,94,94,,,,,,,,,,,,,,,,,,,,,,,,,,,,,,24,22,female,24,2022_May_11_1526,Partial repeat,2021.2.3,59.926601618503284,
1,1,0,1,3,3,1,2,1,0,1,0,0,0,0,0,95,95,95,0,0,0,0,,,,,,,615.9012545011938,None,616.5936583001167,None,617.5577761009336,None,s,1,0.5922337006777525,617.5577761009336,None,None,None,,,,,,,24,22,female,24,2022_May_11_1526,Partial repeat,2021.2.3,59.926601618503284,
1,1,0,1,3,3,1,2,1,0,1,0,0,0,0,0,95,95,95,1,0,1,0,,,,,,,,,618.1764279007912,None,619.0114606004208,None,l,1,0.5305484998971224,619.0114606004208,None,None,None,,,,,,,24,22,female,24,2022_May_11_1526,Partial repeat,2021.2.3,59.926601618503284,
1,1,0,1,3,3,1,2,1,0,1,0,0,0,0,0,95,95,95,,,,,,,,,,,,,,,,,,,,,,,,,,,,,,24,22,female,24,2022_May_11_1526,Partial repeat,2021.2.3,59.926601618503284,
4,5,0,1,2,3,2,1,1,0,0,0,0,0,0,0,96,96,96,0,0,0,0,,,,,,,619.5540126003325,None,620.1673049014062,None,620.8973904009908,None,s,1,0.5806234013289213,620.8973904009908,None,None,None,,,,,,,24,22,female,24,2022_May_11_1526,Partial repeat,2021.2.3,59.926601618503284,
4,5,0,1,2,3,2,1,1,0,0,0,0,0,0,0,96,96,96,1,0,1,0,,,,,,,,,621.4946953002363,None,622.4671250004321,None,l,1,0.618927201256156,622.4671250004321,None,None,None,,,,,,,24,22,female,24,2022_May_11_1526,Partial repeat,2021.2.3,59.926601618503284,
4,5,0,1,2,3,2,1,1,0,0,0,0,0,0,0,96,96,96,,,,,,,,,,,,,,,,,,,,,,,,,,,,,,24,22,female,24,2022_May_11_1526,Partial repeat,2021.2.3,59.926601618503284,
1,3,0,1,3,3,2,2,1,0,1,1,0,0,0,0,97,97,97,0,0,0,0,,,,,,,623.1163552012295,None,623.4403064008802,None,624.421018499881,None,s,1,0.5689989998936653,624.421018499881,None,None,None,,,,,,,24,22,female,24,2022_May_11_1526,Partial repeat,2021.2.3,59.926601618503284,
1,3,0,1,3,3,2,2,1,0,1,1,0,0,0,0,97,97,97,1,0,1,0,,,,,,,,,625.0014812014997,None,625.8738569002599,None,l,1,0.6122443992644548,625.8738569002599,None,None,None,,,,,,,24,22,female,24,2022_May_11_1526,Partial repeat,2021.2.3,59.926601618503284,
1,3,0,1,3,3,2,2,1,0,1,1,0,0,0,0,97,97,97,,,,,,,,,,,,,,,,,,,,,,,,,,,,,,24,22,female,24,2022_May_11_1526,Partial repeat,2021.2.3,59.926601618503284,
7,8,0,1,3,2,1,1,1,1,0,1,1,0,0,0,98,98,98,0,0,0,0,,,,,,,626.4986687004566,None,626.7968309000134,None,627.6274130009115,None,s,1,0.8585697002708912,627.6274130009115,None,None,None,,,,,,,24,22,female,24,2022_May_11_1526,Partial repeat,2021.2.3,59.926601618503284,
7,8,0,1,3,2,1,1,1,1,0,1,1,0,0,0,98,98,98,1,0,1,0,,,,,,,,,628.5046782009304,None,629.3304816000164,None,s,1,0.6994917001575232,629.3304816000164,None,None,None,,,,,,,24,22,female,24,2022_May_11_1526,Partial repeat,2021.2.3,59.926601618503284,
7,8,0,1,3,2,1,1,1,1,0,1,1,0,0,0,98,98,98,,,,,,,,,,,,,,,,,,,,,,,,,,,,,,24,22,female,24,2022_May_11_1526,Partial repeat,2021.2.3,59.926601618503284,
7,6,0,1,2,3,2,2,0,1,0,1,0,0,0,0,99,99,99,0,0,0,0,,,,,,,630.0487022008747,None,630.4539586007595,None,631.4022238999605,None,l,1,0.5157562997192144,631.4022238999605,None,None,None,,,,,,,24,22,female,24,2022_May_11_1526,Partial repeat,2021.2.3,59.926601618503284,
7,6,0,1,2,3,2,2,0,1,0,1,0,0,0,0,99,99,99,1,0,1,0,,,,,,,,,631.9421391002834,None,632.9374711010605,None,s,1,0.5565312001854181,632.9374711010605,None,None,None,,,,,,,24,22,female,24,2022_May_11_1526,Partial repeat,2021.2.3,59.926601618503284,
7,6,0,1,2,3,2,2,0,1,0,1,0,0,0,0,99,99,99,,,,,,,,,,,,,,,,,,,,,,,,,,,,,,24,22,female,24,2022_May_11_1526,Partial repeat,2021.2.3,59.926601618503284,
2,3,0,1,3,2,1,2,0,1,0,0,0,0,0,0,100,100,100,0,0,0,0,,,,,,,633.5225354004651,None,634.4617318008095,None,635.2753819003701,None,l,1,0.6425880994647741,635.2753819003701,None,None,None,,,,,,,24,22,female,24,2022_May_11_1526,Partial repeat,2021.2.3,59.926601618503284,
2,3,0,1,3,2,1,2,0,1,0,0,0,0,0,0,100,100,100,1,0,1,0,,,,,,,,,635.9408259000629,None,636.7786979004741,None,s,1,0.5393332000821829,636.7786979004741,None,None,None,,,,,,,24,22,female,24,2022_May_11_1526,Partial repeat,2021.2.3,59.926601618503284,
2,3,0,1,3,2,1,2,0,1,0,0,0,0,0,0,100,100,100,,,,,,,,,,,,,,,,,,,,,,,,,,,,,,24,22,female,24,2022_May_11_1526,Partial repeat,2021.2.3,59.926601618503284,
2,7,0,1,2,2,1,2,0,0,1,0,1,0,0,0,101,101,101,0,0,0,0,,,,,,,637.3410525005311,None,637.7180682010949,None,638.4818083997816,None,l,1,0.5642288010567427,638.4818083997816,None,None,None,,,,,,,24,22,female,24,2022_May_11_1526,Partial repeat,2021.2.3,59.926601618503284,
2,7,0,1,2,2,1,2,0,0,1,0,1,0,0,0,101,101,101,1,0,1,0,,,,,,,,,639.0613206997514,None,639.9511556997895,None,l,1,0.6228442005813122,639.9511556997895,None,None,None,,,,,,,24,22,female,24,2022_May_11_1526,Partial repeat,2021.2.3,59.926601618503284,
2,7,0,1,2,2,1,2,0,0,1,0,1,0,0,0,101,101,101,,,,,,,,,,,,,,,,,,,,,,,,,,,,,,24,22,female,24,2022_May_11_1526,Partial repeat,2021.2.3,59.926601618503284,
8,1,0,1,2,2,2,1,1,0,1,0,0,0,0,0,102,102,102,0,0,0,0,,,,,,,640.5994202997535,None,640.8574716001749,None,641.6711429003626,None,s,1,0.6388519983738661,641.6711429003626,None,None,None,,,,,,,24,22,female,24,2022_May_11_1526,Partial repeat,2021.2.3,59.926601618503284,
8,1,0,1,2,2,2,1,1,0,1,0,0,0,0,0,102,102,102,1,0,1,0,,,,,,,,,642.3346296008676,None,643.1909028999507,None,l,1,0.5670957993716002,643.1909028999507,None,None,None,,,,,,,24,22,female,24,2022_May_11_1526,Partial repeat,2021.2.3,59.926601618503284,
8,1,0,1,2,2,2,1,1,0,1,0,0,0,0,0,102,102,102,,,,,,,,,,,,,,,,,,,,,,,,,,,,,,24,22,female,24,2022_May_11_1526,Partial repeat,2021.2.3,59.926601618503284,
3,2,0,1,3,3,2,1,0,0,1,0,1,0,0,0,103,103,103,0,0,0,0,,,,,,,643.7739707008004,None,644.04706550017,None,644.8108010999858,None,l,1,0.6592678986489773,644.8108010999858,None,None,None,,,,,,,24,22,female,24,2022_May_11_1526,Partial repeat,2021.2.3,59.926601618503284,
3,2,0,1,3,3,2,1,0,0,1,0,1,0,0,0,103,103,103,1,0,1,0,,,,,,,,,645.4987514000386,None,646.4807032998651,None,l,1,0.5812946986407042,646.4807032998651,None,None,None,,,,,,,24,22,female,24,2022_May_11_1526,Partial repeat,2021.2.3,59.926601618503284,
3,2,0,1,3,3,2,1,0,0,1,0,1,0,0,0,103,103,103,,,,,,,,,,,,,,,,,,,,,,,,,,,,,,24,22,female,24,2022_May_11_1526,Partial repeat,2021.2.3,59.926601618503284,
8,4,0,1,3,3,1,2,0,1,1,0,0,0,0,0,104,104,104,0,0,0,0,,,,,,,647.0869200006127,None,647.4369711000472,None,648.2006276007742,None,l,1,0.4213696997612715,648.2006276007742,None,None,None,,,,,,,24,22,female,24,2022_May_11_1526,Partial repeat,2021.2.3,59.926601618503284,
8,4,0,1,3,3,1,2,0,1,1,0,0,0,0,0,104,104,104,1,0,1,0,,,,,,,,,648.642412699759,None,649.370379300788,None,s,1,0.5557049009948969,649.370379300788,None,None,None,,,,,,,24,22,female,24,2022_May_11_1526,Partial repeat,2021.2.3,59.926601618503284,
8,4,0,1,3,3,1,2,0,1,1,0,0,0,0,0,104,104,104,,,,,,,,,,,,,,,,,,,,,,,,,,,,,,24,22,female,24,2022_May_11_1526,Partial repeat,2021.2.3,59.926601618503284,
2,4,0,1,3,3,1,1,1,0,1,1,0,0,0,0,105,105,105,0,0,0,0,,,,,,,649.9394660014659,None,650.3927287012339,None,651.2063929010183,None,l,0,0.5036913994699717,651.2063929010183,None,651.7213991004974,None,,,,,,,24,22,female,24,2022_May_11_1526,Partial repeat,2021.2.3,59.926601618503284,
2,4,0,1,3,3,1,1,1,0,1,1,0,0,0,0,105,105,105,1,0,1,0,,,,,,,,,652.2296900004148,None,652.9933647010475,None,l,1,0.6206211000680923,652.9933647010475,None,None,None,,,,,,,24,22,female,24,2022_May_11_1526,Partial repeat,2021.2.3,59.926601618503284,
2,4,0,1,3,3,1,1,1,0,1,1,0,0,0,0,105,105,105,,,,,,,,,,,,,,,,,,,,,,,,,,,,,,24,22,female,24,2022_May_11_1526,Partial repeat,2021.2.3,59.926601618503284,
6,6,0,1,3,3,1,2,0,0,1,0,1,0,0,0,106,106,106,0,0,0,0,,,,,,,653.6398825012147,None,655.3356628008187,None,656.283086201176,None,l,1,0.5869778003543615,656.283086201176,None,None,None,,,,,,,24,22,female,24,2022_May_11_1526,Partial repeat,2021.2.3,59.926601618503284,
6,6,0,1,3,3,1,2,0,0,1,0,1,0,0,0,106,106,106,1,0,1,0,,,,,,,,,656.8804101012647,None,657.802547801286,None,l,1,0.4994485005736351,657.802547801286,None,None,None,,,,,,,24,22,female,24,2022_May_11_1526,Partial repeat,2021.2.3,59.926601618503284,
6,6,0,1,3,3,1,2,0,0,1,0,1,0,0,0,106,106,106,,,,,,,,,,,,,,,,,,,,,,,,,,,,,,24,22,female,24,2022_May_11_1526,Partial repeat,2021.2.3,59.926601618503284,
4,7,0,1,3,3,1,1,0,0,1,1,1,0,0,0,107,107,107,0,0,0,0,,,,,,,658.32419780083,None,659.0929627008736,None,659.9566978998482,None,l,1,0.5694522988051176,659.9566978998482,None,None,None,,,,,,,24,22,female,24,2022_May_11_1526,Partial repeat,2021.2.3,59.926601618503284,
4,7,0,1,3,3,1,1,0,0,1,1,1,0,0,0,107,107,107,1,0,1,0,,,,,,,,,660.5365783013403,None,661.3594649005681,None,l,1,0.48652209900319576,661.3594649005681,None,None,None,,,,,,,24,22,female,24,2022_May_11_1526,Partial repeat,2021.2.3,59.926601618503284,
4,7,0,1,3,3,1,1,0,0,1,1,1,0,0,0,107,107,107,,,,,,,,,,,,,,,,,,,,,,,,,,,,,,24,22,female,24,2022_May_11_1526,Partial repeat,2021.2.3,59.926601618503284,
6,3,0,1,2,3,1,2,0,0,0,0,1,0,0,0,108,108,108,0,0,0,0,,,,,,,661.8595293015242,None,668.6115407012403,None,669.475613700226,None,l,1,0.5463766008615494,669.475613700226,None,None,None,,,,,,,24,22,female,24,2022_May_11_1526,Partial repeat,2021.2.3,59.926601618503284,
6,3,0,1,2,3,1,2,0,0,0,0,1,0,0,0,108,108,108,1,0,1,0,,,,,,,,,670.0424378998578,None,670.8778341002762,None,l,1,0.5522332992404699,670.8778341002762,None,None,None,,,,,,,24,22,female,24,2022_May_11_1526,Partial repeat,2021.2.3,59.926601618503284,
6,3,0,1,2,3,1,2,0,0,0,0,1,0,0,0,108,108,108,,,,,,,,,,,,,,,,,,,,,,,,,,,,,,24,22,female,24,2022_May_11_1526,Partial repeat,2021.2.3,59.926601618503284,
6,8,0,1,2,3,2,1,0,0,0,0,1,0,0,0,109,109,109,0,0,0,0,,,,,,,671.443060901016,None,672.1183670014143,None,673.0658919997513,None,l,1,0.5001043006777763,673.0658919997513,None,None,None,,,,,,,24,22,female,24,2022_May_11_1526,Partial repeat,2021.2.3,59.926601618503284,
6,8,0,1,2,3,2,1,0,0,0,0,1,0,0,0,109,109,109,1,0,1,0,,,,,,,,,673.5843896009028,None,674.334951300174,None,l,1,0.4710480999201536,674.334951300174,None,None,None,,,,,,,24,22,female,24,2022_May_11_1526,Partial repeat,2021.2.3,59.926601618503284,
6,8,0,1,2,3,2,1,0,0,0,0,1,0,0,0,109,109,109,,,,,,,,,,,,,,,,,,,,,,,,,,,,,,24,22,female,24,2022_May_11_1526,Partial repeat,2021.2.3,59.926601618503284,
7,7,0,1,2,3,1,1,0,0,0,1,1,0,0,0,110,110,110,0,0,0,0,,,,,,,674.8361216001213,None,676.3765789009631,None,677.3075176998973,None,l,1,0.45054439827799797,677.3075176998973,None,None,None,,,,,,,24,22,female,24,2022_May_11_1526,Partial repeat,2021.2.3,59.926601618503284,
7,7,0,1,2,3,1,1,0,0,0,1,1,0,0,0,110,110,110,1,0,1,0,,,,,,,,,677.7853167001158,None,678.6932196002454,None,l,1,0.40082900039851665,678.6932196002454,None,None,None,,,,,,,24,22,female,24,2022_May_11_1526,Partial repeat,2021.2.3,59.926601618503284,
7,7,0,1,2,3,1,1,0,0,0,1,1,0,0,0,110,110,110,,,,,,,,,,,,,,,,,,,,,,,,,,,,,,24,22,female,24,2022_May_11_1526,Partial repeat,2021.2.3,59.926601618503284,
3,4,0,1,3,3,2,1,1,1,1,0,1,0,0,0,111,111,111,0,0,0,0,,,,,,,679.108249001205,None,679.6328862998635,None,680.4802881013602,None,s,1,0.7576928995549679,680.4802881013602,None,None,None,,,,,,,24,22,female,24,2022_May_11_1526,Partial repeat,2021.2.3,59.926601618503284,
3,4,0,1,3,3,2,1,1,1,1,0,1,0,0,0,111,111,111,1,0,1,0,,,,,,,,,681.2545386012644,None,682.1500275004655,None,s,1,0.5919333007186651,682.1500275004655,None,None,None,,,,,,,24,22,female,24,2022_May_11_1526,Partial repeat,2021.2.3,59.926601618503284,
3,4,0,1,3,3,2,1,1,1,1,0,1,0,0,0,111,111,111,,,,,,,,,,,,,,,,,,,,,,,,,,,,,,24,22,female,24,2022_May_11_1526,Partial repeat,2021.2.3,59.926601618503284,
1,2,0,1,3,3,1,2,1,1,1,0,1,0,0,0,112,112,112,0,0,0,0,,,,,,,682.7534260004759,None,683.5238630007952,None,684.4712570011616,None,l,0,0.534758199006319,684.4712570011616,None,685.0260487999767,None,,,,,,,24,22,female,24,2022_May_11_1526,Partial repeat,2021.2.3,59.926601618503284,
1,2,0,1,3,3,1,2,1,1,1,0,1,0,0,0,112,112,112,1,0,1,0,,,,,,,,,685.5277753006667,None,686.4094804003835,None,s,1,0.6444963999092579,686.4094804003835,None,None,None,,,,,,,24,22,female,24,2022_May_11_1526,Partial repeat,2021.2.3,59.926601618503284,
1,2,0,1,3,3,1,2,1,1,1,0,1,0,0,0,112,112,112,,,,,,,,,,,,,,,,,,,,,,,,,,,,,,24,22,female,24,2022_May_11_1526,Partial repeat,2021.2.3,59.926601618503284,
2,8,0,1,3,3,2,2,1,1,1,1,1,0,0,0,113,113,113,0,0,0,0,,,,,,,687.0795227009803,None,687.4479259997606,None,688.3786514997482,None,s,1,0.5793293993920088,688.3786514997482,None,None,None,,,,,,,24,22,female,24,2022_May_11_1526,Partial repeat,2021.2.3,59.926601618503284,
2,8,0,1,3,3,2,2,1,1,1,1,1,0,0,0,113,113,113,1,0,1,0,,,,,,,,,688.9789740014821,None,689.6981666013598,None,s,1,0.6518085990101099,689.6981666013598,None,None,None,,,,,,,24,22,female,24,2022_May_11_1526,Partial repeat,2021.2.3,59.926601618503284,
2,8,0,1,3,3,2,2,1,1,1,1,1,0,0,0,113,113,113,,,,,,,,,,,,,,,,,,,,,,,,,,,,,,24,22,female,24,2022_May_11_1526,Partial repeat,2021.2.3,59.926601618503284,
5,3,0,1,3,2,1,2,0,0,0,0,1,0,0,0,114,114,114,0,0,0,0,,,,,,,690.3686365000904,None,690.8047036007047,None,691.6517227999866,None,l,1,0.586251899600029,691.6517227999866,None,None,None,,,,,,,24,22,female,24,2022_May_11_1526,Partial repeat,2021.2.3,59.926601618503284,
5,3,0,1,3,2,1,2,0,0,0,0,1,0,0,0,114,114,114,1,0,1,0,,,,,,,,,692.2518930006772,None,692.9876406006515,None,l,1,0.6663713995367289,692.9876406006515,None,None,None,,,,,,,24,22,female,24,2022_May_11_1526,Partial repeat,2021.2.3,59.926601618503284,
5,3,0,1,3,2,1,2,0,0,0,0,1,0,0,0,114,114,114,,,,,,,,,,,,,,,,,,,,,,,,,,,,,,24,22,female,24,2022_May_11_1526,Partial repeat,2021.2.3,59.926601618503284,
2,1,0,1,2,2,2,1,1,1,1,0,1,0,0,0,115,115,115,0,0,0,0,,,,,,,693.6776344012469,None,694.144549800083,None,695.0083554014564,None,s,1,0.5656223986297846,695.0083554014564,None,None,None,,,,,,,24,22,female,24,2022_May_11_1526,Partial repeat,2021.2.3,59.926601618503284,
2,1,0,1,2,2,2,1,1,1,1,0,1,0,0,0,115,115,115,1,0,1,0,,,,,,,,,695.5882362015545,None,696.511450599879,None,s,1,0.5346004012972116,696.511450599879,None,None,None,,,,,,,24,22,female,24,2022_May_11_1526,Partial repeat,2021.2.3,59.926601618503284,
2,1,0,1,2,2,2,1,1,1,1,0,1,0,0,0,115,115,115,,,,,,,,,,,,,,,,,,,,,,,,,,,,,,24,22,female,24,2022_May_11_1526,Partial repeat,2021.2.3,59.926601618503284,
1,4,0,1,3,2,1,1,0,0,0,1,1,0,0,0,116,116,116,0,0,0,0,,,,,,,697.0594222005457,None,698.7367968000472,None,699.4836683999747,None,l,1,0.49827219918370247,699.4836683999747,None,None,None,,,,,,,24,22,female,24,2022_May_11_1526,Partial repeat,2021.2.3,59.926601618503284,
1,4,0,1,3,2,1,1,0,0,0,1,1,0,0,0,116,116,116,1,0,1,0,,,,,,,,,700.0010666009039,None,701.0033041015267,None,l,1,0.5706671997904778,701.0033041015267,None,None,None,,,,,,,24,22,female,24,2022_May_11_1526,Partial repeat,2021.2.3,59.926601618503284,
1,4,0,1,3,2,1,1,0,0,0,1,1,0,0,0,116,116,116,,,,,,,,,,,,,,,,,,,,,,,,,,,,,,24,22,female,24,2022_May_11_1526,Partial repeat,2021.2.3,59.926601618503284,
4,3,0,1,3,2,1,1,1,0,0,1,0,0,0,0,117,117,117,0,0,0,0,,,,,,,701.5884585008025,None,701.9764138013124,None,702.9911493007094,None,s,1,0.5428379997611046,702.9911493007094,None,None,None,,,,,,,24,22,female,24,2022_May_11_1526,Partial repeat,2021.2.3,59.926601618503284,
4,3,0,1,3,2,1,1,1,0,0,1,0,0,0,0,117,117,117,1,0,1,0,,,,,,,,,703.5511137004942,None,704.377368601039,None,l,1,0.676570700481534,704.377368601039,None,None,None,,,,,,,24,22,female,24,2022_May_11_1526,Partial repeat,2021.2.3,59.926601618503284,
4,3,0,1,3,2,1,1,1,0,0,1,0,0,0,0,117,117,117,,,,,,,,,,,,,,,,,,,,,,,,,,,,,,24,22,female,24,2022_May_11_1526,Partial repeat,2021.2.3,59.926601618503284,
1,7,0,1,2,3,1,1,1,1,0,1,1,0,0,0,118,118,118,0,0,0,0,,,,,,,705.070084201172,None,705.6669567003846,None,706.6309236008674,None,s,1,0.5351503007113934,706.6309236008674,None,None,None,,,,,,,24,22,female,24,2022_May_11_1526,Partial repeat,2021.2.3,59.926601618503284,
1,7,0,1,2,3,1,1,1,1,0,1,1,0,0,0,118,118,118,1,0,1,0,,,,,,,,,707.1938428003341,None,708.1004130002111,None,s,1,0.6416004989296198,708.1004130002111,None,None,None,,,,,,,24,22,female,24,2022_May_11_1526,Partial repeat,2021.2.3,59.926601618503284,
1,7,0,1,2,3,1,1,1,1,0,1,1,0,0,0,118,118,118,,,,,,,,,,,,,,,,,,,,,,,,,,,,,,24,22,female,24,2022_May_11_1526,Partial repeat,2021.2.3,59.926601618503284,
2,5,0,1,2,2,2,2,0,0,1,1,1,0,0,0,119,119,119,0,0,0,0,,,,,,,708.7726799007505,None,709.2405398003757,None,710.0712739005685,None,l,1,0.7428205981850624,710.0712739005685,None,None,None,,,,,,,24,22,female,24,2022_May_11_1526,Partial repeat,2021.2.3,59.926601618503284,
2,5,0,1,2,2,2,2,0,0,1,1,1,0,0,0,119,119,119,1,0,1,0,,,,,,,,,710.8236389998347,None,711.8413308002055,None,l,1,0.5166343990713358,711.8413308002055,None,None,None,,,,,,,24,22,female,24,2022_May_11_1526,Partial repeat,2021.2.3,59.926601618503284,
2,5,0,1,2,2,2,2,0,0,1,1,1,0,0,0,119,119,119,,,,,,,,,,,,,,,,,,,,,,,,,,,,,,24,22,female,24,2022_May_11_1526,Partial repeat,2021.2.3,59.926601618503284,
8,2,0,1,3,2,2,1,0,1,0,0,0,0,0,0,120,120,120,0,0,0,0,,,,,,,712.385083001107,None,712.9143931008875,None,713.9286729004234,None,l,1,0.509418299421668,713.9286729004234,None,None,None,,,,,,,24,22,female,24,2022_May_11_1526,Partial repeat,2021.2.3,59.926601618503284,
8,2,0,1,3,2,2,1,0,1,0,0,0,0,0,0,120,120,120,1,0,1,0,,,,,,,,,714.4475267007947,None,715.181082200259,None,s,1,0.624881699681282,715.181082200259,None,None,None,,,,,,,24,22,female,24,2022_May_11_1526,Partial repeat,2021.2.3,59.926601618503284,
8,2,0,1,3,2,2,1,0,1,0,0,0,0,0,0,120,120,120,,,,,,,,,,,,,,,,,,,,,,,,,,,,,,24,22,female,24,2022_May_11_1526,Partial repeat,2021.2.3,59.926601618503284,
8,5,0,1,2,2,2,2,1,1,1,1,1,0,0,0,121,121,121,0,0,0,0,,,,,,,715.829617600888,None,716.2708857003599,None,717.2850048001856,None,s,1,0.5448977015912533,717.2850048001856,None,None,None,,,,,,,24,22,female,24,2022_May_11_1526,Partial repeat,2021.2.3,59.926601618503284,
8,5,0,1,2,2,2,2,1,1,1,1,1,0,0,0,121,121,121,1,0,1,0,,,,,,,,,717.8466656003147,None,718.7044801004231,None,s,1,0.5575501993298531,718.7044801004231,None,None,None,,,,,,,24,22,female,24,2022_May_11_1526,Partial repeat,2021.2.3,59.926601618503284,
8,5,0,1,2,2,2,2,1,1,1,1,1,0,0,0,121,121,121,,,,,,,,,,,,,,,,,,,,,,,,,,,,,,24,22,female,24,2022_May_11_1526,Partial repeat,2021.2.3,59.926601618503284,
5,1,0,1,2,2,1,2,1,1,1,0,1,0,0,0,122,122,122,0,0,0,0,,,,,,,719.290468800813,None,719.7777453009039,None,720.5084406007081,None,s,1,0.5294355005025864,720.5084406007081,None,None,None,,,,,,,24,22,female,24,2022_May_11_1526,Partial repeat,2021.2.3,59.926601618503284,
5,1,0,1,2,2,1,2,1,1,1,0,1,0,0,0,122,122,122,1,0,1,0,,,,,,,,,721.0659776013345,None,721.9942975006998,None,s,1,0.6036607995629311,721.9942975006998,None,None,None,,,,,,,24,22,female,24,2022_May_11_1526,Partial repeat,2021.2.3,59.926601618503284,
5,1,0,1,2,2,1,2,1,1,1,0,1,0,0,0,122,122,122,,,,,,,,,,,,,,,,,,,,,,,,,,,,,,24,22,female,24,2022_May_11_1526,Partial repeat,2021.2.3,59.926601618503284,
7,4,0,1,2,3,1,2,1,0,0,0,0,0,0,0,123,123,123,0,0,0,0,,,,,,,722.6202544998378,None,722.9505841005594,None,723.964766100049,None,s,1,0.7291921991854906,723.964766100049,None,None,None,,,,,,,24,22,female,24,2022_May_11_1526,Partial repeat,2021.2.3,59.926601618503284,
7,4,0,1,2,3,1,2,1,0,0,0,0,0,0,0,123,123,123,1,0,1,0,,,,,,,,,724.7130003012717,None,725.5512700006366,None,l,1,0.6787581983953714,725.5512700006366,None,None,None,,,,,,,24,22,female,24,2022_May_11_1526,Partial repeat,2021.2.3,59.926601618503284,
7,4,0,1,2,3,1,2,1,0,0,0,0,0,0,0,123,123,123,,,,,,,,,,,,,,,,,,,,,,,,,,,,,,24,22,female,24,2022_May_11_1526,Partial repeat,2021.2.3,59.926601618503284,
4,8,0,1,2,3,1,2,0,1,0,0,0,0,0,0,124,124,124,0,0,0,0,,,,,,,726.2422352004796,None,726.7413015011698,None,727.7054437007755,None,l,1,0.7005312014371157,727.7054437007755,None,None,None,,,,,,,24,22,female,24,2022_May_11_1526,Partial repeat,2021.2.3,59.926601618503284,
4,8,0,1,2,3,1,2,0,1,0,0,0,0,0,0,124,124,124,1,0,1,0,,,,,,,,,728.4315750002861,None,729.2248864006251,None,s,1,0.5250719003379345,729.2248864006251,None,None,None,,,,,,,24,22,female,24,2022_May_11_1526,Partial repeat,2021.2.3,59.926601618503284,
4,8,0,1,2,3,1,2,0,1,0,0,0,0,0,0,124,124,124,,,,,,,,,,,,,,,,,,,,,,,,,,,,,,24,22,female,24,2022_May_11_1526,Partial repeat,2021.2.3,59.926601618503284,
8,7,0,1,3,3,2,2,0,0,1,1,1,0,0,0,125,125,125,0,0,0,0,,,,,,,729.7671380005777,None,730.1812661997974,None,730.928129600361,None,l,1,0.5259277988225222,730.928129600361,None,None,None,,,,,,,24,22,female,24,2022_May_11_1526,Partial repeat,2021.2.3,59.926601618503284,
8,7,0,1,3,3,2,2,0,0,1,1,1,0,0,0,125,125,125,1,0,1,0,,,,,,,,,731.4645477999002,None,732.4486306011677,None,l,1,0.6293209008872509,732.4486306011677,None,None,None,,,,,,,24,22,female,24,2022_May_11_1526,Partial repeat,2021.2.3,59.926601618503284,
8,7,0,1,3,3,2,2,0,0,1,1,1,0,0,0,125,125,125,,,,,,,,,,,,,,,,,,,,,,,,,,,,,,24,22,female,24,2022_May_11_1526,Partial repeat,2021.2.3,59.926601618503284,
8,8,0,1,3,2,2,1,1,0,0,0,0,0,0,0,126,126,126,0,0,0,0,,,,,,,733.1001012008637,None,733.5043612010777,None,734.4517411012203,None,s,1,0.5382078997790813,734.4517411012203,None,None,None,,,,,,,24,22,female,24,2022_May_11_1526,Partial repeat,2021.2.3,59.926601618503284,
8,8,0,1,3,2,2,1,1,0,0,0,0,0,0,0,126,126,126,1,0,1,0,,,,,,,,,735.0079992003739,None,735.8543105013669,None,l,1,0.5836406983435154,735.8543105013669,None,None,None,,,,,,,24,22,female,24,2022_May_11_1526,Partial repeat,2021.2.3,59.926601618503284,
8,8,0,1,3,2,2,1,1,0,0,0,0,0,0,0,126,126,126,,,,,,,,,,,,,,,,,,,,,,,,,,,,,,24,22,female,24,2022_May_11_1526,Partial repeat,2021.2.3,59.926601618503284,
4,6,0,1,2,2,2,1,0,0,1,0,1,0,0,0,127,127,127,0,0,0,0,,,,,,,736.4642489999533,None,737.7627336010337,None,738.5263264011592,None,l,1,0.6716008000075817,738.5263264011592,None,None,None,,,,,,,24,22,female,24,2022_May_11_1526,Partial repeat,2021.2.3,59.926601618503284,
4,6,0,1,2,2,2,1,0,0,1,0,1,0,0,0,127,127,127,1,0,1,0,,,,,,,,,739.2096758000553,None,739.979204101488,None,l,1,0.5227456986904144,739.979204101488,None,None,None,,,,,,,24,22,female,24,2022_May_11_1526,Partial repeat,2021.2.3,59.926601618503284,
4,6,0,1,2,2,2,1,0,0,1,0,1,0,0,0,127,127,127,,,,,,,,,,,,,,,,,,,,,,,,,,,,,,24,22,female,24,2022_May_11_1526,Partial repeat,2021.2.3,59.926601618503284,
2,2,0,1,2,2,1,2,0,1,1,0,0,1,0,0,128,128,128,0,0,0,0,,,,,,,741.0367098003626,None,742.4718876015395,None,743.28586059995,None,l,1,0.5841502007097006,743.28586059995,None,None,None,,,,,,,24,22,female,24,2022_May_11_1526,Partial repeat,2021.2.3,59.926601618503284,
2,2,0,1,2,2,1,2,0,1,1,0,0,1,0,0,128,128,128,1,0,1,0,,,,,,,,,743.8954422008246,None,744.8057344015688,None,s,1,0.5602212995290756,744.8057344015688,None,None,None,,,,,,,24,22,female,24,2022_May_11_1526,Partial repeat,2021.2.3,59.926601618503284,
2,2,0,1,2,2,1,2,0,1,1,0,0,1,0,0,128,128,128,,,,,,,,,,,,,,,,,,,,,,,,,,,,,,24,22,female,24,2022_May_11_1526,Partial repeat,2021.2.3,59.926601618503284,
2,2,0,1,3,2,1,2,0,0,0,0,1,1,0,0,129,129,129,0,0,0,0,,,,,,,745.3874085005373,None,746.4295920003206,None,747.2770367003977,None,l,1,0.5450730994343758,747.2770367003977,None,None,None,,,,,,,24,22,female,24,2022_May_11_1526,Partial repeat,2021.2.3,59.926601618503284,
2,2,0,1,3,2,1,2,0,0,0,0,1,1,0,0,129,129,129,1,0,1,0,,,,,,,,,747.8320937007666,None,748.6125095002353,None,l,1,0.5534712001681328,748.6125095002353,None,None,None,,,,,,,24,22,female,24,2022_May_11_1526,Partial repeat,2021.2.3,59.926601618503284,
2,2,0,1,3,2,1,2,0,0,0,0,1,1,0,0,129,129,129,,,,,,,,,,,,,,,,,,,,,,,,,,,,,,24,22,female,24,2022_May_11_1526,Partial repeat,2021.2.3,59.926601618503284,
2,2,0,1,2,2,1,2,1,0,1,0,0,1,0,0,130,130,130,0,0,0,0,,,,,,,749.196925399825,None,749.7526799999177,None,750.5663614012301,None,s,1,0.6636375002563,750.5663614012301,None,None,None,,,,,,,24,22,female,24,2022_May_11_1526,Partial repeat,2021.2.3,59.926601618503284,
2,2,0,1,2,2,1,2,1,0,1,0,0,1,0,0,130,130,130,1,0,1,0,,,,,,,,,751.2390863001347,None,752.0025761015713,None,l,1,0.4674124997109175,752.0025761015713,None,None,None,,,,,,,24,22,female,24,2022_May_11_1526,Partial repeat,2021.2.3,59.926601618503284,
2,2,0,1,2,2,1,2,1,0,1,0,0,1,0,0,130,130,130,,,,,,,,,,,,,,,,,,,,,,,,,,,,,,24,22,female,24,2022_May_11_1526,Partial repeat,2021.2.3,59.926601618503284,
2,2,0,1,2,3,1,1,1,0,0,1,0,1,0,0,131,131,131,0,0,0,0,,,,,,,752.5003644004464,None,752.9422904010862,None,753.8396800011396,None,l,0,0.4623343013226986,753.8396800011396,None,754.318180501461,None,,,,,,,24,22,female,24,2022_May_11_1526,Partial repeat,2021.2.3,59.926601618503284,
2,2,0,1,2,3,1,1,1,0,0,1,0,1,0,0,131,131,131,1,0,1,0,,,,,,,,,754.829227199778,None,755.6093049999326,None,l,1,0.6046219989657402,755.6093049999326,None,None,None,,,,,,,24,22,female,24,2022_May_11_1526,Partial repeat,2021.2.3,59.926601618503284,
2,2,0,1,2,3,1,1,1,0,0,1,0,1,0,0,131,131,131,,,,,,,,,,,,,,,,,,,,,,,,,,,,,,24,22,female,24,2022_May_11_1526,Partial repeat,2021.2.3,59.926601618503284,
2,2,0,1,2,2,1,1,1,1,1,1,1,1,0,0,132,132,132,0,0,0,0,,,,,,,756.2371559012681,None,756.5659669004381,None,757.5468889009207,None,s,1,0.4270527996122837,757.5468889009207,None,None,None,,,,,,,24,22,female,24,2022_May_11_1526,Partial repeat,2021.2.3,59.926601618503284,
2,2,0,1,2,2,1,1,1,1,1,1,1,1,0,0,132,132,132,1,0,1,0,,,,,,,,,757.9902063012123,None,758.8657697997987,None,s,1,0.4842766001820564,758.8657697997987,None,None,None,,,,,,,24,22,female,24,2022_May_11_1526,Partial repeat,2021.2.3,59.926601618503284,
2,2,0,1,2,2,1,1,1,1,1,1,1,1,0,0,132,132,132,,,,,,,,,,,,,,,,,,,,,,,,,,,,,,24,22,female,24,2022_May_11_1526,Partial repeat,2021.2.3,59.926601618503284,
2,2,0,1,3,3,1,1,1,0,1,1,0,1,0,0,133,133,133,0,0,0,0,,,,,,,759.3632056005299,None,759.8557189013809,None,760.8197678010911,None,s,1,0.4261687994003296,760.8197678010911,None,None,None,,,,,,,24,22,female,24,2022_May_11_1526,Partial repeat,2021.2.3,59.926601618503284,
2,2,0,1,3,3,1,1,1,0,1,1,0,1,0,0,133,133,133,1,0,1,0,,,,,,,,,761.2689032014459,None,762.2062274999917,None,l,1,0.3917862996459007,762.2062274999917,None,None,None,,,,,,,24,22,female,24,2022_May_11_1526,Partial repeat,2021.2.3,59.926601618503284,
2,2,0,1,3,3,1,1,1,0,1,1,0,1,0,0,133,133,133,,,,,,,,,,,,,,,,,,,,,,,,,,,,,,24,22,female,24,2022_May_11_1526,Partial repeat,2021.2.3,59.926601618503284,
2,2,0,1,2,3,1,1,0,0,0,1,1,1,0,0,134,134,134,0,0,0,0,,,,,,,762.6203187014908,None,763.1620601005852,None,763.9270123001188,None,l,1,0.36692470125854015,763.9270123001188,None,None,None,,,,,,,24,22,female,24,2022_May_11_1526,Partial repeat,2021.2.3,59.926601618503284,
2,2,0,1,2,3,1,1,0,0,0,1,1,1,0,0,134,134,134,1,0,1,0,,,,,,,,,764.3129549007863,None,765.244943600148,None,l,1,0.37695089913904667,765.244943600148,None,None,None,,,,,,,24,22,female,24,2022_May_11_1526,Partial repeat,2021.2.3,59.926601618503284,
2,2,0,1,2,3,1,1,0,0,0,1,1,1,0,0,134,134,134,,,,,,,,,,,,,,,,,,,,,,,,,,,,,,24,22,female,24,2022_May_11_1526,Partial repeat,2021.2.3,59.926601618503284,
2,2,0,1,3,2,2,1,0,0,0,0,1,1,0,0,135,135,135,0,0,0,0,,,,,,,765.6380505003035,None,765.9842480011284,None,766.7145981006324,None,l,1,0.6673523001372814,766.7145981006324,None,None,None,,,,,,,24,22,female,24,2022_May_11_1526,Partial repeat,2021.2.3,59.926601618503284,
2,2,0,1,3,2,2,1,0,0,0,0,1,1,0,0,135,135,135,1,0,1,0,,,,,,,,,767.3970360998064,None,768.1341476012021,None,l,1,0.3437859993427992,768.1341476012021,None,None,None,,,,,,,24,22,female,24,2022_May_11_1526,Partial repeat,2021.2.3,59.926601618503284,
2,2,0,1,3,2,2,1,0,0,0,0,1,1,0,0,135,135,135,,,,,,,,,,,,,,,,,,,,,,,,,,,,,,24,22,female,24,2022_May_11_1526,Partial repeat,2021.2.3,59.926601618503284,
2,2,0,1,2,2,1,1,1,0,1,1,0,1,0,0,136,136,136,0,0,0,0,,,,,,,768.5007239002734,None,768.7727250009775,None,769.6369554009289,None,s,1,0.4889401998370886,769.6369554009289,None,None,None,,,,,,,24,22,female,24,2022_May_11_1526,Partial repeat,2021.2.3,59.926601618503284,
2,2,0,1,2,2,1,1,1,0,1,1,0,1,0,0,136,136,136,1,0,1,0,,,,,,,,,770.1535325013101,None,771.0731445997953,None,l,1,0.452794399112463,771.0731445997953,None,None,None,,,,,,,24,22,female,24,2022_May_11_1526,Partial repeat,2021.2.3,59.926601618503284,
2,2,0,1,2,2,1,1,1,0,1,1,0,1,0,0,136,136,136,,,,,,,,,,,,,,,,,,,,,,,,,,,,,,24,22,female,24,2022_May_11_1526,Partial repeat,2021.2.3,59.926601618503284,
2,2,0,1,3,3,2,1,0,0,1,0,1,1,0,0,137,137,137,0,0,0,0,,,,,,,771.5521327015013,None,772.0961600001901,None,773.0767491012812,None,l,1,0.4331391993910074,773.0767491012812,None,None,None,,,,,,,24,22,female,24,2022_May_11_1526,Partial repeat,2021.2.3,59.926601618503284,
2,2,0,1,3,3,2,1,0,0,1,0,1,1,0,0,137,137,137,1,0,1,0,,,,,,,,,773.5292647015303,None,774.463102100417,None,l,1,0.3908364996314049,774.463102100417,None,None,None,,,,,,,24,22,female,24,2022_May_11_1526,Partial repeat,2021.2.3,59.926601618503284,
2,2,0,1,3,3,2,1,0,0,1,0,1,1,0,0,137,137,137,,,,,,,,,,,,,,,,,,,,,,,,,,,,,,24,22,female,24,2022_May_11_1526,Partial repeat,2021.2.3,59.926601618503284,
2,2,0,1,2,3,2,2,0,0,0,1,1,1,0,0,138,138,138,0,0,0,0,,,,,,,774.8809133004397,None,775.3023736011237,None,776.2834293004125,None,l,1,0.4666050001978874,776.2834293004125,None,None,None,,,,,,,24,22,female,24,2022_May_11_1526,Partial repeat,2021.2.3,59.926601618503284,
2,2,0,1,2,3,2,2,0,0,0,1,1,1,0,0,138,138,138,1,0,1,0,,,,,,,,,776.7580460999161,None,777.6359024010599,None,l,1,0.3300339989364147,777.6359024010599,None,None,None,,,,,,,24,22,female,24,2022_May_11_1526,Partial repeat,2021.2.3,59.926601618503284,
2,2,0,1,2,3,2,2,0,0,0,1,1,1,0,0,138,138,138,,,,,,,,,,,,,,,,,,,,,,,,,,,,,,24,22,female,24,2022_May_11_1526,Partial repeat,2021.2.3,59.926601618503284,
2,2,0,1,2,2,2,1,1,1,1,0,1,1,0,0,139,139,139,0,0,0,0,,,,,,,777.9884681999683,None,778.3082370012999,None,779.1386141013354,None,s,1,0.4834273997694254,779.1386141013354,None,None,None,,,,,,,24,22,female,24,2022_May_11_1526,Partial repeat,2021.2.3,59.926601618503284,
2,2,0,1,2,2,2,1,1,1,1,0,1,1,0,0,139,139,139,1,0,1,0,,,,,,,,,779.6312103010714,None,780.591700900346,None,l,0,0.406223701313138,780.591700900346,None,781.0227965004742,None,,,,,,,24,22,female,24,2022_May_11_1526,Partial repeat,2021.2.3,59.926601618503284,
2,2,0,1,2,2,2,1,1,1,1,0,1,1,0,0,139,139,139,,,,,,,,,,,,,,,,,,,,,,,,,,,,,,24,22,female,24,2022_May_11_1526,Partial repeat,2021.2.3,59.926601618503284,
2,2,0,1,3,3,2,2,1,1,1,1,1,1,0,0,140,140,140,0,0,0,0,,,,,,,781.5312366001308,None,782.7502492014319,None,783.7651465013623,None,s,1,0.624788099899888,783.7651465013623,None,None,None,,,,,,,24,22,female,24,2022_May_11_1526,Partial repeat,2021.2.3,59.926601618503284,
2,2,0,1,3,3,2,2,1,1,1,1,1,1,0,0,140,140,140,1,0,1,0,,,,,,,,,784.4118889011443,None,785.2003370001912,None,s,1,0.49365329928696156,785.2003370001912,None,None,None,,,,,,,24,22,female,24,2022_May_11_1526,Partial repeat,2021.2.3,59.926601618503284,
2,2,0,1,3,3,2,2,1,1,1,1,1,1,0,0,140,140,140,,,,,,,,,,,,,,,,,,,,,,,,,,,,,,24,22,female,24,2022_May_11_1526,Partial repeat,2021.2.3,59.926601618503284,
2,2,0,1,3,2,2,2,1,1,0,1,1,1,0,0,141,141,141,0,0,0,0,,,,,,,785.7191206999123,None,786.7746855001897,None,787.622827200219,None,s,1,0.4791027996689081,787.622827200219,None,None,None,,,,,,,24,22,female,24,2022_May_11_1526,Partial repeat,2021.2.3,59.926601618503284,
2,2,0,1,3,2,2,2,1,1,0,1,1,1,0,0,141,141,141,1,0,1,0,,,,,,,,,788.1208140011877,None,788.8908994011581,None,s,1,0.5311117004603148,788.8908994011581,None,None,None,,,,,,,24,22,female,24,2022_May_11_1526,Partial repeat,2021.2.3,59.926601618503284,
2,2,0,1,3,2,2,2,1,1,0,1,1,1,0,0,141,141,141,,,,,,,,,,,,,,,,,,,,,,,,,,,,,,24,22,female,24,2022_May_11_1526,Partial repeat,2021.2.3,59.926601618503284,
2,2,0,1,2,2,2,2,0,1,1,1,0,1,0,0,142,142,142,0,0,0,0,,,,,,,789.4325582999736,None,794.339430199936,None,795.2532951012254,None,l,1,0.5687044002115726,795.2532951012254,None,None,None,,,,,,,24,22,female,24,2022_May_11_1526,Partial repeat,2021.2.3,59.926601618503284,
2,2,0,1,2,2,2,2,0,1,1,1,0,1,0,0,142,142,142,1,0,1,0,,,,,,,,,795.8336821999401,None,796.6893709003925,None,s,1,0.44456759840250015,796.6893709003925,None,None,None,,,,,,,24,22,female,24,2022_May_11_1526,Partial repeat,2021.2.3,59.926601618503284,
2,2,0,1,2,2,2,2,0,1,1,1,0,1,0,0,142,142,142,,,,,,,,,,,,,,,,,,,,,,,,,,,,,,24,22,female,24,2022_May_11_1526,Partial repeat,2021.2.3,59.926601618503284,
2,2,0,1,3,3,1,2,0,0,1,0,1,1,0,0,143,143,143,0,0,0,0,,,,,,,797.1458183005452,None,797.5957920011133,None,798.5934172011912,None,l,1,0.6045021004974842,798.5934172011912,None,None,None,,,,,,,24,22,female,24,2022_May_11_1526,Partial repeat,2021.2.3,59.926601618503284,
2,2,0,1,3,3,1,2,0,0,1,0,1,1,0,0,143,143,143,1,0,1,0,,,,,,,,,799.2154191005975,None,800.1960999015719,None,l,1,0.4018821995705366,800.1960999015719,None,None,None,,,,,,,24,22,female,24,2022_May_11_1526,Partial repeat,2021.2.3,59.926601618503284,
2,2,0,1,3,3,1,2,0,0,1,0,1,1,0,0,143,143,143,,,,,,,,,,,,,,,,,,,,,,,,,,,,,,24,22,female,24,2022_May_11_1526,Partial repeat,2021.2.3,59.926601618503284,
2,2,0,1,2,3,2,1,1,1,0,0,1,1,0,0,144,144,144,0,0,0,0,,,,,,,800.6124170012772,None,801.0191323999316,None,801.9330130014569,None,s,1,0.45690649934113026,801.9330130014569,None,None,None,,,,,,,24,22,female,24,2022_May_11_1526,Partial repeat,2021.2.3,59.926601618503284,
2,2,0,1,2,3,2,1,1,1,0,0,1,1,0,0,144,144,144,1,0,1,0,,,,,,,,,802.4081709999591,None,803.3861829005182,None,s,1,0.4357369989156723,803.3861829005182,None,None,None,,,,,,,24,22,female,24,2022_May_11_1526,Partial repeat,2021.2.3,59.926601618503284,
2,2,0,1,2,3,2,1,1,1,0,0,1,1,0,0,144,144,144,,,,,,,,,,,,,,,,,,,,,,,,,,,,,,24,22,female,24,2022_May_11_1526,Partial repeat,2021.2.3,59.926601618503284,
2,2,0,1,3,3,1,1,0,0,1,1,1,1,0,0,145,145,145,0,0,0,0,,,,,,,803.8450096007437,None,804.3756392002106,None,805.1892985999584,None,l,1,0.672622499987483,805.1892985999584,None,None,None,,,,,,,24,22,female,24,2022_May_11_1526,Partial repeat,2021.2.3,59.926601618503284,
2,2,0,1,3,3,1,1,0,0,1,1,1,1,0,0,145,145,145,1,0,1,0,,,,,,,,,805.8773760013282,None,806.6757172010839,None,l,1,0.37019809894263744,806.6757172010839,None,None,None,,,,,,,24,22,female,24,2022_May_11_1526,Partial repeat,2021.2.3,59.926601618503284,
2,2,0,1,3,3,1,1,0,0,1,1,1,1,0,0,145,145,145,,,,,,,,,,,,,,,,,,,,,,,,,,,,,,24,22,female,24,2022_May_11_1526,Partial repeat,2021.2.3,59.926601618503284,
2,2,0,1,3,3,1,2,1,0,1,0,0,1,0,0,146,146,146,0,0,0,0,,,,,,,807.0701476000249,None,811.3057681005448,None,812.2365988008678,None,s,1,0.5612793006002903,812.2365988008678,None,None,None,,,,,,,24,22,female,24,2022_May_11_1526,Partial repeat,2021.2.3,59.926601618503284,
2,2,0,1,3,3,1,2,1,0,1,0,0,1,0,0,146,146,146,1,0,1,0,,,,,,,,,812.8160066008568,None,813.6394923999906,None,s,0,0.5743966996669769,813.6394923999906,None,814.240018799901,None,,,,,,,24,22,female,24,2022_May_11_1526,Partial repeat,2021.2.3,59.926601618503284,
2,2,0,1,3,3,1,2,1,0,1,0,0,1,0,0,146,146,146,,,,,,,,,,,,,,,,,,,,,,,,,,,,,,24,22,female,24,2022_May_11_1526,Partial repeat,2021.2.3,59.926601618503284,
2,2,0,1,2,3,2,2,1,1,0,1,1,1,0,0,147,147,147,0,0,0,0,,,,,,,814.7458027005196,None,815.1799944005907,None,816.1108072008938,None,s,1,0.4230831004679203,816.1108072008938,None,None,None,,,,,,,24,22,female,24,2022_May_11_1526,Partial repeat,2021.2.3,59.926601618503284,
2,2,0,1,2,3,2,2,1,1,0,1,1,1,0,0,147,147,147,1,0,1,0,,,,,,,,,816.5595802012831,None,817.3642560001463,None,s,1,0.4256515000015497,817.3642560001463,None,None,None,,,,,,,24,22,female,24,2022_May_11_1526,Partial repeat,2021.2.3,59.926601618503284,
2,2,0,1,2,3,2,2,1,1,0,1,1,1,0,0,147,147,147,,,,,,,,,,,,,,,,,,,,,,,,,,,,,,24,22,female,24,2022_May_11_1526,Partial repeat,2021.2.3,59.926601618503284,
2,2,0,1,2,2,2,2,1,0,1,1,0,1,0,0,148,148,148,0,0,0,0,,,,,,,817.8045304007828,None,818.7201695013791,None,819.5004481002688,None,s,1,0.43346850015223026,819.5004481002688,None,None,None,,,,,,,24,22,female,24,2022_May_11_1526,Partial repeat,2021.2.3,59.926601618503284,
2,2,0,1,2,2,2,2,1,0,1,1,0,1,0,0,148,148,148,1,0,1,0,,,,,,,,,819.9544740002602,None,820.8695221003145,None,l,1,0.488417100161314,820.8695221003145,None,None,None,,,,,,,24,22,female,24,2022_May_11_1526,Partial repeat,2021.2.3,59.926601618503284,
2,2,0,1,2,2,2,2,1,0,1,1,0,1,0,0,148,148,148,,,,,,,,,,,,,,,,,,,,,,,,,,,,,,24,22,female,24,2022_May_11_1526,Partial repeat,2021.2.3,59.926601618503284,
2,2,0,1,2,2,2,2,1,1,1,1,1,1,0,0,149,149,149,0,0,0,0,,,,,,,821.3883793000132,None,822.7781160008162,None,823.5585772003978,None,s,1,0.503320200368762,823.5585772003978,None,None,None,,,,,,,24,22,female,24,2022_May_11_1526,Partial repeat,2021.2.3,59.926601618503284,
2,2,0,1,2,2,2,2,1,1,1,1,1,1,0,0,149,149,149,1,0,1,0,,,,,,,,,824.0738575998694,None,824.9109577015042,None,s,1,0.47895449958741665,824.9109577015042,None,None,None,,,,,,,24,22,female,24,2022_May_11_1526,Partial repeat,2021.2.3,59.926601618503284,
2,2,0,1,2,2,2,2,1,1,1,1,1,1,0,0,149,149,149,,,,,,,,,,,,,,,,,,,,,,,,,,,,,,24,22,female,24,2022_May_11_1526,Partial repeat,2021.2.3,59.926601618503284,
2,2,0,1,2,3,1,2,0,1,0,0,0,1,0,0,150,150,150,0,0,0,0,,,,,,,825.4120014999062,None,825.7505534999073,None,826.5309900008142,None,l,1,0.5549134984612465,826.5309900008142,None,None,None,,,,,,,24,22,female,24,2022_May_11_1526,Partial repeat,2021.2.3,59.926601618503284,
2,2,0,1,2,3,1,2,0,1,0,0,0,1,0,0,150,150,150,1,0,1,0,,,,,,,,,827.1075753010809,None,827.9671756010503,None,s,1,0.4787276014685631,827.9671756010503,None,None,None,,,,,,,24,22,female,24,2022_May_11_1526,Partial repeat,2021.2.3,59.926601618503284,
