prime_tar_pos,probe_tar_pos,dimension,tar_color,prime_dist_color,probe_dist_color,prime_dist_shape,probe_dist_shape,prime_tar_dot_pos,probe_tar_dot_pos,col_rep,shape_rep,resp_rep,pos_fixed,sparse,MainLoop.thisRepN,MainLoop.thisTrialN,MainLoop.thisN,MainLoop.thisIndex,PrimeProbe.thisRepN,PrimeProbe.thisTrialN,PrimeProbe.thisN,PrimeProbe.thisIndex,Instruction.started,Instruction.stopped,instruction_key.keys,instruction_key.rt,instruction_key.started,instruction_key.stopped,PairStartText.started,PairStartText.stopped,FixCross.started,FixCross.stopped,SearchFixCross.started,SearchFixCross.stopped,key_resp.keys,key_resp.corr,key_resp.rt,key_resp.started,key_resp.stopped,feedback_text.started,feedback_text.stopped,text_finish.started,text_finish.stopped,finish_key.keys,finish_key.rt,finish_key.started,finish_key.stopped,participant,age,gender,group,date,expName,psychopyVersion,frameRate,
,,,,,,,,,,,,,,,,,,,,,,,595.9929817002267,None,space,70.69751119986176,595.9929817002267,None,,,,,,,,,,,,,,,,,,,,2,22,female,2,2022_May_05_0909,Partial repeat,2021.2.3,59.89092634429227,
5,5,0,1,2,2,1,2,0,0,1,0,1,1,0,0,0,0,0,0,0,0,0,,,,,,,666.8381657991558,None,668.7761217989028,None,669.5344329997897,None,s,0,3.4597792997956276,669.5344329997897,None,673.0222775992006,None,,,,,,,2,22,female,2,2022_May_05_0909,Partial repeat,2021.2.3,59.89092634429227,
5,5,0,1,2,2,1,2,0,0,1,0,1,1,0,0,0,0,0,1,0,1,0,,,,,,,,,673.52621909976,None,674.3065003994852,None,l,1,3.1357486993074417,674.3065003994852,None,None,None,,,,,,,2,22,female,2,2022_May_05_0909,Partial repeat,2021.2.3,59.89092634429227,
5,5,0,1,2,2,1,2,0,0,1,0,1,1,0,0,0,0,0,,,,,,,,,,,,,,,,,,,,,,,,,,,,,,2,22,female,2,2022_May_05_0909,Partial repeat,2021.2.3,59.89092634429227,
5,5,0,1,2,2,1,1,1,1,1,1,1,1,0,0,1,1,1,0,0,0,0,,,,,,,677.4725167993456,None,681.1243097987026,None,681.9882840998471,None,s,1,1.1099725998938084,681.9882840998471,None,None,None,,,,,,,2,22,female,2,2022_May_05_0909,Partial repeat,2021.2.3,59.89092634429227,
5,5,0,1,2,2,1,1,1,1,1,1,1,1,0,0,1,1,1,1,0,1,0,,,,,,,,,683.124577799812,None,683.9589684996754,None,s,1,0.8272128012031317,683.9589684996754,None,None,None,,,,,,,2,22,female,2,2022_May_05_0909,Partial repeat,2021.2.3,59.89092634429227,
5,5,0,1,2,2,1,1,1,1,1,1,1,1,0,0,1,1,1,,,,,,,,,,,,,,,,,,,,,,,,,,,,,,2,22,female,2,2022_May_05_0909,Partial repeat,2021.2.3,59.89092634429227,
5,5,0,1,2,3,2,2,1,1,0,1,1,1,0,0,2,2,2,0,0,0,0,,,,,,,684.8065740000457,None,686.8354211002588,None,687.6994816996157,None,s,1,0.6388146001845598,687.6994816996157,None,None,None,,,,,,,2,22,female,2,2022_May_05_0909,Partial repeat,2021.2.3,59.89092634429227,
5,5,0,1,2,3,2,2,1,1,0,1,1,1,0,0,2,2,2,1,0,1,0,,,,,,,,,688.3634243998677,None,689.2358114998788,None,s,1,0.7024192996323109,689.2358114998788,None,None,None,,,,,,,2,22,female,2,2022_May_05_0909,Partial repeat,2021.2.3,59.89092634429227,
5,5,0,1,2,3,2,2,1,1,0,1,1,1,0,0,2,2,2,,,,,,,,,,,,,,,,,,,,,,,,,,,,,,2,22,female,2,2022_May_05_0909,Partial repeat,2021.2.3,59.89092634429227,
5,5,0,1,2,2,2,1,1,0,1,0,0,1,0,0,3,3,3,0,0,0,0,,,,,,,689.9548402000219,None,690.776376798749,None,691.5232436992228,None,s,1,0.6550581008195877,691.5232436992228,None,None,None,,,,,,,2,22,female,2,2022_May_05_0909,Partial repeat,2021.2.3,59.89092634429227,
5,5,0,1,2,2,2,1,1,0,1,0,0,1,0,0,3,3,3,1,0,1,0,,,,,,,,,692.1932050995529,None,692.9276186991483,None,l,1,1.5066382996737957,692.9276186991483,None,None,None,,,,,,,2,22,female,2,2022_May_05_0909,Partial repeat,2021.2.3,59.89092634429227,
5,5,0,1,2,2,2,1,1,0,1,0,0,1,0,0,3,3,3,,,,,,,,,,,,,,,,,,,,,,,,,,,,,,2,22,female,2,2022_May_05_0909,Partial repeat,2021.2.3,59.89092634429227,
5,5,0,1,2,2,2,2,1,0,1,1,0,1,0,0,4,4,4,0,0,0,0,,,,,,,694.4590640999377,None,695.385407699272,None,696.2327184993774,None,s,1,0.6176337003707886,696.2327184993774,None,None,None,,,,,,,2,22,female,2,2022_May_05_0909,Partial repeat,2021.2.3,59.89092634429227,
5,5,0,1,2,2,2,2,1,0,1,1,0,1,0,0,4,4,4,1,0,1,0,,,,,,,,,696.8606566991657,None,697.8024710994214,None,l,1,0.65578299947083,697.8024710994214,None,None,None,,,,,,,2,22,female,2,2022_May_05_0909,Partial repeat,2021.2.3,59.89092634429227,
5,5,0,1,2,2,2,2,1,0,1,1,0,1,0,0,4,4,4,,,,,,,,,,,,,,,,,,,,,,,,,,,,,,2,22,female,2,2022_May_05_0909,Partial repeat,2021.2.3,59.89092634429227,
5,5,0,1,2,2,1,2,1,0,1,0,0,1,0,0,5,5,5,0,0,0,0,,,,,,,698.4824916999787,None,700.0778668001294,None,700.8756795991212,None,s,1,0.5505797993391752,700.8756795991212,None,None,None,,,,,,,2,22,female,2,2022_May_05_0909,Partial repeat,2021.2.3,59.89092634429227,
5,5,0,1,2,2,1,2,1,0,1,0,0,1,0,0,5,5,5,1,0,1,0,,,,,,,,,701.4395428989083,None,702.4283827990294,None,l,1,0.5819645002484322,702.4283827990294,None,None,None,,,,,,,2,22,female,2,2022_May_05_0909,Partial repeat,2021.2.3,59.89092634429227,
5,5,0,1,2,2,1,2,1,0,1,0,0,1,0,0,5,5,5,,,,,,,,,,,,,,,,,,,,,,,,,,,,,,2,22,female,2,2022_May_05_0909,Partial repeat,2021.2.3,59.89092634429227,
5,5,0,1,3,3,2,1,0,1,1,0,0,1,0,0,6,6,6,0,0,0,0,,,,,,,703.0378481000662,None,704.0021703001112,None,704.9006532989442,None,l,1,1.1575360000133514,704.9006532989442,None,None,None,,,,,,,2,22,female,2,2022_May_05_0909,Partial repeat,2021.2.3,59.89092634429227,
5,5,0,1,3,3,2,1,0,1,1,0,0,1,0,0,6,6,6,1,0,1,0,,,,,,,,,706.0755745004863,None,706.9384994003922,None,s,1,0.5677543003112078,706.9384994003922,None,None,None,,,,,,,2,22,female,2,2022_May_05_0909,Partial repeat,2021.2.3,59.89092634429227,
5,5,0,1,3,3,2,1,0,1,1,0,0,1,0,0,6,6,6,,,,,,,,,,,,,,,,,,,,,,,,,,,,,,2,22,female,2,2022_May_05_0909,Partial repeat,2021.2.3,59.89092634429227,
5,5,0,1,3,3,1,2,1,0,1,0,0,1,0,0,7,7,7,0,0,0,0,,,,,,,707.5331896003336,None,708.5777410995215,None,709.3750340994447,None,s,1,1.2192311994731426,709.3750340994447,None,None,None,,,,,,,2,22,female,2,2022_May_05_0909,Partial repeat,2021.2.3,59.89092634429227,
5,5,0,1,3,3,1,2,1,0,1,0,0,1,0,0,7,7,7,1,0,1,0,,,,,,,,,710.6222109999508,None,711.4790604989976,None,l,1,0.491245299577713,711.4790604989976,None,None,None,,,,,,,2,22,female,2,2022_May_05_0909,Partial repeat,2021.2.3,59.89092634429227,
5,5,0,1,3,3,1,2,1,0,1,0,0,1,0,0,7,7,7,,,,,,,,,,,,,,,,,,,,,,,,,,,,,,2,22,female,2,2022_May_05_0909,Partial repeat,2021.2.3,59.89092634429227,
5,5,0,1,3,3,2,1,0,0,1,0,1,1,0,0,8,8,8,0,0,0,0,,,,,,,711.982273099944,None,712.9862690996379,None,713.952349498868,None,l,1,0.7138861995190382,713.952349498868,None,None,None,,,,,,,2,22,female,2,2022_May_05_0909,Partial repeat,2021.2.3,59.89092634429227,
5,5,0,1,3,3,2,1,0,0,1,0,1,1,0,0,8,8,8,1,0,1,0,,,,,,,,,714.693454599008,None,715.7045696992427,None,s,0,0.8496778011322021,715.7045696992427,None,716.5789326000959,None,,,,,,,2,22,female,2,2022_May_05_0909,Partial repeat,2021.2.3,59.89092634429227,
5,5,0,1,3,3,2,1,0,0,1,0,1,1,0,0,8,8,8,,,,,,,,,,,,,,,,,,,,,,,,,,,,,,2,22,female,2,2022_May_05_0909,Partial repeat,2021.2.3,59.89092634429227,
5,5,0,1,3,2,1,1,1,1,0,1,1,1,0,0,9,9,9,0,0,0,0,,,,,,,717.0941626988351,None,717.8457161001861,None,718.6762281991541,None,s,1,0.6220661997795105,718.6762281991541,None,None,None,,,,,,,2,22,female,2,2022_May_05_0909,Partial repeat,2021.2.3,59.89092634429227,
5,5,0,1,3,2,1,1,1,1,0,1,1,1,0,0,9,9,9,1,0,1,0,,,,,,,,,719.3219459000975,None,720.0623891986907,None,s,1,0.6118998005986214,720.0623891986907,None,None,None,,,,,,,2,22,female,2,2022_May_05_0909,Partial repeat,2021.2.3,59.89092634429227,
5,5,0,1,3,2,1,1,1,1,0,1,1,1,0,0,9,9,9,,,,,,,,,,,,,,,,,,,,,,,,,,,,,,2,22,female,2,2022_May_05_0909,Partial repeat,2021.2.3,59.89092634429227,
5,5,0,1,3,3,2,2,1,0,1,1,0,1,0,0,10,10,10,0,0,0,0,,,,,,,720.6957673989236,None,722.3879274986684,None,723.2022976987064,None,s,1,0.6479901988059282,723.2022976987064,None,None,None,,,,,,,2,22,female,2,2022_May_05_0909,Partial repeat,2021.2.3,59.89092634429227,
5,5,0,1,3,3,2,2,1,0,1,1,0,1,0,0,10,10,10,1,0,1,0,,,,,,,,,723.8740528989583,None,724.8381505999714,None,l,1,0.40409150160849094,724.8381505999714,None,None,None,,,,,,,2,22,female,2,2022_May_05_0909,Partial repeat,2021.2.3,59.89092634429227,
5,5,0,1,3,3,2,2,1,0,1,1,0,1,0,0,10,10,10,,,,,,,,,,,,,,,,,,,,,,,,,,,,,,2,22,female,2,2022_May_05_0909,Partial repeat,2021.2.3,59.89092634429227,
5,5,0,1,3,2,1,1,1,0,0,1,0,1,0,0,11,11,11,0,0,0,0,,,,,,,725.2581162992865,None,725.7611142992973,None,726.6257678996772,None,s,1,1.2165210004895926,726.6257678996772,None,None,None,,,,,,,2,22,female,2,2022_May_05_0909,Partial repeat,2021.2.3,59.89092634429227,
5,5,0,1,3,2,1,1,1,0,0,1,0,1,0,0,11,11,11,1,0,1,0,,,,,,,,,727.8579155001789,None,728.7478096988052,None,l,1,0.398361599072814,728.7478096988052,None,None,None,,,,,,,2,22,female,2,2022_May_05_0909,Partial repeat,2021.2.3,59.89092634429227,
5,5,0,1,3,2,1,1,1,0,0,1,0,1,0,0,11,11,11,,,,,,,,,,,,,,,,,,,,,,,,,,,,,,2,22,female,2,2022_May_05_0909,Partial repeat,2021.2.3,59.89092634429227,
5,5,0,1,2,2,1,2,1,1,1,0,1,1,0,0,12,12,12,0,0,0,0,,,,,,,729.1661649998277,None,729.5518346000463,None,730.55530430004,None,s,1,0.4151166994124651,730.55530430004,None,None,None,,,,,,,2,22,female,2,2022_May_05_0909,Partial repeat,2021.2.3,59.89092634429227,
5,5,0,1,2,2,1,2,1,1,1,0,1,1,0,0,12,12,12,1,0,1,0,,,,,,,,,730.979787800461,None,731.742077998817,None,s,1,0.3641238994896412,731.742077998817,None,None,None,,,,,,,2,22,female,2,2022_May_05_0909,Partial repeat,2021.2.3,59.89092634429227,
5,5,0,1,2,2,1,2,1,1,1,0,1,1,0,0,12,12,12,,,,,,,,,,,,,,,,,,,,,,,,,,,,,,2,22,female,2,2022_May_05_0909,Partial repeat,2021.2.3,59.89092634429227,
5,5,0,1,2,3,1,2,1,0,0,0,0,1,0,0,13,13,13,0,0,0,0,,,,,,,732.1342820990831,None,732.5908118002117,None,733.3895641993731,None,s,1,0.356606500223279,733.3895641993731,None,None,None,,,,,,,2,22,female,2,2022_May_05_0909,Partial repeat,2021.2.3,59.89092634429227,
5,5,0,1,2,3,1,2,1,0,0,0,0,1,0,0,13,13,13,1,0,1,0,,,,,,,,,733.7639201004058,None,734.564425399527,None,l,1,0.40573429875075817,734.564425399527,None,None,None,,,,,,,2,22,female,2,2022_May_05_0909,Partial repeat,2021.2.3,59.89092634429227,
5,5,0,1,2,3,1,2,1,0,0,0,0,1,0,0,13,13,13,,,,,,,,,,,,,,,,,,,,,,,,,,,,,,2,22,female,2,2022_May_05_0909,Partial repeat,2021.2.3,59.89092634429227,
5,5,0,1,2,2,2,2,0,0,1,1,1,1,0,0,14,14,14,0,0,0,0,,,,,,,735.0015405993909,None,735.3464326001704,None,736.166751999408,None,l,1,0.6914051007479429,736.166751999408,None,None,None,,,,,,,2,22,female,2,2022_May_05_0909,Partial repeat,2021.2.3,59.89092634429227,
5,5,0,1,2,2,2,2,0,0,1,1,1,1,0,0,14,14,14,1,0,1,0,,,,,,,,,736.8908507991582,None,737.6633767988533,None,l,1,0.4427982997149229,737.6633767988533,None,None,None,,,,,,,2,22,female,2,2022_May_05_0909,Partial repeat,2021.2.3,59.89092634429227,
5,5,0,1,2,2,2,2,0,0,1,1,1,1,0,0,14,14,14,,,,,,,,,,,,,,,,,,,,,,,,,,,,,,2,22,female,2,2022_May_05_0909,Partial repeat,2021.2.3,59.89092634429227,
5,5,0,1,2,2,2,1,0,1,1,0,0,1,0,0,15,15,15,0,0,0,0,,,,,,,738.1270045004785,None,738.468897299841,None,739.2996249999851,None,l,1,0.4305482003837824,739.2996249999851,None,None,None,,,,,,,2,22,female,2,2022_May_05_0909,Partial repeat,2021.2.3,59.89092634429227,
5,5,0,1,2,2,2,1,0,1,1,0,0,1,0,0,15,15,15,1,0,1,0,,,,,,,,,739.7502509988844,None,740.6547663994133,None,s,1,0.3794637992978096,740.6547663994133,None,None,None,,,,,,,2,22,female,2,2022_May_05_0909,Partial repeat,2021.2.3,59.89092634429227,
5,5,0,1,2,2,2,1,0,1,1,0,0,1,0,0,15,15,15,,,,,,,,,,,,,,,,,,,,,,,,,,,,,,2,22,female,2,2022_May_05_0909,Partial repeat,2021.2.3,59.89092634429227,
5,5,0,1,2,2,1,1,0,1,1,1,0,1,0,0,16,16,16,0,0,0,0,,,,,,,741.0604507997632,None,741.3745681997389,None,742.3558719996363,None,l,1,0.4542518015950918,742.3558719996363,None,None,None,,,,,,,2,22,female,2,2022_May_05_0909,Partial repeat,2021.2.3,59.89092634429227,
5,5,0,1,2,2,1,1,0,1,1,1,0,1,0,0,16,16,16,1,0,1,0,,,,,,,,,742.8390312995762,None,743.8586410004646,None,s,1,0.3914903998374939,743.8586410004646,None,None,None,,,,,,,2,22,female,2,2022_May_05_0909,Partial repeat,2021.2.3,59.89092634429227,
5,5,0,1,2,2,1,1,0,1,1,1,0,1,0,0,16,16,16,,,,,,,,,,,,,,,,,,,,,,,,,,,,,,2,22,female,2,2022_May_05_0909,Partial repeat,2021.2.3,59.89092634429227,
5,5,0,1,3,3,1,1,1,0,1,1,0,1,0,0,17,17,17,0,0,0,0,,,,,,,744.2708494998515,None,744.6309019997716,None,745.3795421998948,None,s,1,0.454585500061512,745.3795421998948,None,None,None,,,,,,,2,22,female,2,2022_May_05_0909,Partial repeat,2021.2.3,59.89092634429227,
5,5,0,1,3,3,1,1,1,0,1,1,0,1,0,0,17,17,17,1,0,1,0,,,,,,,,,745.8522085994482,None,746.7315308004618,None,l,1,0.3346220999956131,746.7315308004618,None,None,None,,,,,,,2,22,female,2,2022_May_05_0909,Partial repeat,2021.2.3,59.89092634429227,
5,5,0,1,3,3,1,1,1,0,1,1,0,1,0,0,17,17,17,,,,,,,,,,,,,,,,,,,,,,,,,,,,,,2,22,female,2,2022_May_05_0909,Partial repeat,2021.2.3,59.89092634429227,
5,5,0,1,2,2,2,2,0,1,1,1,0,1,0,0,18,18,18,0,0,0,0,,,,,,,747.0813503991812,None,747.4196773990989,None,748.2674554996192,None,l,1,0.45474620163440704,748.2674554996192,None,None,None,,,,,,,2,22,female,2,2022_May_05_0909,Partial repeat,2021.2.3,59.89092634429227,
5,5,0,1,2,2,2,2,0,1,1,1,0,1,0,0,18,18,18,1,0,1,0,,,,,,,,,748.7315113991499,None,749.7043490000069,None,s,1,0.3378756009042263,749.7043490000069,None,None,None,,,,,,,2,22,female,2,2022_May_05_0909,Partial repeat,2021.2.3,59.89092634429227,
5,5,0,1,2,2,2,2,0,1,1,1,0,1,0,0,18,18,18,,,,,,,,,,,,,,,,,,,,,,,,,,,,,,2,22,female,2,2022_May_05_0909,Partial repeat,2021.2.3,59.89092634429227,
5,5,0,1,3,2,2,2,0,1,0,1,0,1,0,0,19,19,19,0,0,0,0,,,,,,,750.0648355986923,None,750.4256561994553,None,751.3080672994256,None,s,0,0.6140915006399155,751.3080672994256,None,751.9397733993828,None,,,,,,,2,22,female,2,2022_May_05_0909,Partial repeat,2021.2.3,59.89092634429227,
5,5,0,1,3,2,2,2,0,1,0,1,0,1,0,0,19,19,19,1,0,1,0,,,,,,,,,752.446139799431,None,753.2098329998553,None,s,1,0.8323486000299454,753.2098329998553,None,None,None,,,,,,,2,22,female,2,2022_May_05_0909,Partial repeat,2021.2.3,59.89092634429227,
5,5,0,1,3,2,2,2,0,1,0,1,0,1,0,0,19,19,19,,,,,,,,,,,,,,,,,,,,,,,,,,,,,,2,22,female,2,2022_May_05_0909,Partial repeat,2021.2.3,59.89092634429227,
5,5,0,1,3,3,2,1,1,1,1,0,1,1,0,0,20,20,20,0,0,0,0,,,,,,,754.0613396000117,None,755.3517755996436,None,756.3336756993085,None,s,1,0.5644949991255999,756.3336756993085,None,None,None,,,,,,,2,22,female,2,2022_May_05_0909,Partial repeat,2021.2.3,59.89092634429227,
5,5,0,1,3,3,2,1,1,1,1,0,1,1,0,0,20,20,20,1,0,1,0,,,,,,,,,756.9120949991047,None,757.6685451995581,None,s,1,0.45363250002264977,757.6685451995581,None,None,None,,,,,,,2,22,female,2,2022_May_05_0909,Partial repeat,2021.2.3,59.89092634429227,
5,5,0,1,3,3,2,1,1,1,1,0,1,1,0,0,20,20,20,,,,,,,,,,,,,,,,,,,,,,,,,,,,,,2,22,female,2,2022_May_05_0909,Partial repeat,2021.2.3,59.89092634429227,
5,5,0,1,3,3,2,1,1,0,1,0,0,1,0,0,21,21,21,0,0,0,0,,,,,,,758.1451690997928,None,758.8084695991129,None,759.5886321999133,None,s,1,0.36551810055971146,759.5886321999133,None,None,None,,,,,,,2,22,female,2,2022_May_05_0909,Partial repeat,2021.2.3,59.89092634429227,
5,5,0,1,3,3,2,1,1,0,1,0,0,1,0,0,21,21,21,1,0,1,0,,,,,,,,,759.9785852991045,None,760.9248524997383,None,l,1,0.39738649874925613,760.9248524997383,None,None,None,,,,,,,2,22,female,2,2022_May_05_0909,Partial repeat,2021.2.3,59.89092634429227,
5,5,0,1,3,3,2,1,1,0,1,0,0,1,0,0,21,21,21,,,,,,,,,,,,,,,,,,,,,,,,,,,,,,2,22,female,2,2022_May_05_0909,Partial repeat,2021.2.3,59.89092634429227,
5,5,0,1,3,2,1,2,0,0,0,0,1,1,0,0,22,22,22,0,0,0,0,,,,,,,761.3455076999962,None,761.8477647993714,None,762.6784525997937,None,l,1,0.5957188010215759,762.6784525997937,None,None,None,,,,,,,2,22,female,2,2022_May_05_0909,Partial repeat,2021.2.3,59.89092634429227,
5,5,0,1,3,2,1,2,0,0,0,0,1,1,0,0,22,22,22,1,0,1,0,,,,,,,,,763.2981007993221,None,764.1139000989497,None,l,1,0.4322746004909277,764.1139000989497,None,None,None,,,,,,,2,22,female,2,2022_May_05_0909,Partial repeat,2021.2.3,59.89092634429227,
5,5,0,1,3,2,1,2,0,0,0,0,1,1,0,0,22,22,22,,,,,,,,,,,,,,,,,,,,,,,,,,,,,,2,22,female,2,2022_May_05_0909,Partial repeat,2021.2.3,59.89092634429227,
5,5,0,1,3,2,2,1,0,0,0,0,1,1,0,0,23,23,23,0,0,0,0,,,,,,,764.5670263003558,None,764.9705074001104,None,765.8178677000105,None,l,1,0.47230450063943863,765.8178677000105,None,None,None,,,,,,,2,22,female,2,2022_May_05_0909,Partial repeat,2021.2.3,59.89092634429227,
5,5,0,1,3,2,2,1,0,0,0,0,1,1,0,0,23,23,23,1,0,1,0,,,,,,,,,766.3114071004093,None,767.0367702003568,None,l,1,0.42136730067431927,767.0367702003568,None,None,None,,,,,,,2,22,female,2,2022_May_05_0909,Partial repeat,2021.2.3,59.89092634429227,
5,5,0,1,3,2,2,1,0,0,0,0,1,1,0,0,23,23,23,,,,,,,,,,,,,,,,,,,,,,,,,,,,,,2,22,female,2,2022_May_05_0909,Partial repeat,2021.2.3,59.89092634429227,
5,5,0,1,2,2,2,1,0,0,1,0,1,1,0,0,24,24,24,0,0,0,0,,,,,,,767.473058000207,None,767.8928512986749,None,768.8750103004277,None,l,1,0.47920619882643223,768.8750103004277,None,None,None,,,,,,,2,22,female,2,2022_May_05_0909,Partial repeat,2021.2.3,59.89092634429227,
5,5,0,1,2,2,2,1,0,0,1,0,1,1,0,0,24,24,24,1,0,1,0,,,,,,,,,769.3759190998971,None,770.209607899189,None,l,1,0.38461329974234104,770.209607899189,None,None,None,,,,,,,2,22,female,2,2022_May_05_0909,Partial repeat,2021.2.3,59.89092634429227,
5,5,0,1,2,2,2,1,0,0,1,0,1,1,0,0,24,24,24,,,,,,,,,,,,,,,,,,,,,,,,,,,,,,2,22,female,2,2022_May_05_0909,Partial repeat,2021.2.3,59.89092634429227,
5,5,0,1,3,2,1,1,0,0,0,1,1,1,0,0,25,25,25,0,0,0,0,,,,,,,770.6250895988196,None,771.0155829992145,None,771.7631416004151,None,l,1,0.44705139845609665,771.7631416004151,None,None,None,,,,,,,2,22,female,2,2022_May_05_0909,Partial repeat,2021.2.3,59.89092634429227,
5,5,0,1,3,2,1,1,0,0,0,1,1,1,0,0,25,25,25,1,0,1,0,,,,,,,,,772.2366917002946,None,773.2329523004591,None,l,1,0.40122830122709274,773.2329523004591,None,None,None,,,,,,,2,22,female,2,2022_May_05_0909,Partial repeat,2021.2.3,59.89092634429227,
5,5,0,1,3,2,1,1,0,0,0,1,1,1,0,0,25,25,25,,,,,,,,,,,,,,,,,,,,,,,,,,,,,,2,22,female,2,2022_May_05_0909,Partial repeat,2021.2.3,59.89092634429227,
5,5,0,1,2,3,2,2,0,0,0,1,1,1,0,0,26,26,26,0,0,0,0,,,,,,,773.6483899001032,None,773.921244200319,None,774.7683399990201,None,l,1,0.49783410131931305,774.7683399990201,None,None,None,,,,,,,2,22,female,2,2022_May_05_0909,Partial repeat,2021.2.3,59.89092634429227,
5,5,0,1,2,3,2,2,0,0,0,1,1,1,0,0,26,26,26,1,0,1,0,,,,,,,,,775.2845923993737,None,776.1043886002153,None,l,1,0.3537309989333153,776.1043886002153,None,None,None,,,,,,,2,22,female,2,2022_May_05_0909,Partial repeat,2021.2.3,59.89092634429227,
5,5,0,1,2,3,2,2,0,0,0,1,1,1,0,0,26,26,26,,,,,,,,,,,,,,,,,,,,,,,,,,,,,,2,22,female,2,2022_May_05_0909,Partial repeat,2021.2.3,59.89092634429227,
5,5,0,1,2,2,2,1,1,1,1,0,1,1,0,0,27,27,27,0,0,0,0,,,,,,,776.4748879000545,None,776.6598731987178,None,777.4425712004304,None,s,1,0.5675411000847816,777.4425712004304,None,None,None,,,,,,,2,22,female,2,2022_May_05_0909,Partial repeat,2021.2.3,59.89092634429227,
5,5,0,1,2,2,2,1,1,1,1,0,1,1,0,0,27,27,27,1,0,1,0,,,,,,,,,778.029439099133,None,778.8933124002069,None,s,1,0.3728192001581192,778.8933124002069,None,None,None,,,,,,,2,22,female,2,2022_May_05_0909,Partial repeat,2021.2.3,59.89092634429227,
5,5,0,1,2,2,2,1,1,1,1,0,1,1,0,0,27,27,27,,,,,,,,,,,,,,,,,,,,,,,,,,,,,,2,22,female,2,2022_May_05_0909,Partial repeat,2021.2.3,59.89092634429227,
5,5,0,1,3,2,2,1,0,1,0,0,0,1,0,0,28,28,28,0,0,0,0,,,,,,,779.2894075997174,None,779.5822474993765,None,780.4305939003825,None,s,0,0.2675592005252838,780.4305939003825,None,780.7149717994034,None,,,,,,,2,22,female,2,2022_May_05_0909,Partial repeat,2021.2.3,59.89092634429227,
5,5,0,1,3,2,2,1,0,1,0,0,0,1,0,0,28,28,28,1,0,1,0,,,,,,,,,781.2187110986561,None,781.9820689000189,None,l,0,0.46009290032088757,781.9820689000189,None,782.4608562998474,None,,,,,,,2,22,female,2,2022_May_05_0909,Partial repeat,2021.2.3,59.89092634429227,
5,5,0,1,3,2,2,1,0,1,0,0,0,1,0,0,28,28,28,,,,,,,,,,,,,,,,,,,,,,,,,,,,,,2,22,female,2,2022_May_05_0909,Partial repeat,2021.2.3,59.89092634429227,
5,5,0,1,3,2,1,2,1,1,0,0,1,1,0,0,29,29,29,0,0,0,0,,,,,,,782.9722179993987,None,783.8405006993562,None,784.6376715004444,None,l,0,0.6284827999770641,784.6376715004444,None,785.2855842988938,None,,,,,,,2,22,female,2,2022_May_05_0909,Partial repeat,2021.2.3,59.89092634429227,
5,5,0,1,3,2,1,2,1,1,0,0,1,1,0,0,29,29,29,1,0,1,0,,,,,,,,,785.7943532001227,None,786.5243807993829,None,s,1,0.525823000818491,786.5243807993829,None,None,None,,,,,,,2,22,female,2,2022_May_05_0909,Partial repeat,2021.2.3,59.89092634429227,
5,5,0,1,3,2,1,2,1,1,0,0,1,1,0,0,29,29,29,,,,,,,,,,,,,,,,,,,,,,,,,,,,,,2,22,female,2,2022_May_05_0909,Partial repeat,2021.2.3,59.89092634429227,
5,5,0,1,2,3,1,1,0,0,0,1,1,1,0,0,30,30,30,0,0,0,0,,,,,,,787.063105398789,None,787.698035499081,None,788.6304352004081,None,l,1,0.48376169987022877,788.6304352004081,None,None,None,,,,,,,2,22,female,2,2022_May_05_0909,Partial repeat,2021.2.3,59.89092634429227,
5,5,0,1,2,3,1,1,0,0,0,1,1,1,0,0,30,30,30,1,0,1,0,,,,,,,,,789.1349443998188,None,790.1321417987347,None,l,1,0.5100319012999535,790.1321417987347,None,None,None,,,,,,,2,22,female,2,2022_May_05_0909,Partial repeat,2021.2.3,59.89092634429227,
5,5,0,1,2,3,1,1,0,0,0,1,1,1,0,0,30,30,30,,,,,,,,,,,,,,,,,,,,,,,,,,,,,,2,22,female,2,2022_May_05_0909,Partial repeat,2021.2.3,59.89092634429227,
5,5,0,1,2,3,1,1,1,1,0,1,1,1,0,0,31,31,31,0,0,0,0,,,,,,,790.6624889988452,None,791.0378539990634,None,791.9539806991816,None,s,1,0.616143099963665,791.9539806991816,None,None,None,,,,,,,2,22,female,2,2022_May_05_0909,Partial repeat,2021.2.3,59.89092634429227,
5,5,0,1,2,3,1,1,1,1,0,1,1,1,0,0,31,31,31,1,0,1,0,,,,,,,,,792.5897080991417,None,793.6047833990306,None,s,1,0.405460000038147,793.6047833990306,None,None,None,,,,,,,2,22,female,2,2022_May_05_0909,Partial repeat,2021.2.3,59.89092634429227,
5,5,0,1,2,3,1,1,1,1,0,1,1,1,0,0,31,31,31,,,,,,,,,,,,,,,,,,,,,,,,,,,,,,2,22,female,2,2022_May_05_0909,Partial repeat,2021.2.3,59.89092634429227,
5,5,0,1,3,3,1,2,0,1,1,0,0,1,0,0,32,32,32,0,0,0,0,,,,,,,794.022876098752,None,794.327618399635,None,795.2580437995493,None,l,1,0.4401075001806021,795.2580437995493,None,None,None,,,,,,,2,22,female,2,2022_May_05_0909,Partial repeat,2021.2.3,59.89092634429227,
5,5,0,1,3,3,1,2,0,1,1,0,0,1,0,0,32,32,32,1,0,1,0,,,,,,,,,795.7120399996638,None,796.7283107992262,None,s,1,0.4418908003717661,796.7283107992262,None,None,None,,,,,,,2,22,female,2,2022_May_05_0909,Partial repeat,2021.2.3,59.89092634429227,
5,5,0,1,3,3,1,2,0,1,1,0,0,1,0,0,32,32,32,,,,,,,,,,,,,,,,,,,,,,,,,,,,,,2,22,female,2,2022_May_05_0909,Partial repeat,2021.2.3,59.89092634429227,
5,5,0,1,3,2,2,2,1,1,0,1,1,1,0,0,33,33,33,0,0,0,0,,,,,,,797.1826942991465,None,797.5171530991793,None,798.2979506999254,None,l,0,0.5361889991909266,798.2979506999254,None,798.8600641991943,None,,,,,,,2,22,female,2,2022_May_05_0909,Partial repeat,2021.2.3,59.89092634429227,
5,5,0,1,3,2,2,2,1,1,0,1,1,1,0,0,33,33,33,1,0,1,0,,,,,,,,,799.3707301989198,None,800.3350555989891,None,s,1,0.6271174997091293,800.3350555989891,None,None,None,,,,,,,2,22,female,2,2022_May_05_0909,Partial repeat,2021.2.3,59.89092634429227,
5,5,0,1,3,2,2,2,1,1,0,1,1,1,0,0,33,33,33,,,,,,,,,,,,,,,,,,,,,,,,,,,,,,2,22,female,2,2022_May_05_0909,Partial repeat,2021.2.3,59.89092634429227,
5,5,0,1,3,3,1,1,0,1,1,1,0,1,0,0,34,34,34,0,0,0,0,,,,,,,800.9765226002783,None,801.8088424000889,None,802.5906785987318,None,l,1,0.555476600304246,802.5906785987318,None,None,None,,,,,,,2,22,female,2,2022_May_05_0909,Partial repeat,2021.2.3,59.89092634429227,
5,5,0,1,3,3,1,1,0,1,1,1,0,1,0,0,34,34,34,1,0,1,0,,,,,,,,,803.1575670987368,None,804.1421933993697,None,s,1,0.6121960990130901,804.1421933993697,None,None,None,,,,,,,2,22,female,2,2022_May_05_0909,Partial repeat,2021.2.3,59.89092634429227,
5,5,0,1,3,3,1,1,0,1,1,1,0,1,0,0,34,34,34,,,,,,,,,,,,,,,,,,,,,,,,,,,,,,2,22,female,2,2022_May_05_0909,Partial repeat,2021.2.3,59.89092634429227,
5,5,0,1,2,2,1,1,0,0,1,1,1,1,0,0,35,35,35,0,0,0,0,,,,,,,804.7701399996877,None,805.1820866987109,None,806.0808729995042,None,l,1,0.705342099070549,806.0808729995042,None,None,None,,,,,,,2,22,female,2,2022_May_05_0909,Partial repeat,2021.2.3,59.89092634429227,
5,5,0,1,2,2,1,1,0,0,1,1,1,1,0,0,35,35,35,1,0,1,0,,,,,,,,,806.7984672002494,None,807.8172800000757,None,l,1,0.609001999720931,807.8172800000757,None,None,None,,,,,,,2,22,female,2,2022_May_05_0909,Partial repeat,2021.2.3,59.89092634429227,
5,5,0,1,2,2,1,1,0,0,1,1,1,1,0,0,35,35,35,,,,,,,,,,,,,,,,,,,,,,,,,,,,,,2,22,female,2,2022_May_05_0909,Partial repeat,2021.2.3,59.89092634429227,
5,5,0,1,3,2,1,2,1,0,0,0,0,1,0,0,36,36,36,0,0,0,0,,,,,,,808.4458005987108,None,808.7728479988873,None,809.5211126003414,None,s,1,0.6412009987980127,809.5211126003414,None,None,None,,,,,,,2,22,female,2,2022_May_05_0909,Partial repeat,2021.2.3,59.89092634429227,
5,5,0,1,3,2,1,2,1,0,0,0,0,1,0,0,36,36,36,1,0,1,0,,,,,,,,,810.174228399992,None,810.9728394988924,None,l,1,0.9653318002820015,810.9728394988924,None,None,None,,,,,,,2,22,female,2,2022_May_05_0909,Partial repeat,2021.2.3,59.89092634429227,
5,5,0,1,3,2,1,2,1,0,0,0,0,1,0,0,36,36,36,,,,,,,,,,,,,,,,,,,,,,,,,,,,,,2,22,female,2,2022_May_05_0909,Partial repeat,2021.2.3,59.89092634429227,
5,5,0,1,3,3,1,1,1,1,1,1,1,1,0,0,37,37,37,0,0,0,0,,,,,,,811.9558199997991,None,812.2625083997846,None,813.2441865988076,None,s,1,0.5099642984569073,813.2441865988076,None,None,None,,,,,,,2,22,female,2,2022_May_05_0909,Partial repeat,2021.2.3,59.89092634429227,
5,5,0,1,3,3,1,1,1,1,1,1,1,1,0,0,37,37,37,1,0,1,0,,,,,,,,,813.7739578988403,None,814.5308539997786,None,s,1,0.5033158995211124,814.5308539997786,None,None,None,,,,,,,2,22,female,2,2022_May_05_0909,Partial repeat,2021.2.3,59.89092634429227,
5,5,0,1,3,3,1,1,1,1,1,1,1,1,0,0,37,37,37,,,,,,,,,,,,,,,,,,,,,,,,,,,,,,2,22,female,2,2022_May_05_0909,Partial repeat,2021.2.3,59.89092634429227,
5,5,0,1,2,3,1,1,0,1,0,1,0,1,0,0,38,38,38,0,0,0,0,,,,,,,815.05915289931,None,815.3518243990839,None,816.3176038004458,None,l,1,0.6845906991511583,816.3176038004458,None,None,None,,,,,,,2,22,female,2,2022_May_05_0909,Partial repeat,2021.2.3,59.89092634429227,
5,5,0,1,2,3,1,1,0,1,0,1,0,1,0,0,38,38,38,1,0,1,0,,,,,,,,,817.02000579983,None,817.802762798965,None,s,1,0.7274100985378027,817.802762798965,None,None,None,,,,,,,2,22,female,2,2022_May_05_0909,Partial repeat,2021.2.3,59.89092634429227,
5,5,0,1,2,3,1,1,0,1,0,1,0,1,0,0,38,38,38,,,,,,,,,,,,,,,,,,,,,,,,,,,,,,2,22,female,2,2022_May_05_0909,Partial repeat,2021.2.3,59.89092634429227,
5,5,0,1,3,3,2,2,0,0,1,1,1,1,0,0,39,39,39,0,0,0,0,,,,,,,818.5503669995815,None,818.8586454987526,None,819.7070671003312,None,l,1,0.7350759003311396,819.7070671003312,None,None,None,,,,,,,2,22,female,2,2022_May_05_0909,Partial repeat,2021.2.3,59.89092634429227,
5,5,0,1,3,3,2,2,0,0,1,1,1,1,0,0,39,39,39,1,0,1,0,,,,,,,,,820.4704093988985,None,821.2093166001141,None,l,1,0.9929237999022007,821.2093166001141,None,None,None,,,,,,,2,22,female,2,2022_May_05_0909,Partial repeat,2021.2.3,59.89092634429227,
5,5,0,1,3,3,2,2,0,0,1,1,1,1,0,0,39,39,39,,,,,,,,,,,,,,,,,,,,,,,,,,,,,,2,22,female,2,2022_May_05_0909,Partial repeat,2021.2.3,59.89092634429227,
5,5,0,1,3,2,2,2,0,0,0,1,1,1,0,0,40,40,40,0,0,0,0,,,,,,,822.2227020990103,None,822.5324943996966,None,823.3301752991974,None,l,1,0.5520360991358757,823.3301752991974,None,None,None,,,,,,,2,22,female,2,2022_May_05_0909,Partial repeat,2021.2.3,59.89092634429227,
5,5,0,1,3,2,2,2,0,0,0,1,1,1,0,0,40,40,40,1,0,1,0,,,,,,,,,823.9049171991646,None,824.7337129991502,None,l,1,0.42845020070672035,824.7337129991502,None,None,None,,,,,,,2,22,female,2,2022_May_05_0909,Partial repeat,2021.2.3,59.89092634429227,
5,5,0,1,3,2,2,2,0,0,0,1,1,1,0,0,40,40,40,,,,,,,,,,,,,,,,,,,,,,,,,,,,,,2,22,female,2,2022_May_05_0909,Partial repeat,2021.2.3,59.89092634429227,
5,5,0,1,2,3,1,2,1,1,0,0,1,1,0,0,41,41,41,0,0,0,0,,,,,,,825.1818415988237,None,825.5216709002852,None,826.4866266995668,None,s,1,0.4755568988621235,826.4866266995668,None,None,None,,,,,,,2,22,female,2,2022_May_05_0909,Partial repeat,2021.2.3,59.89092634429227,
5,5,0,1,2,3,1,2,1,1,0,0,1,1,0,0,41,41,41,1,0,1,0,,,,,,,,,826.9846083987504,None,827.8401398994029,None,s,1,0.49813830107450485,827.8401398994029,None,None,None,,,,,,,2,22,female,2,2022_May_05_0909,Partial repeat,2021.2.3,59.89092634429227,
5,5,0,1,2,3,1,2,1,1,0,0,1,1,0,0,41,41,41,,,,,,,,,,,,,,,,,,,,,,,,,,,,,,2,22,female,2,2022_May_05_0909,Partial repeat,2021.2.3,59.89092634429227,
5,5,0,1,2,3,2,1,1,1,0,0,1,1,0,0,42,42,42,0,0,0,0,,,,,,,828.3691156990826,None,828.6944724991918,None,829.6921937000006,None,s,1,0.4619751013815403,829.6921937000006,None,None,None,,,,,,,2,22,female,2,2022_May_05_0909,Partial repeat,2021.2.3,59.89092634429227,
5,5,0,1,2,3,2,1,1,1,0,0,1,1,0,0,42,42,42,1,0,1,0,,,,,,,,,830.1729089003056,None,830.9281791001558,None,s,1,0.3860093988478184,830.9281791001558,None,None,None,,,,,,,2,22,female,2,2022_May_05_0909,Partial repeat,2021.2.3,59.89092634429227,
5,5,0,1,2,3,2,1,1,1,0,0,1,1,0,0,42,42,42,,,,,,,,,,,,,,,,,,,,,,,,,,,,,,2,22,female,2,2022_May_05_0909,Partial repeat,2021.2.3,59.89092634429227,
5,5,0,1,2,2,1,2,0,1,1,0,0,1,0,0,43,43,43,0,0,0,0,,,,,,,831.3458591997623,None,831.6335988994688,None,832.4320563003421,None,l,1,0.610147699713707,832.4320563003421,None,None,None,,,,,,,2,22,female,2,2022_May_05_0909,Partial repeat,2021.2.3,59.89092634429227,
5,5,0,1,2,2,1,2,0,1,1,0,0,1,0,0,43,43,43,1,0,1,0,,,,,,,,,833.061087699607,None,834.0847862996161,None,s,1,0.7413580007851124,834.0847862996161,None,None,None,,,,,,,2,22,female,2,2022_May_05_0909,Partial repeat,2021.2.3,59.89092634429227,
5,5,0,1,2,2,1,2,0,1,1,0,0,1,0,0,43,43,43,,,,,,,,,,,,,,,,,,,,,,,,,,,,,,2,22,female,2,2022_May_05_0909,Partial repeat,2021.2.3,59.89092634429227,
5,5,0,1,3,2,2,1,1,0,0,0,0,1,0,0,44,44,44,0,0,0,0,,,,,,,834.8551624994725,None,835.1403822004795,None,835.8717403002083,None,s,1,0.5384410005062819,835.8717403002083,None,None,None,,,,,,,2,22,female,2,2022_May_05_0909,Partial repeat,2021.2.3,59.89092634429227,
5,5,0,1,3,2,2,1,1,0,0,0,0,1,0,0,44,44,44,1,0,1,0,,,,,,,,,836.4235001001507,None,837.2408357001841,None,l,1,0.8813578002154827,837.2408357001841,None,None,None,,,,,,,2,22,female,2,2022_May_05_0909,Partial repeat,2021.2.3,59.89092634429227,
5,5,0,1,3,2,2,1,1,0,0,0,0,1,0,0,44,44,44,,,,,,,,,,,,,,,,,,,,,,,,,,,,,,2,22,female,2,2022_May_05_0909,Partial repeat,2021.2.3,59.89092634429227,
5,5,0,1,2,3,2,1,0,0,0,0,1,1,0,0,45,45,45,0,0,0,0,,,,,,,838.1413286998868,None,838.4635319001973,None,839.3607553988695,None,l,1,2.145430399104953,839.3607553988695,None,None,None,,,,,,,2,22,female,2,2022_May_05_0909,Partial repeat,2021.2.3,59.89092634429227,
5,5,0,1,2,3,2,1,0,0,0,0,1,1,0,0,45,45,45,1,0,1,0,,,,,,,,,841.5257871001959,None,842.3673494998366,None,l,1,0.5228291004896164,842.3673494998366,None,None,None,,,,,,,2,22,female,2,2022_May_05_0909,Partial repeat,2021.2.3,59.89092634429227,
5,5,0,1,2,3,2,1,0,0,0,0,1,1,0,0,45,45,45,,,,,,,,,,,,,,,,,,,,,,,,,,,,,,2,22,female,2,2022_May_05_0909,Partial repeat,2021.2.3,59.89092634429227,
5,5,0,1,2,2,1,1,1,0,1,1,0,1,0,0,46,46,46,0,0,0,0,,,,,,,842.9183801990002,None,843.18939569965,None,844.1212310995907,None,s,1,0.4170062988996506,844.1212310995907,None,None,None,,,,,,,2,22,female,2,2022_May_05_0909,Partial repeat,2021.2.3,59.89092634429227,
5,5,0,1,2,2,1,1,1,0,1,1,0,1,0,0,46,46,46,1,0,1,0,,,,,,,,,844.5513151995838,None,845.323114098981,None,l,1,0.6710563004016876,845.323114098981,None,None,None,,,,,,,2,22,female,2,2022_May_05_0909,Partial repeat,2021.2.3,59.89092634429227,
5,5,0,1,2,2,1,1,1,0,1,1,0,1,0,0,46,46,46,,,,,,,,,,,,,,,,,,,,,,,,,,,,,,2,22,female,2,2022_May_05_0909,Partial repeat,2021.2.3,59.89092634429227,
5,5,0,1,2,3,1,1,1,0,0,1,0,1,0,0,47,47,47,0,0,0,0,,,,,,,846.0146641992033,None,846.3121603988111,None,847.311040699482,None,s,1,0.6350847985595465,847.311040699482,None,None,None,,,,,,,2,22,female,2,2022_May_05_0909,Partial repeat,2021.2.3,59.89092634429227,
5,5,0,1,2,3,1,1,1,0,0,1,0,1,0,0,47,47,47,1,0,1,0,,,,,,,,,847.9600363988429,None,848.9633927997202,None,l,1,0.6867875996977091,848.9633927997202,None,None,None,,,,,,,2,22,female,2,2022_May_05_0909,Partial repeat,2021.2.3,59.89092634429227,
5,5,0,1,2,3,1,1,1,0,0,1,0,1,0,0,47,47,47,,,,,,,,,,,,,,,,,,,,,,,,,,,,,,2,22,female,2,2022_May_05_0909,Partial repeat,2021.2.3,59.89092634429227,
5,5,0,1,3,3,2,2,0,1,1,1,0,1,0,0,48,48,48,0,0,0,0,,,,,,,849.670507999137,None,849.935861799866,None,850.7844210993499,None,l,1,0.7058541011065245,850.7844210993499,None,None,None,,,,,,,2,22,female,2,2022_May_05_0909,Partial repeat,2021.2.3,59.89092634429227,
5,5,0,1,3,3,2,2,0,1,1,1,0,1,0,0,48,48,48,1,0,1,0,,,,,,,,,851.5038773994893,None,852.4867844991386,None,s,1,0.4834122993052006,852.4867844991386,None,None,None,,,,,,,2,22,female,2,2022_May_05_0909,Partial repeat,2021.2.3,59.89092634429227,
5,5,0,1,3,3,2,2,0,1,1,1,0,1,0,0,48,48,48,,,,,,,,,,,,,,,,,,,,,,,,,,,,,,2,22,female,2,2022_May_05_0909,Partial repeat,2021.2.3,59.89092634429227,
5,5,0,1,2,2,2,2,1,1,1,1,1,1,0,0,49,49,49,0,0,0,0,,,,,,,852.9930063001812,None,853.2926479000598,None,854.1754008997232,None,s,1,0.4748456012457609,854.1754008997232,None,None,None,,,,,,,2,22,female,2,2022_May_05_0909,Partial repeat,2021.2.3,59.89092634429227,
5,5,0,1,2,2,2,2,1,1,1,1,1,1,0,0,49,49,49,1,0,1,0,,,,,,,,,854.6595006994903,None,855.5280820000917,None,s,1,0.5940888002514839,855.5280820000917,None,None,None,,,,,,,2,22,female,2,2022_May_05_0909,Partial repeat,2021.2.3,59.89092634429227,
5,5,0,1,2,2,2,2,1,1,1,1,1,1,0,0,49,49,49,,,,,,,,,,,,,,,,,,,,,,,,,,,,,,2,22,female,2,2022_May_05_0909,Partial repeat,2021.2.3,59.89092634429227,
5,5,0,1,2,3,1,2,0,1,0,0,0,1,0,0,50,50,50,0,0,0,0,,,,,,,856.145666198805,None,856.4151192996651,None,857.1478754989803,None,l,1,0.6062503010034561,857.1478754989803,None,None,None,,,,,,,2,22,female,2,2022_May_05_0909,Partial repeat,2021.2.3,59.89092634429227,
5,5,0,1,2,3,1,2,0,1,0,0,0,1,0,0,50,50,50,1,0,1,0,,,,,,,,,857.7805898990482,None,858.5320721995085,None,s,1,0.5420816000550985,858.5320721995085,None,None,None,,,,,,,2,22,female,2,2022_May_05_0909,Partial repeat,2021.2.3,59.89092634429227,
5,5,0,1,2,3,1,2,0,1,0,0,0,1,0,0,50,50,50,,,,,,,,,,,,,,,,,,,,,,,,,,,,,,2,22,female,2,2022_May_05_0909,Partial repeat,2021.2.3,59.89092634429227,
5,5,0,1,2,3,1,2,0,0,0,0,1,1,0,0,51,51,51,0,0,0,0,,,,,,,859.1049375999719,None,859.3875255994499,None,860.2531847991049,None,l,1,0.42896800115704536,860.2531847991049,None,None,None,,,,,,,2,22,female,2,2022_May_05_0909,Partial repeat,2021.2.3,59.89092634429227,
5,5,0,1,2,3,1,2,0,0,0,0,1,1,0,0,51,51,51,1,0,1,0,,,,,,,,,860.7039649002254,None,861.5053828004748,None,l,1,0.4887709002941847,861.5053828004748,None,None,None,,,,,,,2,22,female,2,2022_May_05_0909,Partial repeat,2021.2.3,59.89092634429227,
5,5,0,1,2,3,1,2,0,0,0,0,1,1,0,0,51,51,51,,,,,,,,,,,,,,,,,,,,,,,,,,,,,,2,22,female,2,2022_May_05_0909,Partial repeat,2021.2.3,59.89092634429227,
5,5,0,1,3,3,1,1,0,0,1,1,1,1,0,0,52,52,52,0,0,0,0,,,,,,,862.0119403004646,None,862.2599286995828,None,863.1932937987149,None,l,1,0.45710520073771477,863.1932937987149,None,None,None,,,,,,,2,22,female,2,2022_May_05_0909,Partial repeat,2021.2.3,59.89092634429227,
5,5,0,1,3,3,1,1,0,0,1,1,1,1,0,0,52,52,52,1,0,1,0,,,,,,,,,863.6608528997749,None,864.5601049996912,None,l,1,0.5781043004244566,864.5601049996912,None,None,None,,,,,,,2,22,female,2,2022_May_05_0909,Partial repeat,2021.2.3,59.89092634429227,
5,5,0,1,3,3,1,1,0,0,1,1,1,1,0,0,52,52,52,,,,,,,,,,,,,,,,,,,,,,,,,,,,,,2,22,female,2,2022_May_05_0909,Partial repeat,2021.2.3,59.89092634429227,
5,5,0,1,3,2,1,2,0,1,0,0,0,1,0,0,53,53,53,0,0,0,0,,,,,,,865.1547282002866,None,865.3995401989669,None,866.3318266998976,None,l,1,0.46241629868745804,866.3318266998976,None,None,None,,,,,,,2,22,female,2,2022_May_05_0909,Partial repeat,2021.2.3,59.89092634429227,
5,5,0,1,3,2,1,2,0,1,0,0,0,1,0,0,53,53,53,1,0,1,0,,,,,,,,,866.8114487994462,None,867.7845254000276,None,s,1,0.6496454998850822,867.7845254000276,None,None,None,,,,,,,2,22,female,2,2022_May_05_0909,Partial repeat,2021.2.3,59.89092634429227,
5,5,0,1,3,2,1,2,0,1,0,0,0,1,0,0,53,53,53,,,,,,,,,,,,,,,,,,,,,,,,,,,,,,2,22,female,2,2022_May_05_0909,Partial repeat,2021.2.3,59.89092634429227,
5,5,0,1,2,3,2,1,0,1,0,0,0,1,0,0,54,54,54,0,0,0,0,,,,,,,868.4560733996332,None,868.7393666990101,None,869.5539314989,None,l,1,0.4643489997833967,869.5539314989,None,None,None,,,,,,,2,22,female,2,2022_May_05_0909,Partial repeat,2021.2.3,59.89092634429227,
5,5,0,1,2,3,2,1,0,1,0,0,0,1,0,0,54,54,54,1,0,1,0,,,,,,,,,870.032650899142,None,871.0395342987031,None,s,1,0.3787158001214266,871.0395342987031,None,None,None,,,,,,,2,22,female,2,2022_May_05_0909,Partial repeat,2021.2.3,59.89092634429227,
5,5,0,1,2,3,2,1,0,1,0,0,0,1,0,0,54,54,54,,,,,,,,,,,,,,,,,,,,,,,,,,,,,,2,22,female,2,2022_May_05_0909,Partial repeat,2021.2.3,59.89092634429227,
5,5,0,1,3,3,2,2,1,1,1,1,1,1,0,0,55,55,55,0,0,0,0,,,,,,,871.435942498967,None,871.7452175989747,None,872.7436279002577,None,s,1,0.4986420013010502,872.7436279002577,None,None,None,,,,,,,2,22,female,2,2022_May_05_0909,Partial repeat,2021.2.3,59.89092634429227,
5,5,0,1,3,3,2,2,1,1,1,1,1,1,0,0,55,55,55,1,0,1,0,,,,,,,,,873.2694729994982,None,874.1465664003044,None,l,0,0.45564169995486736,874.1465664003044,None,874.6291020996869,None,,,,,,,2,22,female,2,2022_May_05_0909,Partial repeat,2021.2.3,59.89092634429227,
5,5,0,1,3,3,2,2,1,1,1,1,1,1,0,0,55,55,55,,,,,,,,,,,,,,,,,,,,,,,,,,,,,,2,22,female,2,2022_May_05_0909,Partial repeat,2021.2.3,59.89092634429227,
5,5,0,1,3,2,1,1,0,1,0,1,0,1,0,0,56,56,56,0,0,0,0,,,,,,,875.1351367998868,None,876.203883100301,None,877.0351353995502,None,l,1,0.5511183999478817,877.0351353995502,None,None,None,,,,,,,2,22,female,2,2022_May_05_0909,Partial repeat,2021.2.3,59.89092634429227,
5,5,0,1,3,2,1,1,0,1,0,1,0,1,0,0,56,56,56,1,0,1,0,,,,,,,,,877.5984377004206,None,878.4212688989937,None,s,1,0.6290116012096405,878.4212688989937,None,None,None,,,,,,,2,22,female,2,2022_May_05_0909,Partial repeat,2021.2.3,59.89092634429227,
5,5,0,1,3,2,1,1,0,1,0,1,0,1,0,0,56,56,56,,,,,,,,,,,,,,,,,,,,,,,,,,,,,,2,22,female,2,2022_May_05_0909,Partial repeat,2021.2.3,59.89092634429227,
5,5,0,1,3,2,2,1,1,1,0,0,1,1,0,0,57,57,57,0,0,0,0,,,,,,,879.0771699994802,None,879.3598260991275,None,880.1906585991383,None,s,1,0.4276678990572691,880.1906585991383,None,None,None,,,,,,,2,22,female,2,2022_May_05_0909,Partial repeat,2021.2.3,59.89092634429227,
5,5,0,1,3,2,2,1,1,1,0,0,1,1,0,0,57,57,57,1,0,1,0,,,,,,,,,880.6297292001545,None,881.6101177986711,None,s,1,0.5200546998530626,881.6101177986711,None,None,None,,,,,,,2,22,female,2,2022_May_05_0909,Partial repeat,2021.2.3,59.89092634429227,
5,5,0,1,3,2,2,1,1,1,0,0,1,1,0,0,57,57,57,,,,,,,,,,,,,,,,,,,,,,,,,,,,,,2,22,female,2,2022_May_05_0909,Partial repeat,2021.2.3,59.89092634429227,
5,5,0,1,2,3,2,1,1,0,0,0,0,1,0,0,58,58,58,0,0,0,0,,,,,,,882.1404787991196,None,882.4660574998707,None,883.3635440990329,None,s,1,0.4067023992538452,883.3635440990329,None,None,None,,,,,,,2,22,female,2,2022_May_05_0909,Partial repeat,2021.2.3,59.89092634429227,
5,5,0,1,2,3,2,1,1,0,0,0,0,1,0,0,58,58,58,1,0,1,0,,,,,,,,,883.7990885004401,None,884.6830423995852,None,l,1,0.43119269981980324,884.6830423995852,None,None,None,,,,,,,2,22,female,2,2022_May_05_0909,Partial repeat,2021.2.3,59.89092634429227,
5,5,0,1,2,3,2,1,1,0,0,0,0,1,0,0,58,58,58,,,,,,,,,,,,,,,,,,,,,,,,,,,,,,2,22,female,2,2022_May_05_0909,Partial repeat,2021.2.3,59.89092634429227,
5,5,0,1,3,3,1,2,1,1,1,0,1,1,0,0,59,59,59,0,0,0,0,,,,,,,885.1435460988432,None,885.3550361990929,None,886.2021820992231,None,l,0,0.5200241003185511,886.2021820992231,None,886.7436010986567,None,,,,,,,2,22,female,2,2022_May_05_0909,Partial repeat,2021.2.3,59.89092634429227,
5,5,0,1,3,3,1,2,1,1,1,0,1,1,0,0,59,59,59,1,0,1,0,,,,,,,,,887.2585455998778,None,888.2236644998193,None,s,1,0.9385644011199474,888.2236644998193,None,None,None,,,,,,,2,22,female,2,2022_May_05_0909,Partial repeat,2021.2.3,59.89092634429227,
5,5,0,1,3,3,1,2,1,1,1,0,1,1,0,0,59,59,59,,,,,,,,,,,,,,,,,,,,,,,,,,,,,,2,22,female,2,2022_May_05_0909,Partial repeat,2021.2.3,59.89092634429227,
5,5,0,1,3,3,1,2,0,0,1,0,1,1,0,0,60,60,60,0,0,0,0,,,,,,,889.1844330001622,None,890.364706300199,None,891.0954506993294,None,l,1,0.43478080071508884,891.0954506993294,None,None,None,,,,,,,2,22,female,2,2022_May_05_0909,Partial repeat,2021.2.3,59.89092634429227,
5,5,0,1,3,3,1,2,0,0,1,0,1,1,0,0,60,60,60,1,0,1,0,,,,,,,,,891.5524377990514,None,892.3812869992107,None,l,1,0.5170283000916243,892.3812869992107,None,None,None,,,,,,,2,22,female,2,2022_May_05_0909,Partial repeat,2021.2.3,59.89092634429227,
5,5,0,1,3,3,1,2,0,0,1,0,1,1,0,0,60,60,60,,,,,,,,,,,,,,,,,,,,,,,,,,,,,,2,22,female,2,2022_May_05_0909,Partial repeat,2021.2.3,59.89092634429227,
5,5,0,1,2,3,2,2,1,0,0,1,0,1,0,0,61,61,61,0,0,0,0,,,,,,,892.9115017987788,None,893.3372249994427,None,894.084664799273,None,s,1,0.42965579964220524,894.084664799273,None,None,None,,,,,,,2,22,female,2,2022_May_05_0909,Partial repeat,2021.2.3,59.89092634429227,
5,5,0,1,2,3,2,2,1,0,0,1,0,1,0,0,61,61,61,1,0,1,0,,,,,,,,,894.5433889999986,None,895.3703116998076,None,l,1,0.4080304987728596,895.3703116998076,None,None,None,,,,,,,2,22,female,2,2022_May_05_0909,Partial repeat,2021.2.3,59.89092634429227,
5,5,0,1,2,3,2,2,1,0,0,1,0,1,0,0,61,61,61,,,,,,,,,,,,,,,,,,,,,,,,,,,,,,2,22,female,2,2022_May_05_0909,Partial repeat,2021.2.3,59.89092634429227,
5,5,0,1,3,2,2,2,1,0,0,1,0,1,0,0,62,62,62,0,0,0,0,,,,,,,895.790926899761,None,896.0257664993405,None,897.0236060991883,None,l,0,0.5705622006207705,897.0236060991883,None,897.6058853995055,None,,,,,,,2,22,female,2,2022_May_05_0909,Partial repeat,2021.2.3,59.89092634429227,
5,5,0,1,3,2,2,2,1,0,0,1,0,1,0,0,62,62,62,1,0,1,0,,,,,,,,,898.1131541989744,None,898.977232599631,None,s,0,1.0650944989174604,898.977232599631,None,900.0532648991793,None,,,,,,,2,22,female,2,2022_May_05_0909,Partial repeat,2021.2.3,59.89092634429227,
5,5,0,1,3,2,2,2,1,0,0,1,0,1,0,0,62,62,62,,,,,,,,,,,,,,,,,,,,,,,,,,,,,,2,22,female,2,2022_May_05_0909,Partial repeat,2021.2.3,59.89092634429227,
5,5,0,1,2,3,2,2,0,1,0,1,0,1,0,0,63,63,63,0,0,0,0,,,,,,,900.5679531991482,None,902.7221568003297,None,903.6196283996105,None,l,1,0.6146012004464865,903.6196283996105,None,None,None,,,,,,,2,22,female,2,2022_May_05_0909,Partial repeat,2021.2.3,59.89092634429227,
5,5,0,1,2,3,2,2,0,1,0,1,0,1,0,0,63,63,63,1,0,1,0,,,,,,,,,904.2466166000813,None,905.1056271996349,None,s,1,0.49660889990627766,905.1056271996349,None,None,None,,,,,,,2,22,female,2,2022_May_05_0909,Partial repeat,2021.2.3,59.89092634429227,
5,5,0,1,2,3,2,2,0,1,0,1,0,1,0,0,63,63,63,,,,,,,,,,,,,,,,,,,,,,,,,,,,,,2,22,female,2,2022_May_05_0909,Partial repeat,2021.2.3,59.89092634429227,
6,7,0,1,3,3,2,2,1,0,1,1,0,0,0,0,64,64,64,0,0,0,0,,,,,,,905.8568891994655,None,910.4705694001168,None,911.4684528987855,None,s,1,0.973794998601079,911.4684528987855,None,None,None,,,,,,,2,22,female,2,2022_May_05_0909,Partial repeat,2021.2.3,59.89092634429227,
6,7,0,1,3,3,2,2,1,0,1,1,0,0,0,0,64,64,64,1,0,1,0,,,,,,,,,912.4658236987889,None,913.388927899301,None,l,1,1.7413334008306265,913.388927899301,None,None,None,,,,,,,2,22,female,2,2022_May_05_0909,Partial repeat,2021.2.3,59.89092634429227,
6,7,0,1,3,3,2,2,1,0,1,1,0,0,0,0,64,64,64,,,,,,,,,,,,,,,,,,,,,,,,,,,,,,2,22,female,2,2022_May_05_0909,Partial repeat,2021.2.3,59.89092634429227,
2,8,0,1,3,2,1,1,1,1,0,1,1,0,0,0,65,65,65,0,0,0,0,,,,,,,915.1460122000426,None,916.5490162987262,None,917.2795772999525,None,s,1,2.2347021996974945,917.2795772999525,None,None,None,,,,,,,2,22,female,2,2022_May_05_0909,Partial repeat,2021.2.3,59.89092634429227,
2,8,0,1,3,2,1,1,1,1,0,1,1,0,0,0,65,65,65,1,0,1,0,,,,,,,,,919.5265014003962,None,920.5359946992248,None,s,1,0.8102297000586987,920.5359946992248,None,None,None,,,,,,,2,22,female,2,2022_May_05_0909,Partial repeat,2021.2.3,59.89092634429227,
2,8,0,1,3,2,1,1,1,1,0,1,1,0,0,0,65,65,65,,,,,,,,,,,,,,,,,,,,,,,,,,,,,,2,22,female,2,2022_May_05_0909,Partial repeat,2021.2.3,59.89092634429227,
7,6,0,1,2,3,2,1,0,1,0,0,0,0,0,0,66,66,66,0,0,0,0,,,,,,,921.360671300441,None,921.8092392999679,None,922.756822399795,None,l,1,1.0374366007745266,922.756822399795,None,None,None,,,,,,,2,22,female,2,2022_May_05_0909,Partial repeat,2021.2.3,59.89092634429227,
7,6,0,1,2,3,2,1,0,1,0,0,0,0,0,0,66,66,66,1,0,1,0,,,,,,,,,923.8103051986545,None,924.8108048997819,None,s,1,0.7114377003163099,924.8108048997819,None,None,None,,,,,,,2,22,female,2,2022_May_05_0909,Partial repeat,2021.2.3,59.89092634429227,
7,6,0,1,2,3,2,1,0,1,0,0,0,0,0,0,66,66,66,,,,,,,,,,,,,,,,,,,,,,,,,,,,,,2,22,female,2,2022_May_05_0909,Partial repeat,2021.2.3,59.89092634429227,
6,1,0,1,2,3,2,2,0,0,0,1,1,0,0,0,67,67,67,0,0,0,0,,,,,,,925.5527943000197,None,926.0174477994442,None,926.9483295995742,None,s,0,0.8460502997040749,926.9483295995742,None,927.8066163994372,None,,,,,,,2,22,female,2,2022_May_05_0909,Partial repeat,2021.2.3,59.89092634429227,
6,1,0,1,2,3,2,2,0,0,0,1,1,0,0,0,67,67,67,1,0,1,0,,,,,,,,,928.321954799816,None,929.1857596002519,None,l,1,0.9124647006392479,929.1857596002519,None,None,None,,,,,,,2,22,female,2,2022_May_05_0909,Partial repeat,2021.2.3,59.89092634429227,
6,1,0,1,2,3,2,2,0,0,0,1,1,0,0,0,67,67,67,,,,,,,,,,,,,,,,,,,,,,,,,,,,,,2,22,female,2,2022_May_05_0909,Partial repeat,2021.2.3,59.89092634429227,
1,4,0,1,2,3,1,1,0,0,0,1,1,0,0,0,68,68,68,0,0,0,0,,,,,,,930.1181863993406,None,930.9437063988298,None,931.9414854999632,None,l,1,0.9168052989989519,931.9414854999632,None,None,None,,,,,,,2,22,female,2,2022_May_05_0909,Partial repeat,2021.2.3,59.89092634429227,
1,4,0,1,2,3,1,1,0,0,0,1,1,0,0,0,68,68,68,1,0,1,0,,,,,,,,,932.8662866000086,None,933.7113814987242,None,l,1,0.8028926011174917,933.7113814987242,None,None,None,,,,,,,2,22,female,2,2022_May_05_0909,Partial repeat,2021.2.3,59.89092634429227,
1,4,0,1,2,3,1,1,0,0,0,1,1,0,0,0,68,68,68,,,,,,,,,,,,,,,,,,,,,,,,,,,,,,2,22,female,2,2022_May_05_0909,Partial repeat,2021.2.3,59.89092634429227,
5,1,0,1,2,3,2,1,1,1,0,0,1,0,0,0,69,69,69,0,0,0,0,,,,,,,934.5365771986544,None,935.0850779991597,None,935.8660939000547,None,s,1,1.0001539997756481,935.8660939000547,None,None,None,,,,,,,2,22,female,2,2022_May_05_0909,Partial repeat,2021.2.3,59.89092634429227,
5,1,0,1,2,3,2,1,1,1,0,0,1,0,0,0,69,69,69,1,0,1,0,,,,,,,,,936.8786235004663,None,937.7038796003908,None,s,1,0.7063023988157511,937.7038796003908,None,None,None,,,,,,,2,22,female,2,2022_May_05_0909,Partial repeat,2021.2.3,59.89092634429227,
5,1,0,1,2,3,2,1,1,1,0,0,1,0,0,0,69,69,69,,,,,,,,,,,,,,,,,,,,,,,,,,,,,,2,22,female,2,2022_May_05_0909,Partial repeat,2021.2.3,59.89092634429227,
8,5,0,1,2,3,2,2,1,1,0,1,1,0,0,0,70,70,70,0,0,0,0,,,,,,,938.4240995999426,None,938.8090272992849,None,939.6395654994994,None,s,1,0.6666908003389835,939.6395654994994,None,None,None,,,,,,,2,22,female,2,2022_May_05_0909,Partial repeat,2021.2.3,59.89092634429227,
8,5,0,1,2,3,2,2,1,1,0,1,1,0,0,0,70,70,70,1,0,1,0,,,,,,,,,940.3331508990377,None,941.192542700097,None,s,1,0.6736804991960526,941.192542700097,None,None,None,,,,,,,2,22,female,2,2022_May_05_0909,Partial repeat,2021.2.3,59.89092634429227,
8,5,0,1,2,3,2,2,1,1,0,1,1,0,0,0,70,70,70,,,,,,,,,,,,,,,,,,,,,,,,,,,,,,2,22,female,2,2022_May_05_0909,Partial repeat,2021.2.3,59.89092634429227,
2,2,0,1,2,3,2,1,0,0,0,0,1,0,0,0,71,71,71,0,0,0,0,,,,,,,941.8875091988593,None,942.2323406990618,None,943.1303281988949,None,l,1,0.887916000559926,943.1303281988949,None,None,None,,,,,,,2,22,female,2,2022_May_05_0909,Partial repeat,2021.2.3,59.89092634429227,
2,2,0,1,2,3,2,1,0,0,0,0,1,0,0,0,71,71,71,1,0,1,0,,,,,,,,,944.033122299239,None,944.7835577987134,None,l,1,0.5146652013063431,944.7835577987134,None,None,None,,,,,,,2,22,female,2,2022_May_05_0909,Partial repeat,2021.2.3,59.89092634429227,
2,2,0,1,2,3,2,1,0,0,0,0,1,0,0,0,71,71,71,,,,,,,,,,,,,,,,,,,,,,,,,,,,,,2,22,female,2,2022_May_05_0909,Partial repeat,2021.2.3,59.89092634429227,
5,2,0,1,2,2,2,1,1,1,1,0,1,0,0,0,72,72,72,0,0,0,0,,,,,,,945.30954589881,None,945.65567849949,None,946.603073598817,None,s,1,0.5111228004097939,946.603073598817,None,None,None,,,,,,,2,22,female,2,2022_May_05_0909,Partial repeat,2021.2.3,59.89092634429227,
5,2,0,1,2,2,2,1,1,1,1,0,1,0,0,0,72,72,72,1,0,1,0,,,,,,,,,947.1417373996228,None,948.0892133992165,None,s,1,0.7369714006781578,948.0892133992165,None,None,None,,,,,,,2,22,female,2,2022_May_05_0909,Partial repeat,2021.2.3,59.89092634429227,
5,2,0,1,2,2,2,1,1,1,1,0,1,0,0,0,72,72,72,,,,,,,,,,,,,,,,,,,,,,,,,,,,,,2,22,female,2,2022_May_05_0909,Partial repeat,2021.2.3,59.89092634429227,
3,6,0,1,3,3,2,1,1,1,1,0,1,0,0,0,73,73,73,0,0,0,0,,,,,,,948.844296598807,None,949.2125158999115,None,950.0597875993699,None,s,1,0.5504350997507572,950.0597875993699,None,None,None,,,,,,,2,22,female,2,2022_May_05_0909,Partial repeat,2021.2.3,59.89092634429227,
3,6,0,1,3,3,2,1,1,1,1,0,1,0,0,0,73,73,73,1,0,1,0,,,,,,,,,950.6214867997915,None,951.5962594989687,None,s,1,0.6299649998545647,951.5962594989687,None,None,None,,,,,,,2,22,female,2,2022_May_05_0909,Partial repeat,2021.2.3,59.89092634429227,
3,6,0,1,3,3,2,1,1,1,1,0,1,0,0,0,73,73,73,,,,,,,,,,,,,,,,,,,,,,,,,,,,,,2,22,female,2,2022_May_05_0909,Partial repeat,2021.2.3,59.89092634429227,
6,2,0,1,2,2,2,1,0,1,1,0,0,0,0,0,74,74,74,0,0,0,0,,,,,,,952.2475332003087,None,952.5691020991653,None,953.5500670988113,None,l,1,0.8041287995874882,953.5500670988113,None,None,None,,,,,,,2,22,female,2,2022_May_05_0909,Partial repeat,2021.2.3,59.89092634429227,
6,2,0,1,2,2,2,1,0,1,1,0,0,0,0,0,74,74,74,1,0,1,0,,,,,,,,,954.373210599646,None,955.3537804987282,None,s,1,0.7924279011785984,955.3537804987282,None,None,None,,,,,,,2,22,female,2,2022_May_05_0909,Partial repeat,2021.2.3,59.89092634429227,
6,2,0,1,2,2,2,1,0,1,1,0,0,0,0,0,74,74,74,,,,,,,,,,,,,,,,,,,,,,,,,,,,,,2,22,female,2,2022_May_05_0909,Partial repeat,2021.2.3,59.89092634429227,
7,3,0,1,3,2,2,2,1,0,0,1,0,0,0,0,75,75,75,0,0,0,0,,,,,,,956.1772553995252,None,956.5101158991456,None,957.5078555997461,None,s,1,1.1423625014722347,957.5078555997461,None,None,None,,,,,,,2,22,female,2,2022_May_05_0909,Partial repeat,2021.2.3,59.89092634429227,
7,3,0,1,3,2,2,2,1,0,0,1,0,0,0,0,75,75,75,1,0,1,0,,,,,,,,,958.6709329988807,None,959.5115357004106,None,l,1,0.8826302997767925,959.5115357004106,None,None,None,,,,,,,2,22,female,2,2022_May_05_0909,Partial repeat,2021.2.3,59.89092634429227,
7,3,0,1,3,2,2,2,1,0,0,1,0,0,0,0,75,75,75,,,,,,,,,,,,,,,,,,,,,,,,,,,,,,2,22,female,2,2022_May_05_0909,Partial repeat,2021.2.3,59.89092634429227,
2,7,0,1,2,3,2,2,1,0,0,1,0,0,0,0,76,76,76,0,0,0,0,,,,,,,960.4248344004154,None,960.7350040990859,None,961.4662394989282,None,l,0,0.9120914004743099,961.4662394989282,None,962.3889514002949,None,,,,,,,2,22,female,2,2022_May_05_0909,Partial repeat,2021.2.3,59.89092634429227,
2,7,0,1,2,3,2,2,1,0,0,1,0,0,0,0,76,76,76,1,0,1,0,,,,,,,,,962.8892221003771,None,963.8698392994702,None,l,1,1.6683819014579058,963.8698392994702,None,None,None,,,,,,,2,22,female,2,2022_May_05_0909,Partial repeat,2021.2.3,59.89092634429227,
2,7,0,1,2,3,2,2,1,0,0,1,0,0,0,0,76,76,76,,,,,,,,,,,,,,,,,,,,,,,,,,,,,,2,22,female,2,2022_May_05_0909,Partial repeat,2021.2.3,59.89092634429227,
4,3,0,1,2,2,1,1,1,1,1,1,1,0,0,0,77,77,77,0,0,0,0,,,,,,,965.552921500057,None,966.0620481986552,None,966.9762222003192,None,s,1,1.0260636992752552,966.9762222003192,None,None,None,,,,,,,2,22,female,2,2022_May_05_0909,Partial repeat,2021.2.3,59.89092634429227,
4,3,0,1,2,2,1,1,1,1,1,1,1,0,0,0,77,77,77,1,0,1,0,,,,,,,,,968.0306332986802,None,968.8296588994563,None,s,1,0.6205008011311293,968.8296588994563,None,None,None,,,,,,,2,22,female,2,2022_May_05_0909,Partial repeat,2021.2.3,59.89092634429227,
4,3,0,1,2,2,1,1,1,1,1,1,1,0,0,0,77,77,77,,,,,,,,,,,,,,,,,,,,,,,,,,,,,,2,22,female,2,2022_May_05_0909,Partial repeat,2021.2.3,59.89092634429227,
1,2,0,1,2,2,2,2,1,0,1,1,0,0,0,0,78,78,78,0,0,0,0,,,,,,,969.46356189996,None,969.8694713991135,None,970.750228298828,None,s,1,0.8999610003083944,970.750228298828,None,None,None,,,,,,,2,22,female,2,2022_May_05_0909,Partial repeat,2021.2.3,59.89092634429227,
1,2,0,1,2,2,2,2,1,0,1,1,0,0,0,0,78,78,78,1,0,1,0,,,,,,,,,971.67445669882,None,972.5870668999851,None,l,1,1.0471509993076324,972.5870668999851,None,None,None,,,,,,,2,22,female,2,2022_May_05_0909,Partial repeat,2021.2.3,59.89092634429227,
1,2,0,1,2,2,2,2,1,0,1,1,0,0,0,0,78,78,78,,,,,,,,,,,,,,,,,,,,,,,,,,,,,,2,22,female,2,2022_May_05_0909,Partial repeat,2021.2.3,59.89092634429227,
8,3,0,1,2,2,1,2,0,0,1,0,1,0,0,0,79,79,79,0,0,0,0,,,,,,,973.6490007992834,None,974.027560999617,None,974.9081154987216,None,l,1,1.206105601042509,974.9081154987216,None,None,None,,,,,,,2,22,female,2,2022_May_05_0909,Partial repeat,2021.2.3,59.89092634429227,
8,3,0,1,2,2,1,2,0,0,1,0,1,0,0,0,79,79,79,1,0,1,0,,,,,,,,,976.1296762004495,None,977.129186199978,None,l,1,0.9770418982952833,977.129186199978,None,None,None,,,,,,,2,22,female,2,2022_May_05_0909,Partial repeat,2021.2.3,59.89092634429227,
8,3,0,1,2,2,1,2,0,0,1,0,1,0,0,0,79,79,79,,,,,,,,,,,,,,,,,,,,,,,,,,,,,,2,22,female,2,2022_May_05_0909,Partial repeat,2021.2.3,59.89092634429227,
6,4,0,1,3,2,2,2,1,1,0,1,1,0,0,0,80,80,80,0,0,0,0,,,,,,,978.1246805004776,None,978.4027123004198,None,979.3344307988882,None,s,1,0.7398195005953312,979.3344307988882,None,None,None,,,,,,,2,22,female,2,2022_May_05_0909,Partial repeat,2021.2.3,59.89092634429227,
6,4,0,1,3,2,2,2,1,1,0,1,1,0,0,0,80,80,80,1,0,1,0,,,,,,,,,980.0861825998873,None,981.1035520993173,None,s,1,0.9786633010953665,981.1035520993173,None,None,None,,,,,,,2,22,female,2,2022_May_05_0909,Partial repeat,2021.2.3,59.89092634429227,
6,4,0,1,3,2,2,2,1,1,0,1,1,0,0,0,80,80,80,,,,,,,,,,,,,,,,,,,,,,,,,,,,,,2,22,female,2,2022_May_05_0909,Partial repeat,2021.2.3,59.89092634429227,
5,6,0,1,3,2,1,1,1,0,0,1,0,0,0,0,81,81,81,0,0,0,0,,,,,,,982.096989499405,None,982.3938108999282,None,983.2910486999899,None,s,1,0.6791682988405228,983.2910486999899,None,None,None,,,,,,,2,22,female,2,2022_May_05_0909,Partial repeat,2021.2.3,59.89092634429227,
5,6,0,1,3,2,1,1,1,0,0,1,0,0,0,0,81,81,81,1,0,1,0,,,,,,,,,983.9868492987007,None,984.9475027993321,None,l,1,1.3427601996809244,984.9475027993321,None,None,None,,,,,,,2,22,female,2,2022_May_05_0909,Partial repeat,2021.2.3,59.89092634429227,
5,6,0,1,3,2,1,1,1,0,0,1,0,0,0,0,81,81,81,,,,,,,,,,,,,,,,,,,,,,,,,,,,,,2,22,female,2,2022_May_05_0909,Partial repeat,2021.2.3,59.89092634429227,
4,1,0,1,2,3,1,2,0,1,0,0,0,0,0,0,82,82,82,0,0,0,0,,,,,,,986.3173744995147,None,986.6020034998655,None,987.4160038996488,None,l,1,1.0022962000221014,987.4160038996488,None,None,None,,,,,,,2,22,female,2,2022_May_05_0909,Partial repeat,2021.2.3,59.89092634429227,
4,1,0,1,2,3,1,2,0,1,0,0,0,0,0,0,82,82,82,1,0,1,0,,,,,,,,,988.4455228000879,None,989.3197165001184,None,s,1,1.1865456998348236,989.3197165001184,None,None,None,,,,,,,2,22,female,2,2022_May_05_0909,Partial repeat,2021.2.3,59.89092634429227,
4,1,0,1,2,3,1,2,0,1,0,0,0,0,0,0,82,82,82,,,,,,,,,,,,,,,,,,,,,,,,,,,,,,2,22,female,2,2022_May_05_0909,Partial repeat,2021.2.3,59.89092634429227,
3,7,0,1,3,2,2,1,1,1,0,0,1,0,0,0,83,83,83,0,0,0,0,,,,,,,990.5314252004027,None,990.8436014000326,None,991.8254205994308,None,s,1,0.6887591984122992,991.8254205994308,None,None,None,,,,,,,2,22,female,2,2022_May_05_0909,Partial repeat,2021.2.3,59.89092634429227,
3,7,0,1,3,2,2,1,1,1,0,0,1,0,0,0,83,83,83,1,0,1,0,,,,,,,,,992.5356085989624,None,993.3774442989379,None,s,1,0.8648184984922409,993.3774442989379,None,None,None,,,,,,,2,22,female,2,2022_May_05_0909,Partial repeat,2021.2.3,59.89092634429227,
3,7,0,1,3,2,2,1,1,1,0,0,1,0,0,0,83,83,83,,,,,,,,,,,,,,,,,,,,,,,,,,,,,,2,22,female,2,2022_May_05_0909,Partial repeat,2021.2.3,59.89092634429227,
2,1,0,1,2,3,1,1,1,0,0,1,0,0,0,0,84,84,84,0,0,0,0,,,,,,,994.2624053992331,None,994.6342351995409,None,995.4483479000628,None,s,1,0.6738678999245167,995.4483479000628,None,None,None,,,,,,,2,22,female,2,2022_May_05_0909,Partial repeat,2021.2.3,59.89092634429227,
2,1,0,1,2,3,1,1,1,0,0,1,0,0,0,0,84,84,84,1,0,1,0,,,,,,,,,996.136881198734,None,997.1347623001784,None,l,1,0.7794534005224705,997.1347623001784,None,None,None,,,,,,,2,22,female,2,2022_May_05_0909,Partial repeat,2021.2.3,59.89092634429227,
2,1,0,1,2,3,1,1,1,0,0,1,0,0,0,0,84,84,84,,,,,,,,,,,,,,,,,,,,,,,,,,,,,,2,22,female,2,2022_May_05_0909,Partial repeat,2021.2.3,59.89092634429227,
7,7,0,1,3,2,2,1,0,1,0,0,0,0,0,0,85,85,85,0,0,0,0,,,,,,,997.9355865996331,None,998.0741760991514,None,998.9559532999992,None,l,1,1.0462283995002508,998.9559532999992,None,None,None,,,,,,,2,22,female,2,2022_May_05_0909,Partial repeat,2021.2.3,59.89092634429227,
7,7,0,1,3,2,2,1,0,1,0,0,0,0,0,0,85,85,85,1,0,1,0,,,,,,,,,1000.0257590990514,None,1000.8085667993873,None,l,0,0.6496176011860371,1000.8085667993873,None,1001.4806711990386,None,,,,,,,2,22,female,2,2022_May_05_0909,Partial repeat,2021.2.3,59.89092634429227,
7,7,0,1,3,2,2,1,0,1,0,0,0,0,0,0,85,85,85,,,,,,,,,,,,,,,,,,,,,,,,,,,,,,2,22,female,2,2022_May_05_0909,Partial repeat,2021.2.3,59.89092634429227,
8,1,0,1,3,2,2,1,1,0,0,0,0,0,0,0,86,86,86,0,0,0,0,,,,,,,1001.9819172993302,None,1002.6498798001558,None,1003.3978592995554,None,s,1,0.6523544006049633,1003.3978592995554,None,None,None,,,,,,,2,22,female,2,2022_May_05_0909,Partial repeat,2021.2.3,59.89092634429227,
8,1,0,1,3,2,2,1,1,0,0,0,0,0,0,0,86,86,86,1,0,1,0,,,,,,,,,1004.0645815003663,None,1004.966534299776,None,s,0,0.7956785000860691,1004.966534299776,None,1005.7900389004499,None,,,,,,,2,22,female,2,2022_May_05_0909,Partial repeat,2021.2.3,59.89092634429227,
8,1,0,1,3,2,2,1,1,0,0,0,0,0,0,0,86,86,86,,,,,,,,,,,,,,,,,,,,,,,,,,,,,,2,22,female,2,2022_May_05_0909,Partial repeat,2021.2.3,59.89092634429227,
5,7,0,1,2,3,2,1,1,0,0,0,0,0,0,0,87,87,87,0,0,0,0,,,,,,,1006.2902681995183,None,1006.8914871998131,None,1007.8555656988174,None,s,1,0.6666106004267931,1007.8555656988174,None,None,None,,,,,,,2,22,female,2,2022_May_05_0909,Partial repeat,2021.2.3,59.89092634429227,
5,7,0,1,2,3,2,1,1,0,0,0,0,0,0,0,87,87,87,1,0,1,0,,,,,,,,,1008.5413528997451,None,1009.4589178003371,None,l,1,0.6633374989032745,1009.4589178003371,None,None,None,,,,,,,2,22,female,2,2022_May_05_0909,Partial repeat,2021.2.3,59.89092634429227,
5,7,0,1,2,3,2,1,1,0,0,0,0,0,0,0,87,87,87,,,,,,,,,,,,,,,,,,,,,,,,,,,,,,2,22,female,2,2022_May_05_0909,Partial repeat,2021.2.3,59.89092634429227,
4,8,0,1,2,3,1,1,0,1,0,1,0,0,0,0,88,88,88,0,0,0,0,,,,,,,1010.1342028994113,None,1010.3816186003387,None,1011.1624033004045,None,l,1,0.9438089989125729,1011.1624033004045,None,None,None,,,,,,,2,22,female,2,2022_May_05_0909,Partial repeat,2021.2.3,59.89092634429227,
4,8,0,1,2,3,1,1,0,1,0,1,0,0,0,0,88,88,88,1,0,1,0,,,,,,,,,1012.1315176989883,None,1012.8822894990444,None,s,1,0.5439069010317326,1012.8822894990444,None,None,None,,,,,,,2,22,female,2,2022_May_05_0909,Partial repeat,2021.2.3,59.89092634429227,
4,8,0,1,2,3,1,1,0,1,0,1,0,0,0,0,88,88,88,,,,,,,,,,,,,,,,,,,,,,,,,,,,,,2,22,female,2,2022_May_05_0909,Partial repeat,2021.2.3,59.89092634429227,
7,4,0,1,2,2,2,1,0,0,1,0,1,0,0,0,89,89,89,0,0,0,0,,,,,,,1013.4466469995677,None,1013.7882419992238,None,1014.7692562993616,None,l,1,0.913017500191927,1014.7692562993616,None,None,None,,,,,,,2,22,female,2,2022_May_05_0909,Partial repeat,2021.2.3,59.89092634429227,
7,4,0,1,2,2,2,1,0,0,1,0,1,0,0,0,89,89,89,1,0,1,0,,,,,,,,,1015.7006206996739,None,1016.4391350988299,None,l,1,0.8111044000834227,1016.4391350988299,None,None,None,,,,,,,2,22,female,2,2022_May_05_0909,Partial repeat,2021.2.3,59.89092634429227,
7,4,0,1,2,2,2,1,0,0,1,0,1,0,0,0,89,89,89,,,,,,,,,,,,,,,,,,,,,,,,,,,,,,2,22,female,2,2022_May_05_0909,Partial repeat,2021.2.3,59.89092634429227,
3,4,0,1,2,2,1,2,1,0,1,0,0,0,0,0,90,90,90,0,0,0,0,,,,,,,1017.2803980987519,None,1017.5455677993596,None,1018.4261140991002,None,s,1,0.7120629008859396,1018.4261140991002,None,None,None,,,,,,,2,22,female,2,2022_May_05_0909,Partial repeat,2021.2.3,59.89092634429227,
3,4,0,1,2,2,1,2,1,0,1,0,0,0,0,0,90,90,90,1,0,1,0,,,,,,,,,1019.1627096999437,None,1020.0130023993552,None,l,1,0.6771783996373415,1020.0130023993552,None,None,None,,,,,,,2,22,female,2,2022_May_05_0909,Partial repeat,2021.2.3,59.89092634429227,
3,4,0,1,2,2,1,2,1,0,1,0,0,0,0,0,90,90,90,,,,,,,,,,,,,,,,,,,,,,,,,,,,,,2,22,female,2,2022_May_05_0909,Partial repeat,2021.2.3,59.89092634429227,
5,4,0,1,3,2,1,2,0,1,0,0,0,0,0,0,91,91,91,0,0,0,0,,,,,,,1020.7113260999322,None,1020.9521861989051,None,1021.7495706994087,None,l,1,0.7246884014457464,1021.7495706994087,None,None,None,,,,,,,2,22,female,2,2022_May_05_0909,Partial repeat,2021.2.3,59.89092634429227,
5,4,0,1,3,2,1,2,0,1,0,0,0,0,0,0,91,91,91,1,0,1,0,,,,,,,,,1022.4864277988672,None,1023.3031788989902,None,s,1,0.6909526009112597,1023.3031788989902,None,None,None,,,,,,,2,22,female,2,2022_May_05_0909,Partial repeat,2021.2.3,59.89092634429227,
5,4,0,1,3,2,1,2,0,1,0,0,0,0,0,0,91,91,91,,,,,,,,,,,,,,,,,,,,,,,,,,,,,,2,22,female,2,2022_May_05_0909,Partial repeat,2021.2.3,59.89092634429227,
5,8,0,1,3,3,1,2,0,0,1,0,1,0,0,0,92,92,92,0,0,0,0,,,,,,,1024.0191730000079,None,1024.2752458993345,None,1025.2060674987733,None,l,1,0.7161657009273767,1025.2060674987733,None,None,None,,,,,,,2,22,female,2,2022_May_05_0909,Partial repeat,2021.2.3,59.89092634429227,
5,8,0,1,3,3,1,2,0,0,1,0,1,0,0,0,92,92,92,1,0,1,0,,,,,,,,,1025.9361087996513,None,1026.7425114996731,None,l,1,0.6916757989674807,1026.7425114996731,None,None,None,,,,,,,2,22,female,2,2022_May_05_0909,Partial repeat,2021.2.3,59.89092634429227,
5,8,0,1,3,3,1,2,0,0,1,0,1,0,0,0,92,92,92,,,,,,,,,,,,,,,,,,,,,,,,,,,,,,2,22,female,2,2022_May_05_0909,Partial repeat,2021.2.3,59.89092634429227,
4,2,0,1,2,2,1,2,0,1,1,0,0,0,0,0,93,93,93,0,0,0,0,,,,,,,1027.45988499932,None,1027.7153433002532,None,1028.6794038992375,None,l,1,0.7228234987705946,1028.6794038992375,None,None,None,,,,,,,2,22,female,2,2022_May_05_0909,Partial repeat,2021.2.3,59.89092634429227,
4,2,0,1,2,2,1,2,0,1,1,0,0,0,0,0,93,93,93,1,0,1,0,,,,,,,,,1029.4296550992876,None,1030.2998440992087,None,s,1,0.7024161983281374,1030.2998440992087,None,None,None,,,,,,,2,22,female,2,2022_May_05_0909,Partial repeat,2021.2.3,59.89092634429227,
4,2,0,1,2,2,1,2,0,1,1,0,0,0,0,0,93,93,93,,,,,,,,,,,,,,,,,,,,,,,,,,,,,,2,22,female,2,2022_May_05_0909,Partial repeat,2021.2.3,59.89092634429227,
1,5,0,1,3,2,1,1,0,0,0,1,1,0,0,0,94,94,94,0,0,0,0,,,,,,,1031.0198432989419,None,1031.3390087988228,None,1032.2697023991495,None,l,1,0.9726580008864403,1032.2697023991495,None,None,None,,,,,,,2,22,female,2,2022_May_05_0909,Partial repeat,2021.2.3,59.89092634429227,
1,5,0,1,3,2,1,1,0,0,0,1,1,0,0,0,94,94,94,1,0,1,0,,,,,,,,,1033.2531396001577,None,1034.1066140998155,None,l,1,0.7835968006402254,1034.1066140998155,None,None,None,,,,,,,2,22,female,2,2022_May_05_0909,Partial repeat,2021.2.3,59.89092634429227,
1,5,0,1,3,2,1,1,0,0,0,1,1,0,0,0,94,94,94,,,,,,,,,,,,,,,,,,,,,,,,,,,,,,2,22,female,2,2022_May_05_0909,Partial repeat,2021.2.3,59.89092634429227,
4,4,0,1,3,2,1,2,0,0,0,0,1,0,0,0,95,95,95,0,0,0,0,,,,,,,1034.9066339991987,None,1035.2799827996641,None,1036.1605746988207,None,l,1,0.7696022000163794,1036.1605746988207,None,None,None,,,,,,,2,22,female,2,2022_May_05_0909,Partial repeat,2021.2.3,59.89092634429227,
4,4,0,1,3,2,1,2,0,0,0,0,1,0,0,0,95,95,95,1,0,1,0,,,,,,,,,1036.95465759933,None,1037.8476048000157,None,l,1,0.6026505995541811,1037.8476048000157,None,None,None,,,,,,,2,22,female,2,2022_May_05_0909,Partial repeat,2021.2.3,59.89092634429227,
4,4,0,1,3,2,1,2,0,0,0,0,1,0,0,0,95,95,95,,,,,,,,,,,,,,,,,,,,,,,,,,,,,,2,22,female,2,2022_May_05_0909,Partial repeat,2021.2.3,59.89092634429227,
1,6,0,1,3,3,2,1,0,0,1,0,1,0,0,0,96,96,96,0,0,0,0,,,,,,,1038.4792857989669,None,1038.7033283989877,None,1039.6841658987105,None,l,1,0.5821086000651121,1039.6841658987105,None,None,None,,,,,,,2,22,female,2,2022_May_05_0909,Partial repeat,2021.2.3,59.89092634429227,
1,6,0,1,3,3,2,1,0,0,1,0,1,0,0,0,96,96,96,1,0,1,0,,,,,,,,,1040.2910801004618,None,1041.2039770986885,None,l,1,0.614283500239253,1041.2039770986885,None,None,None,,,,,,,2,22,female,2,2022_May_05_0909,Partial repeat,2021.2.3,59.89092634429227,
1,6,0,1,3,3,2,1,0,0,1,0,1,0,0,0,96,96,96,,,,,,,,,,,,,,,,,,,,,,,,,,,,,,2,22,female,2,2022_May_05_0909,Partial repeat,2021.2.3,59.89092634429227,
8,8,0,1,2,2,1,1,0,1,1,1,0,0,0,0,97,97,97,0,0,0,0,,,,,,,1041.8435784000903,None,1042.0765815991908,None,1042.9414274003357,None,l,1,0.5327476989477873,1042.9414274003357,None,None,None,,,,,,,2,22,female,2,2022_May_05_0909,Partial repeat,2021.2.3,59.89092634429227,
8,8,0,1,2,2,1,1,0,1,1,1,0,0,0,0,97,97,97,1,0,1,0,,,,,,,,,1043.486516200006,None,1044.3935380987823,None,s,1,1.1047156006097794,1044.3935380987823,None,None,None,,,,,,,2,22,female,2,2022_May_05_0909,Partial repeat,2021.2.3,59.89092634429227,
8,8,0,1,2,2,1,1,0,1,1,1,0,0,0,0,97,97,97,,,,,,,,,,,,,,,,,,,,,,,,,,,,,,2,22,female,2,2022_May_05_0909,Partial repeat,2021.2.3,59.89092634429227,
7,8,0,1,3,3,1,1,1,1,1,1,1,0,0,0,98,98,98,0,0,0,0,,,,,,,1045.511572400108,None,1046.0343305002898,None,1047.0157925002277,None,s,1,0.6584804989397526,1047.0157925002277,None,None,None,,,,,,,2,22,female,2,2022_May_05_0909,Partial repeat,2021.2.3,59.89092634429227,
7,8,0,1,3,3,1,1,1,1,1,1,1,0,0,0,98,98,98,1,0,1,0,,,,,,,,,1047.685433799401,None,1048.6025213003159,None,l,0,0.5357121005654335,1048.6025213003159,None,1049.1463600993156,None,,,,,,,2,22,female,2,2022_May_05_0909,Partial repeat,2021.2.3,59.89092634429227,
7,8,0,1,3,3,1,1,1,1,1,1,1,0,0,0,98,98,98,,,,,,,,,,,,,,,,,,,,,,,,,,,,,,2,22,female,2,2022_May_05_0909,Partial repeat,2021.2.3,59.89092634429227,
4,6,0,1,2,2,1,2,1,1,1,0,1,0,0,0,99,99,99,0,0,0,0,,,,,,,1049.658020099625,None,1050.6098731998354,None,1051.4080404993147,None,s,1,0.6741049997508526,1051.4080404993147,None,None,None,,,,,,,2,22,female,2,2022_May_05_0909,Partial repeat,2021.2.3,59.89092634429227,
4,6,0,1,2,2,1,2,1,1,1,0,1,0,0,0,99,99,99,1,0,1,0,,,,,,,,,1052.099745599553,None,1052.9602584000677,None,s,1,0.5299148000776768,1052.9602584000677,None,None,None,,,,,,,2,22,female,2,2022_May_05_0909,Partial repeat,2021.2.3,59.89092634429227,
4,6,0,1,2,2,1,2,1,1,1,0,1,0,0,0,99,99,99,,,,,,,,,,,,,,,,,,,,,,,,,,,,,,2,22,female,2,2022_May_05_0909,Partial repeat,2021.2.3,59.89092634429227,
4,5,0,1,3,3,2,2,0,1,1,1,0,0,0,0,100,100,100,0,0,0,0,,,,,,,1053.5047829989344,None,1053.7993866000324,None,1054.69706290029,None,l,1,0.8571106009185314,1054.69706290029,None,None,None,,,,,,,2,22,female,2,2022_May_05_0909,Partial repeat,2021.2.3,59.89092634429227,
4,5,0,1,3,3,2,2,0,1,1,1,0,0,0,0,100,100,100,1,0,1,0,,,,,,,,,1055.5797268990427,None,1056.3334531988949,None,s,1,0.700661500915885,1056.3334531988949,None,None,None,,,,,,,2,22,female,2,2022_May_05_0909,Partial repeat,2021.2.3,59.89092634429227,
4,5,0,1,3,3,2,2,0,1,1,1,0,0,0,0,100,100,100,,,,,,,,,,,,,,,,,,,,,,,,,,,,,,2,22,female,2,2022_May_05_0909,Partial repeat,2021.2.3,59.89092634429227,
8,6,0,1,2,2,1,1,0,0,1,1,1,0,0,0,101,101,101,0,0,0,0,,,,,,,1057.0525297001004,None,1057.3730503004044,None,1058.120216699317,None,l,1,0.986040398478508,1058.120216699317,None,None,None,,,,,,,2,22,female,2,2022_May_05_0909,Partial repeat,2021.2.3,59.89092634429227,
8,6,0,1,2,2,1,1,0,0,1,1,1,0,0,0,101,101,101,1,0,1,0,,,,,,,,,1059.1268868986517,None,1060.1249435003847,None,l,1,0.6372597999870777,1060.1249435003847,None,None,None,,,,,,,2,22,female,2,2022_May_05_0909,Partial repeat,2021.2.3,59.89092634429227,
8,6,0,1,2,2,1,1,0,0,1,1,1,0,0,0,101,101,101,,,,,,,,,,,,,,,,,,,,,,,,,,,,,,2,22,female,2,2022_May_05_0909,Partial repeat,2021.2.3,59.89092634429227,
7,5,0,1,3,2,2,2,0,0,0,1,1,0,0,0,102,102,102,0,0,0,0,,,,,,,1060.7794885989279,None,1060.9633742999285,None,1061.82747489959,None,l,1,0.5107654016464949,1061.82747489959,None,None,None,,,,,,,2,22,female,2,2022_May_05_0909,Partial repeat,2021.2.3,59.89092634429227,
7,5,0,1,3,2,2,2,0,0,0,1,1,0,0,0,102,102,102,1,0,1,0,,,,,,,,,1062.3491551987827,None,1063.1472359001637,None,l,1,0.7189635001122952,1063.1472359001637,None,None,None,,,,,,,2,22,female,2,2022_May_05_0909,Partial repeat,2021.2.3,59.89092634429227,
7,5,0,1,3,2,2,2,0,0,0,1,1,0,0,0,102,102,102,,,,,,,,,,,,,,,,,,,,,,,,,,,,,,2,22,female,2,2022_May_05_0909,Partial repeat,2021.2.3,59.89092634429227,
1,3,0,1,3,2,1,1,0,1,0,1,0,0,0,0,103,103,103,0,0,0,0,,,,,,,1063.8852054998279,None,1064.052658898756,None,1065.066855698824,None,l,1,0.5273500010371208,1065.066855698824,None,None,None,,,,,,,2,22,female,2,2022_May_05_0909,Partial repeat,2021.2.3,59.89092634429227,
1,3,0,1,3,2,1,1,0,1,0,1,0,0,0,0,103,103,103,1,0,1,0,,,,,,,,,1065.6079731993377,None,1066.5700901001692,None,s,1,0.6560564991086721,1066.5700901001692,None,None,None,,,,,,,2,22,female,2,2022_May_05_0909,Partial repeat,2021.2.3,59.89092634429227,
1,3,0,1,3,2,1,1,0,1,0,1,0,0,0,0,103,103,103,,,,,,,,,,,,,,,,,,,,,,,,,,,,,,2,22,female,2,2022_May_05_0909,Partial repeat,2021.2.3,59.89092634429227,
1,1,0,1,2,3,1,1,1,1,0,1,1,0,0,0,104,104,104,0,0,0,0,,,,,,,1067.2410448994488,None,1067.4760248996317,None,1068.4234886988997,None,s,1,0.5706813000142574,1068.4234886988997,None,None,None,,,,,,,2,22,female,2,2022_May_05_0909,Partial repeat,2021.2.3,59.89092634429227,
1,1,0,1,2,3,1,1,1,1,0,1,1,0,0,0,104,104,104,1,0,1,0,,,,,,,,,1069.012812299654,None,1069.8271497003734,None,s,1,0.5190188009291887,1069.8271497003734,None,None,None,,,,,,,2,22,female,2,2022_May_05_0909,Partial repeat,2021.2.3,59.89092634429227,
1,1,0,1,2,3,1,1,1,1,0,1,1,0,0,0,104,104,104,,,,,,,,,,,,,,,,,,,,,,,,,,,,,,2,22,female,2,2022_May_05_0909,Partial repeat,2021.2.3,59.89092634429227,
5,5,0,1,2,2,2,2,0,0,1,1,1,0,0,0,105,105,105,0,0,0,0,,,,,,,1070.3748167995363,None,1070.6321815997362,None,1071.4125909991562,None,l,1,0.7976165991276503,1071.4125909991562,None,None,None,,,,,,,2,22,female,2,2022_May_05_0909,Partial repeat,2021.2.3,59.89092634429227,
5,5,0,1,2,2,2,2,0,0,1,1,1,0,0,0,105,105,105,1,0,1,0,,,,,,,,,1072.2294629998505,None,1072.9488498996943,None,l,1,0.41330520063638687,1072.9488498996943,None,None,None,,,,,,,2,22,female,2,2022_May_05_0909,Partial repeat,2021.2.3,59.89092634429227,
5,5,0,1,2,2,2,2,0,0,1,1,1,0,0,0,105,105,105,,,,,,,,,,,,,,,,,,,,,,,,,,,,,,2,22,female,2,2022_May_05_0909,Partial repeat,2021.2.3,59.89092634429227,
8,2,0,1,3,3,1,2,0,1,1,0,0,0,0,0,106,106,106,0,0,0,0,,,,,,,1073.3848122991621,None,1073.571223899722,None,1074.5363583993167,None,l,1,0.7458168994635344,1074.5363583993167,None,None,None,,,,,,,2,22,female,2,2022_May_05_0909,Partial repeat,2021.2.3,59.89092634429227,
8,2,0,1,3,3,1,2,0,1,1,0,0,0,0,0,106,106,106,1,0,1,0,,,,,,,,,1075.3082937989384,None,1076.0548949986696,None,s,1,0.8112505003809929,1076.0548949986696,None,None,None,,,,,,,2,22,female,2,2022_May_05_0909,Partial repeat,2021.2.3,59.89092634429227,
8,2,0,1,3,3,1,2,0,1,1,0,0,0,0,0,106,106,106,,,,,,,,,,,,,,,,,,,,,,,,,,,,,,2,22,female,2,2022_May_05_0909,Partial repeat,2021.2.3,59.89092634429227,
7,2,0,1,2,3,2,2,0,1,0,1,0,0,0,0,107,107,107,0,0,0,0,,,,,,,1076.8812025990337,None,1077.3619547002017,None,1078.0932739004493,None,l,1,1.0449624005705118,1078.0932739004493,None,None,None,,,,,,,2,22,female,2,2022_May_05_0909,Partial repeat,2021.2.3,59.89092634429227,
7,2,0,1,2,3,2,2,0,1,0,1,0,0,0,0,107,107,107,1,0,1,0,,,,,,,,,1079.1666809991002,None,1079.9795765001327,None,s,1,0.7746331002563238,1079.9795765001327,None,None,None,,,,,,,2,22,female,2,2022_May_05_0909,Partial repeat,2021.2.3,59.89092634429227,
7,2,0,1,2,3,2,2,0,1,0,1,0,0,0,0,107,107,107,,,,,,,,,,,,,,,,,,,,,,,,,,,,,,2,22,female,2,2022_May_05_0909,Partial repeat,2021.2.3,59.89092634429227,
4,7,0,1,2,3,1,2,1,1,0,0,1,0,0,0,108,108,108,0,0,0,0,,,,,,,1080.773461299017,None,1081.0691010989249,None,1081.8505479004234,None,s,1,0.6556244995445013,1081.8505479004234,None,None,None,,,,,,,2,22,female,2,2022_May_05_0909,Partial repeat,2021.2.3,59.89092634429227,
4,7,0,1,2,3,1,2,1,1,0,0,1,0,0,0,108,108,108,1,0,1,0,,,,,,,,,1082.5212331991643,None,1083.5361724998802,None,s,1,0.7220315989106894,1083.5361724998802,None,None,None,,,,,,,2,22,female,2,2022_May_05_0909,Partial repeat,2021.2.3,59.89092634429227,
4,7,0,1,2,3,1,2,1,1,0,0,1,0,0,0,108,108,108,,,,,,,,,,,,,,,,,,,,,,,,,,,,,,2,22,female,2,2022_May_05_0909,Partial repeat,2021.2.3,59.89092634429227,
1,8,0,1,2,3,1,2,0,0,0,0,1,0,0,0,109,109,109,0,0,0,0,,,,,,,1084.278501899913,None,1084.5926513001323,None,1085.3731862995774,None,l,1,0.7889971993863583,1085.3731862995774,None,None,None,,,,,,,2,22,female,2,2022_May_05_0909,Partial repeat,2021.2.3,59.89092634429227,
1,8,0,1,2,3,1,2,0,0,0,0,1,0,0,0,109,109,109,1,0,1,0,,,,,,,,,1086.1908825989813,None,1086.9105353988707,None,l,1,0.6516674999147654,1086.9105353988707,None,None,None,,,,,,,2,22,female,2,2022_May_05_0909,Partial repeat,2021.2.3,59.89092634429227,
1,8,0,1,2,3,1,2,0,0,0,0,1,0,0,0,109,109,109,,,,,,,,,,,,,,,,,,,,,,,,,,,,,,2,22,female,2,2022_May_05_0909,Partial repeat,2021.2.3,59.89092634429227,
8,4,0,1,3,2,2,1,0,0,0,0,1,0,0,0,110,110,110,0,0,0,0,,,,,,,1087.5861823987216,None,1087.8657170999795,None,1088.663202399388,None,l,1,0.4589719995856285,1088.663202399388,None,None,None,,,,,,,2,22,female,2,2022_May_05_0909,Partial repeat,2021.2.3,59.89092634429227,
8,4,0,1,3,2,2,1,0,0,0,0,1,0,0,0,110,110,110,1,0,1,0,,,,,,,,,1089.1394260991365,None,1090.116830099374,None,l,1,0.8213710989803076,1090.116830099374,None,None,None,,,,,,,2,22,female,2,2022_May_05_0909,Partial repeat,2021.2.3,59.89092634429227,
8,4,0,1,3,2,2,1,0,0,0,0,1,0,0,0,110,110,110,,,,,,,,,,,,,,,,,,,,,,,,,,,,,,2,22,female,2,2022_May_05_0909,Partial repeat,2021.2.3,59.89092634429227,
7,1,0,1,3,2,2,2,0,1,0,1,0,0,0,0,111,111,111,0,0,0,0,,,,,,,1090.9630267992616,None,1091.1888509988785,None,1092.0362245999277,None,l,1,1.1020214017480612,1092.0362245999277,None,None,None,,,,,,,2,22,female,2,2022_May_05_0909,Partial repeat,2021.2.3,59.89092634429227,
7,1,0,1,3,2,2,2,0,1,0,1,0,0,0,0,111,111,111,1,0,1,0,,,,,,,,,1093.1604394987226,None,1093.9567598998547,None,s,1,1.2134448997676373,1093.9567598998547,None,None,None,,,,,,,2,22,female,2,2022_May_05_0909,Partial repeat,2021.2.3,59.89092634429227,
7,1,0,1,3,2,2,2,0,1,0,1,0,0,0,0,111,111,111,,,,,,,,,,,,,,,,,,,,,,,,,,,,,,2,22,female,2,2022_May_05_0909,Partial repeat,2021.2.3,59.89092634429227,
3,1,0,1,3,2,1,2,1,1,0,0,1,0,0,0,112,112,112,0,0,0,0,,,,,,,1095.187477098778,None,1095.6139534991235,None,1096.6117288004607,None,l,0,0.7104691993445158,1096.6117288004607,None,1097.3444854002446,None,,,,,,,2,22,female,2,2022_May_05_0909,Partial repeat,2021.2.3,59.89092634429227,
3,1,0,1,3,2,1,2,1,1,0,0,1,0,0,0,112,112,112,1,0,1,0,,,,,,,,,1097.8518083002418,None,1098.8325852993876,None,l,0,0.6815623007714748,1098.8325852993876,None,1099.5261086001992,None,,,,,,,2,22,female,2,2022_May_05_0909,Partial repeat,2021.2.3,59.89092634429227,
3,1,0,1,3,2,1,2,1,1,0,0,1,0,0,0,112,112,112,,,,,,,,,,,,,,,,,,,,,,,,,,,,,,2,22,female,2,2022_May_05_0909,Partial repeat,2021.2.3,59.89092634429227,
3,3,0,1,3,3,2,2,1,1,1,1,1,0,0,0,113,113,113,0,0,0,0,,,,,,,1100.0392703004181,None,1101.4587644990534,None,1102.272822899744,None,s,1,0.7933946009725332,1102.272822899744,None,None,None,,,,,,,2,22,female,2,2022_May_05_0909,Partial repeat,2021.2.3,59.89092634429227,
3,3,0,1,3,3,2,2,1,1,1,1,1,0,0,0,113,113,113,1,0,1,0,,,,,,,,,1103.093644399196,None,1104.076064798981,None,s,1,0.5501051004976034,1104.076064798981,None,None,None,,,,,,,2,22,female,2,2022_May_05_0909,Partial repeat,2021.2.3,59.89092634429227,
3,3,0,1,3,3,2,2,1,1,1,1,1,0,0,0,113,113,113,,,,,,,,,,,,,,,,,,,,,,,,,,,,,,2,22,female,2,2022_May_05_0909,Partial repeat,2021.2.3,59.89092634429227,
6,3,0,1,3,3,1,2,1,1,1,0,1,0,0,0,114,114,114,0,0,0,0,,,,,,,1104.643742699176,None,1105.0658378005028,None,1106.0300230998546,None,s,1,0.7802788000553846,1106.0300230998546,None,None,None,,,,,,,2,22,female,2,2022_May_05_0909,Partial repeat,2021.2.3,59.89092634429227,
6,3,0,1,3,3,1,2,1,1,1,0,1,0,0,0,114,114,114,1,0,1,0,,,,,,,,,1106.8279170002788,None,1107.7665176000446,None,s,1,0.5637024994939566,1107.7665176000446,None,None,None,,,,,,,2,22,female,2,2022_May_05_0909,Partial repeat,2021.2.3,59.89092634429227,
6,3,0,1,3,3,1,2,1,1,1,0,1,0,0,0,114,114,114,,,,,,,,,,,,,,,,,,,,,,,,,,,,,,2,22,female,2,2022_May_05_0909,Partial repeat,2021.2.3,59.89092634429227,
2,6,0,1,2,2,2,2,1,1,1,1,1,0,0,0,115,115,115,0,0,0,0,,,,,,,1108.353523299098,None,1108.6892713997513,None,1109.486763998866,None,s,1,0.6834528986364603,1109.486763998866,None,None,None,,,,,,,2,22,female,2,2022_May_05_0909,Partial repeat,2021.2.3,59.89092634429227,
2,6,0,1,2,2,2,2,1,1,1,1,1,0,0,0,115,115,115,1,0,1,0,,,,,,,,,1110.198571499437,None,1110.939763398841,None,s,1,0.4863811004906893,1110.939763398841,None,None,None,,,,,,,2,22,female,2,2022_May_05_0909,Partial repeat,2021.2.3,59.89092634429227,
2,6,0,1,2,2,2,2,1,1,1,1,1,0,0,0,115,115,115,,,,,,,,,,,,,,,,,,,,,,,,,,,,,,2,22,female,2,2022_May_05_0909,Partial repeat,2021.2.3,59.89092634429227,
6,8,0,1,2,2,1,1,1,0,1,1,0,0,0,0,116,116,116,0,0,0,0,,,,,,,1111.4436003994197,None,1111.7955702003092,None,1112.5770359002054,None,s,1,0.4731282014399767,1112.5770359002054,None,None,None,,,,,,,2,22,female,2,2022_May_05_0909,Partial repeat,2021.2.3,59.89092634429227,
6,8,0,1,2,2,1,1,1,0,1,1,0,0,0,0,116,116,116,1,0,1,0,,,,,,,,,1113.0747125986964,None,1114.0288443993777,None,l,1,0.6453251000493765,1114.0288443993777,None,None,None,,,,,,,2,22,female,2,2022_May_05_0909,Partial repeat,2021.2.3,59.89092634429227,
6,8,0,1,2,2,1,1,1,0,1,1,0,0,0,0,116,116,116,,,,,,,,,,,,,,,,,,,,,,,,,,,,,,2,22,female,2,2022_May_05_0909,Partial repeat,2021.2.3,59.89092634429227,
3,8,0,1,3,3,2,2,0,0,1,1,1,0,0,0,117,117,117,0,0,0,0,,,,,,,1114.7027882002294,None,1114.9349782001227,None,1115.8159779999405,None,l,1,0.6983007993549109,1115.8159779999405,None,None,None,,,,,,,2,22,female,2,2022_May_05_0909,Partial repeat,2021.2.3,59.89092634429227,
3,8,0,1,3,3,2,2,0,0,1,1,1,0,0,0,117,117,117,1,0,1,0,,,,,,,,,1116.5307401996106,None,1117.4854020997882,None,l,1,0.6127645000815392,1117.4854020997882,None,None,None,,,,,,,2,22,female,2,2022_May_05_0909,Partial repeat,2021.2.3,59.89092634429227,
3,8,0,1,3,3,2,2,0,0,1,1,1,0,0,0,117,117,117,,,,,,,,,,,,,,,,,,,,,,,,,,,,,,2,22,female,2,2022_May_05_0909,Partial repeat,2021.2.3,59.89092634429227,
8,7,0,1,2,3,1,2,1,0,0,0,0,0,0,0,118,118,118,0,0,0,0,,,,,,,1118.1192025989294,None,1118.391743099317,None,1119.206097299233,None,s,1,0.7241158988326788,1119.206097299233,None,None,None,,,,,,,2,22,female,2,2022_May_05_0909,Partial repeat,2021.2.3,59.89092634429227,
8,7,0,1,2,3,1,2,1,0,0,0,0,0,0,0,118,118,118,1,0,1,0,,,,,,,,,1119.959413299337,None,1120.7753317002207,None,l,1,0.7068130001425743,1120.7753317002207,None,None,None,,,,,,,2,22,female,2,2022_May_05_0909,Partial repeat,2021.2.3,59.89092634429227,
8,7,0,1,2,3,1,2,1,0,0,0,0,0,0,0,118,118,118,,,,,,,,,,,,,,,,,,,,,,,,,,,,,,2,22,female,2,2022_May_05_0909,Partial repeat,2021.2.3,59.89092634429227,
2,3,0,1,3,3,1,1,1,0,1,1,0,0,0,0,119,119,119,0,0,0,0,,,,,,,1121.4936526995152,None,1121.664781600237,None,1122.5296523999423,None,s,1,0.6965124011039734,1122.5296523999423,None,None,None,,,,,,,2,22,female,2,2022_May_05_0909,Partial repeat,2021.2.3,59.89092634429227,
2,3,0,1,3,3,1,1,1,0,1,1,0,0,0,0,119,119,119,1,0,1,0,,,,,,,,,1123.2423401996493,None,1124.18199409917,None,l,1,1.0122049003839493,1124.18199409917,None,None,None,,,,,,,2,22,female,2,2022_May_05_0909,Partial repeat,2021.2.3,59.89092634429227,
2,3,0,1,3,3,1,1,1,0,1,1,0,0,0,0,119,119,119,,,,,,,,,,,,,,,,,,,,,,,,,,,,,,2,22,female,2,2022_May_05_0909,Partial repeat,2021.2.3,59.89092634429227,
1,7,0,1,3,3,1,2,1,0,1,0,0,0,0,0,120,120,120,0,0,0,0,,,,,,,1125.2191007994115,None,1125.3218699991703,None,1126.2540853004903,None,s,1,0.7001143004745245,1126.2540853004903,None,None,None,,,,,,,2,22,female,2,2022_May_05_0909,Partial repeat,2021.2.3,59.89092634429227,
1,7,0,1,3,3,1,2,1,0,1,0,0,0,0,0,120,120,120,1,0,1,0,,,,,,,,,1126.9668185990304,None,1127.9392411988229,None,l,1,0.7029569000005722,1127.9392411988229,None,None,None,,,,,,,2,22,female,2,2022_May_05_0909,Partial repeat,2021.2.3,59.89092634429227,
1,7,0,1,3,3,1,2,1,0,1,0,0,0,0,0,120,120,120,,,,,,,,,,,,,,,,,,,,,,,,,,,,,,2,22,female,2,2022_May_05_0909,Partial repeat,2021.2.3,59.89092634429227,
2,4,0,1,3,3,2,1,0,1,1,0,0,0,0,0,121,121,121,0,0,0,0,,,,,,,1128.6596531998366,None,1128.7450903989375,None,1129.6093586999923,None,l,1,0.6808486003428698,1129.6093586999923,None,None,None,,,,,,,2,22,female,2,2022_May_05_0909,Partial repeat,2021.2.3,59.89092634429227,
2,4,0,1,3,3,2,1,0,1,1,0,0,0,0,0,121,121,121,1,0,1,0,,,,,,,,,1130.3048521988094,None,1131.0454485993832,None,s,1,0.6608477011322975,1131.0454485993832,None,None,None,,,,,,,2,22,female,2,2022_May_05_0909,Partial repeat,2021.2.3,59.89092634429227,
2,4,0,1,3,3,2,1,0,1,1,0,0,0,0,0,121,121,121,,,,,,,,,,,,,,,,,,,,,,,,,,,,,,2,22,female,2,2022_May_05_0909,Partial repeat,2021.2.3,59.89092634429227,
2,5,0,1,3,3,1,1,0,0,1,1,1,0,0,0,122,122,122,0,0,0,0,,,,,,,1131.720606898889,None,1132.4190730992705,None,1133.2998639997095,None,l,1,0.6702792998403311,1133.2998639997095,None,None,None,,,,,,,2,22,female,2,2022_May_05_0909,Partial repeat,2021.2.3,59.89092634429227,
2,5,0,1,3,3,1,1,0,0,1,1,1,0,0,0,122,122,122,1,0,1,0,,,,,,,,,1133.988502599299,None,1134.8694540001452,None,l,1,0.7408230006694794,1134.8694540001452,None,None,None,,,,,,,2,22,female,2,2022_May_05_0909,Partial repeat,2021.2.3,59.89092634429227,
2,5,0,1,3,3,1,1,0,0,1,1,1,0,0,0,122,122,122,,,,,,,,,,,,,,,,,,,,,,,,,,,,,,2,22,female,2,2022_May_05_0909,Partial repeat,2021.2.3,59.89092634429227,
3,2,0,1,2,2,2,1,1,0,1,0,0,0,0,0,123,123,123,0,0,0,0,,,,,,,1135.6262502986938,None,1135.7588168997318,None,1136.5895344987512,None,s,1,0.8127267006784678,1136.5895344987512,None,None,None,,,,,,,2,22,female,2,2022_May_05_0909,Partial repeat,2021.2.3,59.89092634429227,
3,2,0,1,2,2,2,1,1,0,1,0,0,0,0,0,123,123,123,1,0,1,0,,,,,,,,,1137.4272130988538,None,1138.359477698803,None,l,1,0.7068301010876894,1138.359477698803,None,None,None,,,,,,,2,22,female,2,2022_May_05_0909,Partial repeat,2021.2.3,59.89092634429227,
3,2,0,1,2,2,2,1,1,0,1,0,0,0,0,0,123,123,123,,,,,,,,,,,,,,,,,,,,,,,,,,,,,,2,22,female,2,2022_May_05_0909,Partial repeat,2021.2.3,59.89092634429227,
3,5,0,1,2,2,2,2,0,1,1,1,0,0,0,0,124,124,124,0,0,0,0,,,,,,,1139.0780314989388,None,1139.2490093000233,None,1139.996281400323,None,l,1,0.6299881003797054,1139.996281400323,None,None,None,,,,,,,2,22,female,2,2022_May_05_0909,Partial repeat,2021.2.3,59.89092634429227,
3,5,0,1,2,2,2,2,0,1,1,1,0,0,0,0,124,124,124,1,0,1,0,,,,,,,,,1140.6424842998385,None,1141.5658777989447,None,s,1,1.02853349968791,1141.5658777989447,None,None,None,,,,,,,2,22,female,2,2022_May_05_0909,Partial repeat,2021.2.3,59.89092634429227,
3,5,0,1,2,2,2,2,0,1,1,1,0,0,0,0,124,124,124,,,,,,,,,,,,,,,,,,,,,,,,,,,,,,2,22,female,2,2022_May_05_0909,Partial repeat,2021.2.3,59.89092634429227,
5,3,0,1,3,3,1,1,0,1,1,1,0,0,0,0,125,125,125,0,0,0,0,,,,,,,1142.604841100052,None,1143.1065036002547,None,1143.9369488004595,None,s,0,1.6492066010832787,1143.9369488004595,None,1145.600521499291,None,,,,,,,2,22,female,2,2022_May_05_0909,Partial repeat,2021.2.3,59.89092634429227,
5,3,0,1,3,3,1,1,0,1,1,1,0,0,0,0,125,125,125,1,0,1,0,,,,,,,,,1146.1123089995235,None,1146.892841199413,None,l,0,0.8533904999494553,1146.892841199413,None,1147.762379700318,None,,,,,,,2,22,female,2,2022_May_05_0909,Partial repeat,2021.2.3,59.89092634429227,
5,3,0,1,3,3,1,1,0,1,1,1,0,0,0,0,125,125,125,,,,,,,,,,,,,,,,,,,,,,,,,,,,,,2,22,female,2,2022_May_05_0909,Partial repeat,2021.2.3,59.89092634429227,
6,5,0,1,3,2,1,2,1,0,0,0,0,0,0,0,126,126,126,0,0,0,0,,,,,,,1148.2665734998882,None,1148.9679274000227,None,1149.8822130002081,None,s,1,0.7678951006382704,1149.8822130002081,None,None,None,,,,,,,2,22,female,2,2022_May_05_0909,Partial repeat,2021.2.3,59.89092634429227,
6,5,0,1,3,2,1,2,1,0,0,0,0,0,0,0,126,126,126,1,0,1,0,,,,,,,,,1150.6713086999953,None,1151.5853294990957,None,l,1,0.6168626993894577,1151.5853294990957,None,None,None,,,,,,,2,22,female,2,2022_May_05_0909,Partial repeat,2021.2.3,59.89092634429227,
6,5,0,1,3,2,1,2,1,0,0,0,0,0,0,0,126,126,126,,,,,,,,,,,,,,,,,,,,,,,,,,,,,,2,22,female,2,2022_May_05_0909,Partial repeat,2021.2.3,59.89092634429227,
6,6,0,1,3,3,2,1,1,0,1,0,0,0,0,0,127,127,127,0,0,0,0,,,,,,,1152.2190524991602,None,1152.341164600104,None,1153.0879498999566,None,s,1,0.6022676005959511,1153.0879498999566,None,None,None,,,,,,,2,22,female,2,2022_May_05_0909,Partial repeat,2021.2.3,59.89092634429227,
6,6,0,1,3,3,2,1,1,0,1,0,0,0,0,0,127,127,127,1,0,1,0,,,,,,,,,1153.7149503994733,None,1154.5073732994497,None,l,1,0.8228354994207621,1154.5073732994497,None,None,None,,,,,,,2,22,female,2,2022_May_05_0909,Partial repeat,2021.2.3,59.89092634429227,
6,6,0,1,3,3,2,1,1,0,1,0,0,0,0,0,127,127,127,,,,,,,,,,,,,,,,,,,,,,,,,,,,,,2,22,female,2,2022_May_05_0909,Partial repeat,2021.2.3,59.89092634429227,
2,2,0,1,3,2,1,1,1,1,0,1,1,1,0,0,128,128,128,0,0,0,0,,,,,,,1155.409234398976,None,1156.415748000145,None,1157.247041599825,None,l,0,0.7150913998484612,1157.247041599825,None,1157.9912218991667,None,,,,,,,2,22,female,2,2022_May_05_0909,Partial repeat,2021.2.3,59.89092634429227,
2,2,0,1,3,2,1,1,1,1,0,1,1,1,0,0,128,128,128,1,0,1,0,,,,,,,,,1158.503188898787,None,1159.3003850989044,None,s,1,0.7177403010427952,1159.3003850989044,None,None,None,,,,,,,2,22,female,2,2022_May_05_0909,Partial repeat,2021.2.3,59.89092634429227,
2,2,0,1,3,2,1,1,1,1,0,1,1,1,0,0,128,128,128,,,,,,,,,,,,,,,,,,,,,,,,,,,,,,2,22,female,2,2022_May_05_0909,Partial repeat,2021.2.3,59.89092634429227,
2,2,0,1,3,3,1,1,1,0,1,1,0,1,0,0,129,129,129,0,0,0,0,,,,,,,1160.0414343997836,None,1160.8744040001184,None,1161.6214378997684,None,s,1,0.5967575013637543,1161.6214378997684,None,None,None,,,,,,,2,22,female,2,2022_May_05_0909,Partial repeat,2021.2.3,59.89092634429227,
2,2,0,1,3,3,1,1,1,0,1,1,0,1,0,0,129,129,129,1,0,1,0,,,,,,,,,1162.2328005991876,None,1163.1747030001134,None,l,1,0.6195882000029087,1163.1747030001134,None,None,None,,,,,,,2,22,female,2,2022_May_05_0909,Partial repeat,2021.2.3,59.89092634429227,
2,2,0,1,3,3,1,1,1,0,1,1,0,1,0,0,129,129,129,,,,,,,,,,,,,,,,,,,,,,,,,,,,,,2,22,female,2,2022_May_05_0909,Partial repeat,2021.2.3,59.89092634429227,
2,2,0,1,2,2,2,2,1,1,1,1,1,1,0,0,130,130,130,0,0,0,0,,,,,,,1163.807897400111,None,1164.2643154002726,None,1165.1951662003994,None,s,1,0.8951218016445637,1165.1951662003994,None,None,None,,,,,,,2,22,female,2,2022_May_05_0909,Partial repeat,2021.2.3,59.89092634429227,
2,2,0,1,2,2,2,2,1,1,1,1,1,1,0,0,130,130,130,1,0,1,0,,,,,,,,,1166.098342999816,None,1166.831845300272,None,s,1,0.6263750996440649,1166.831845300272,None,None,None,,,,,,,2,22,female,2,2022_May_05_0909,Partial repeat,2021.2.3,59.89092634429227,
2,2,0,1,2,2,2,2,1,1,1,1,1,1,0,0,130,130,130,,,,,,,,,,,,,,,,,,,,,,,,,,,,,,2,22,female,2,2022_May_05_0909,Partial repeat,2021.2.3,59.89092634429227,
2,2,0,1,2,2,1,2,0,0,1,0,1,1,0,0,131,131,131,0,0,0,0,,,,,,,1167.4689971990883,None,1167.7377725988626,None,1168.501440199092,None,l,1,0.5807484015822411,1168.501440199092,None,None,None,,,,,,,2,22,female,2,2022_May_05_0909,Partial repeat,2021.2.3,59.89092634429227,
2,2,0,1,2,2,1,2,0,0,1,0,1,1,0,0,131,131,131,1,0,1,0,,,,,,,,,1169.107785899192,None,1169.9209100995213,None,l,1,0.5132852997630835,1169.9209100995213,None,None,None,,,,,,,2,22,female,2,2022_May_05_0909,Partial repeat,2021.2.3,59.89092634429227,
2,2,0,1,2,2,1,2,0,0,1,0,1,1,0,0,131,131,131,,,,,,,,,,,,,,,,,,,,,,,,,,,,,,2,22,female,2,2022_May_05_0909,Partial repeat,2021.2.3,59.89092634429227,
2,2,0,1,3,3,1,1,1,1,1,1,1,1,0,0,132,132,132,0,0,0,0,,,,,,,1170.4488354995847,None,1170.7770469002426,None,1171.7916292995214,None,s,1,0.6825993992388248,1171.7916292995214,None,None,None,,,,,,,2,22,female,2,2022_May_05_0909,Partial repeat,2021.2.3,59.89092634429227,
2,2,0,1,3,3,1,1,1,1,1,1,1,1,0,0,132,132,132,1,0,1,0,,,,,,,,,1172.4820719994605,None,1173.2774234004319,None,s,1,0.492867199704051,1173.2774234004319,None,None,None,,,,,,,2,22,female,2,2022_May_05_0909,Partial repeat,2021.2.3,59.89092634429227,
2,2,0,1,3,3,1,1,1,1,1,1,1,1,0,0,132,132,132,,,,,,,,,,,,,,,,,,,,,,,,,,,,,,2,22,female,2,2022_May_05_0909,Partial repeat,2021.2.3,59.89092634429227,
2,2,0,1,2,3,2,1,1,0,0,0,0,1,0,0,133,133,133,0,0,0,0,,,,,,,1173.7832002993673,None,1173.9665264002979,None,1174.9316121004522,None,s,1,0.6225450988858938,1174.9316121004522,None,None,None,,,,,,,2,22,female,2,2022_May_05_0909,Partial repeat,2021.2.3,59.89092634429227,
2,2,0,1,2,3,2,1,1,0,0,0,0,1,0,0,133,133,133,1,0,1,0,,,,,,,,,1175.5757943000644,None,1176.4167724996805,None,l,1,0.5534319002181292,1176.4167724996805,None,None,None,,,,,,,2,22,female,2,2022_May_05_0909,Partial repeat,2021.2.3,59.89092634429227,
2,2,0,1,2,3,2,1,1,0,0,0,0,1,0,0,133,133,133,,,,,,,,,,,,,,,,,,,,,,,,,,,,,,2,22,female,2,2022_May_05_0909,Partial repeat,2021.2.3,59.89092634429227,
2,2,0,1,2,2,1,1,1,1,1,1,1,1,0,0,134,134,134,0,0,0,0,,,,,,,1176.9878669995815,None,1177.1060130000114,None,1177.8864270988852,None,s,1,0.8677949011325836,1177.8864270988852,None,None,None,,,,,,,2,22,female,2,2022_May_05_0909,Partial repeat,2021.2.3,59.89092634429227,
2,2,0,1,2,2,1,1,1,1,1,1,1,1,0,0,134,134,134,1,0,1,0,,,,,,,,,1178.7653959002346,None,1179.5729679986835,None,s,1,0.5412749014794827,1179.5729679986835,None,None,None,,,,,,,2,22,female,2,2022_May_05_0909,Partial repeat,2021.2.3,59.89092634429227,
2,2,0,1,2,2,1,1,1,1,1,1,1,1,0,0,134,134,134,,,,,,,,,,,,,,,,,,,,,,,,,,,,,,2,22,female,2,2022_May_05_0909,Partial repeat,2021.2.3,59.89092634429227,
2,2,0,1,2,3,1,2,1,0,0,0,0,1,0,0,135,135,135,0,0,0,0,,,,,,,1180.143630700186,None,1180.3456247989088,None,1181.35974059999,None,s,1,0.6104505006223917,1181.35974059999,None,None,None,,,,,,,2,22,female,2,2022_May_05_0909,Partial repeat,2021.2.3,59.89092634429227,
2,2,0,1,2,3,1,2,1,0,0,0,0,1,0,0,135,135,135,1,0,1,0,,,,,,,,,1181.9870571997017,None,1182.7345195990056,None,l,1,0.5956432987004519,1182.7345195990056,None,None,None,,,,,,,2,22,female,2,2022_May_05_0909,Partial repeat,2021.2.3,59.89092634429227,
2,2,0,1,2,3,1,2,1,0,0,0,0,1,0,0,135,135,135,,,,,,,,,,,,,,,,,,,,,,,,,,,,,,2,22,female,2,2022_May_05_0909,Partial repeat,2021.2.3,59.89092634429227,
2,2,0,1,2,3,1,1,1,0,0,1,0,1,0,0,136,136,136,0,0,0,0,,,,,,,1183.347069999203,None,1183.418139198795,None,1184.4168474990875,None,s,1,1.0573148000985384,1184.4168474990875,None,None,None,,,,,,,2,22,female,2,2022_May_05_0909,Partial repeat,2021.2.3,59.89092634429227,
2,2,0,1,2,3,1,1,1,0,0,1,0,1,0,0,136,136,136,1,0,1,0,,,,,,,,,1185.488984098658,None,1186.3862871993333,None,l,1,0.559893298894167,1186.3862871993333,None,None,None,,,,,,,2,22,female,2,2022_May_05_0909,Partial repeat,2021.2.3,59.89092634429227,
2,2,0,1,2,3,1,1,1,0,0,1,0,1,0,0,136,136,136,,,,,,,,,,,,,,,,,,,,,,,,,,,,,,2,22,female,2,2022_May_05_0909,Partial repeat,2021.2.3,59.89092634429227,
2,2,0,1,2,2,1,2,0,1,1,0,0,1,0,0,137,137,137,0,0,0,0,,,,,,,1186.9750686995685,None,1187.0585685987025,None,1187.9727036990225,None,l,1,0.5655359998345375,1187.9727036990225,None,None,None,,,,,,,2,22,female,2,2022_May_05_0909,Partial repeat,2021.2.3,59.89092634429227,
2,2,0,1,2,2,1,2,0,1,1,0,0,1,0,0,137,137,137,1,0,1,0,,,,,,,,,1188.558926898986,None,1189.5426578000188,None,s,1,0.6195474993437529,1189.5426578000188,None,None,None,,,,,,,2,22,female,2,2022_May_05_0909,Partial repeat,2021.2.3,59.89092634429227,
2,2,0,1,2,2,1,2,0,1,1,0,0,1,0,0,137,137,137,,,,,,,,,,,,,,,,,,,,,,,,,,,,,,2,22,female,2,2022_May_05_0909,Partial repeat,2021.2.3,59.89092634429227,
2,2,0,1,3,2,1,2,1,1,0,0,1,1,0,0,138,138,138,0,0,0,0,,,,,,,1190.1731374002993,None,1190.4152421988547,None,1191.2133821994066,None,s,1,0.5487385001033545,1191.2133821994066,None,None,None,,,,,,,2,22,female,2,2022_May_05_0909,Partial repeat,2021.2.3,59.89092634429227,
2,2,0,1,3,2,1,2,1,1,0,0,1,1,0,0,138,138,138,1,0,1,0,,,,,,,,,1191.7787854988128,None,1192.548491999507,None,s,1,0.40583720058202744,1192.548491999507,None,None,None,,,,,,,2,22,female,2,2022_May_05_0909,Partial repeat,2021.2.3,59.89092634429227,
2,2,0,1,3,2,1,2,1,1,0,0,1,1,0,0,138,138,138,,,,,,,,,,,,,,,,,,,,,,,,,,,,,,2,22,female,2,2022_May_05_0909,Partial repeat,2021.2.3,59.89092634429227,
2,2,0,1,2,3,2,1,1,1,0,0,1,1,0,0,139,139,139,0,0,0,0,,,,,,,1192.9675200991333,None,1193.1037277001888,None,1193.8682369999588,None,s,1,0.5259694997221231,1193.8682369999588,None,None,None,,,,,,,2,22,female,2,2022_May_05_0909,Partial repeat,2021.2.3,59.89092634429227,
2,2,0,1,2,3,2,1,1,1,0,0,1,1,0,0,139,139,139,1,0,1,0,,,,,,,,,1194.4126370996237,None,1195.3215477988124,None,s,1,0.48064509965479374,1195.3215477988124,None,None,None,,,,,,,2,22,female,2,2022_May_05_0909,Partial repeat,2021.2.3,59.89092634429227,
2,2,0,1,2,3,2,1,1,1,0,0,1,1,0,0,139,139,139,,,,,,,,,,,,,,,,,,,,,,,,,,,,,,2,22,female,2,2022_May_05_0909,Partial repeat,2021.2.3,59.89092634429227,
2,2,0,1,2,2,1,1,0,0,1,1,1,1,0,0,140,140,140,0,0,0,0,,,,,,,1195.8224796000868,None,1196.0094576999545,None,1196.924424700439,None,l,1,0.6937639005482197,1196.924424700439,None,None,None,,,,,,,2,22,female,2,2022_May_05_0909,Partial repeat,2021.2.3,59.89092634429227,
2,2,0,1,2,2,1,1,0,0,1,1,1,1,0,0,140,140,140,1,0,1,0,,,,,,,,,1197.6390444003046,None,1198.4600233994424,None,l,1,0.42216769978404045,1198.4600233994424,None,None,None,,,,,,,2,22,female,2,2022_May_05_0909,Partial repeat,2021.2.3,59.89092634429227,
2,2,0,1,2,2,1,1,0,0,1,1,1,1,0,0,140,140,140,,,,,,,,,,,,,,,,,,,,,,,,,,,,,,2,22,female,2,2022_May_05_0909,Partial repeat,2021.2.3,59.89092634429227,
2,2,0,1,3,2,2,1,1,1,0,0,1,1,0,0,141,141,141,0,0,0,0,,,,,,,1198.8991873003542,None,1199.1155146993697,None,1200.129980199039,None,s,1,0.5042064990848303,1200.129980199039,None,None,None,,,,,,,2,22,female,2,2022_May_05_0909,Partial repeat,2021.2.3,59.89092634429227,
2,2,0,1,3,2,2,1,1,1,0,0,1,1,0,0,141,141,141,1,0,1,0,,,,,,,,,1200.6532905995846,None,1201.5157689992338,None,s,1,0.4544181991368532,1201.5157689992338,None,None,None,,,,,,,2,22,female,2,2022_May_05_0909,Partial repeat,2021.2.3,59.89092634429227,
2,2,0,1,3,2,2,1,1,1,0,0,1,1,0,0,141,141,141,,,,,,,,,,,,,,,,,,,,,,,,,,,,,,2,22,female,2,2022_May_05_0909,Partial repeat,2021.2.3,59.89092634429227,
2,2,0,1,3,2,1,2,1,0,0,0,0,1,0,0,142,142,142,0,0,0,0,,,,,,,1201.9980765990913,None,1202.1380627993494,None,1202.9685494992882,None,s,1,0.5456020999699831,1202.9685494992882,None,None,None,,,,,,,2,22,female,2,2022_May_05_0909,Partial repeat,2021.2.3,59.89092634429227,
2,2,0,1,3,2,1,2,1,0,0,0,0,1,0,0,142,142,142,1,0,1,0,,,,,,,,,1203.5306527987123,None,1204.3043820001185,None,l,1,0.5537976995110512,1204.3043820001185,None,None,None,,,,,,,2,22,female,2,2022_May_05_0909,Partial repeat,2021.2.3,59.89092634429227,
2,2,0,1,3,2,1,2,1,0,0,0,0,1,0,0,142,142,142,,,,,,,,,,,,,,,,,,,,,,,,,,,,,,2,22,female,2,2022_May_05_0909,Partial repeat,2021.2.3,59.89092634429227,
2,2,0,1,2,3,1,1,0,0,0,1,1,1,0,0,143,143,143,0,0,0,0,,,,,,,1204.8741196990013,None,1205.0270117986947,None,1205.9743908997625,None,l,1,0.8117925003170967,1205.9743908997625,None,None,None,,,,,,,2,22,female,2,2022_May_05_0909,Partial repeat,2021.2.3,59.89092634429227,
2,2,0,1,2,3,1,1,0,0,0,1,1,1,0,0,143,143,143,1,0,1,0,,,,,,,,,1206.7997149992734,None,1207.7288460005075,None,l,1,0.5373811013996601,1207.7288460005075,None,None,None,,,,,,,2,22,female,2,2022_May_05_0909,Partial repeat,2021.2.3,59.89092634429227,
2,2,0,1,2,3,1,1,0,0,0,1,1,1,0,0,143,143,143,,,,,,,,,,,,,,,,,,,,,,,,,,,,,,2,22,female,2,2022_May_05_0909,Partial repeat,2021.2.3,59.89092634429227,
2,2,0,1,3,3,2,2,1,0,1,1,0,1,0,0,144,144,144,0,0,0,0,,,,,,,1208.2969719991088,None,1208.4336382001638,None,1209.2986915986985,None,s,1,0.5914971996098757,1209.2986915986985,None,None,None,,,,,,,2,22,female,2,2022_May_05_0909,Partial repeat,2021.2.3,59.89092634429227,
2,2,0,1,3,3,2,2,1,0,1,1,0,1,0,0,144,144,144,1,0,1,0,,,,,,,,,1209.903566999361,None,1210.6504592001438,None,l,1,0.6077252998948097,1210.6504592001438,None,None,None,,,,,,,2,22,female,2,2022_May_05_0909,Partial repeat,2021.2.3,59.89092634429227,
2,2,0,1,3,3,2,2,1,0,1,1,0,1,0,0,144,144,144,,,,,,,,,,,,,,,,,,,,,,,,,,,,,,2,22,female,2,2022_May_05_0909,Partial repeat,2021.2.3,59.89092634429227,
2,2,0,1,3,3,1,2,1,0,1,0,0,1,0,0,145,145,145,0,0,0,0,,,,,,,1211.2849482987076,None,1211.389218699187,None,1212.4034867994487,None,s,1,0.47070089913904667,1212.4034867994487,None,None,None,,,,,,,2,22,female,2,2022_May_05_0909,Partial repeat,2021.2.3,59.89092634429227,
2,2,0,1,3,3,1,2,1,0,1,0,0,1,0,0,145,145,145,1,0,1,0,,,,,,,,,1212.898995500058,None,1213.8898120000958,None,l,1,0.5204341001808643,1213.8898120000958,None,None,None,,,,,,,2,22,female,2,2022_May_05_0909,Partial repeat,2021.2.3,59.89092634429227,
2,2,0,1,3,3,1,2,1,0,1,0,0,1,0,0,145,145,145,,,,,,,,,,,,,,,,,,,,,,,,,,,,,,2,22,female,2,2022_May_05_0909,Partial repeat,2021.2.3,59.89092634429227,
2,2,0,1,3,3,2,1,0,1,1,0,0,1,0,0,146,146,146,0,0,0,0,,,,,,,1214.4395943004638,None,1214.545491900295,None,1215.4605008997023,None,l,1,0.6297348998486996,1215.4605008997023,None,None,None,,,,,,,2,22,female,2,2022_May_05_0909,Partial repeat,2021.2.3,59.89092634429227,
2,2,0,1,3,3,2,1,0,1,1,0,0,1,0,0,146,146,146,1,0,1,0,,,,,,,,,1216.110534299165,None,1217.062861699611,None,s,1,0.6832865998148918,1217.062861699611,None,None,None,,,,,,,2,22,female,2,2022_May_05_0909,Partial repeat,2021.2.3,59.89092634429227,
2,2,0,1,3,3,2,1,0,1,1,0,0,1,0,0,146,146,146,,,,,,,,,,,,,,,,,,,,,,,,,,,,,,2,22,female,2,2022_May_05_0909,Partial repeat,2021.2.3,59.89092634429227,
2,2,0,1,3,3,1,2,0,1,1,0,0,1,0,0,147,147,147,0,0,0,0,,,,,,,1217.7607844993472,None,1218.0690461993217,None,1219.0000294987112,None,l,1,0.49027949944138527,1219.0000294987112,None,None,None,,,,,,,2,22,female,2,2022_May_05_0909,Partial repeat,2021.2.3,59.89092634429227,
2,2,0,1,3,3,1,2,0,1,1,0,0,1,0,0,147,147,147,1,0,1,0,,,,,,,,,1219.4998241998255,None,1220.3359765000641,None,s,1,0.5461472012102604,1220.3359765000641,None,None,None,,,,,,,2,22,female,2,2022_May_05_0909,Partial repeat,2021.2.3,59.89092634429227,
2,2,0,1,3,3,1,2,0,1,1,0,0,1,0,0,147,147,147,,,,,,,,,,,,,,,,,,,,,,,,,,,,,,2,22,female,2,2022_May_05_0909,Partial repeat,2021.2.3,59.89092634429227,
2,2,0,1,3,3,1,2,0,0,1,0,1,1,0,0,148,148,148,0,0,0,0,,,,,,,1220.9068056996912,None,1221.074901599437,None,1222.0734819993377,None,l,1,0.4807041008025408,1222.0734819993377,None,None,None,,,,,,,2,22,female,2,2022_May_05_0909,Partial repeat,2021.2.3,59.89092634429227,
2,2,0,1,3,3,1,2,0,0,1,0,1,1,0,0,148,148,148,1,0,1,0,,,,,,,,,1222.5727149993181,None,1223.5755116995424,None,l,1,0.6026769001036882,1223.5755116995424,None,None,None,,,,,,,2,22,female,2,2022_May_05_0909,Partial repeat,2021.2.3,59.89092634429227,
2,2,0,1,3,3,1,2,0,0,1,0,1,1,0,0,148,148,148,,,,,,,,,,,,,,,,,,,,,,,,,,,,,,2,22,female,2,2022_May_05_0909,Partial repeat,2021.2.3,59.89092634429227,
2,2,0,1,2,2,1,1,0,1,1,1,0,1,0,0,149,149,149,0,0,0,0,,,,,,,1224.2077465988696,None,1224.8823127988726,None,1225.8296873997897,None,l,1,0.5884990002959967,1225.8296873997897,None,None,None,,,,,,,2,22,female,2,2022_May_05_0909,Partial repeat,2021.2.3,59.89092634429227,
2,2,0,1,2,2,1,1,0,1,1,1,0,1,0,0,149,149,149,1,0,1,0,,,,,,,,,1226.4375016987324,None,1227.2324340995401,None,s,1,0.6337933000177145,1227.2324340995401,None,None,None,,,,,,,2,22,female,2,2022_May_05_0909,Partial repeat,2021.2.3,59.89092634429227,
2,2,0,1,2,2,1,1,0,1,1,1,0,1,0,0,149,149,149,,,,,,,,,,,,,,,,,,,,,,,,,,,,,,2,22,female,2,2022_May_05_0909,Partial repeat,2021.2.3,59.89092634429227,
2,2,0,1,3,3,2,2,0,1,1,1,0,1,0,0,150,150,150,0,0,0,0,,,,,,,1227.889731599018,None,1228.305581400171,None,1229.0693212989718,None,l,1,0.7088897004723549,1229.0693212989718,None,None,None,,,,,,,2,22,female,2,2022_May_05_0909,Partial repeat,2021.2.3,59.89092634429227,
2,2,0,1,3,3,2,2,0,1,1,1,0,1,0,0,150,150,150,1,0,1,0,,,,,,,,,1229.7861458994448,None,1230.8061250001192,None,s,1,0.5320216994732618,1230.8061250001192,None,None,None,,,,,,,2,22,female,2,2022_May_05_0909,Partial repeat,2021.2.3,59.89092634429227,
2,2,0,1,3,3,2,2,0,1,1,1,0,1,0,0,150,150,150,,,,,,,,,,,,,,,,,,,,,,,,,,,,,,2,22,female,2,2022_May_05_0909,Partial repeat,2021.2.3,59.89092634429227,
2,2,0,1,2,2,1,2,1,0,1,0,0,1,0,0,151,151,151,0,0,0,0,,,,,,,1231.3595630992204,None,1231.5619715992361,None,1232.492928000167,None,s,1,0.6692383997142315,1232.492928000167,None,None,None,,,,,,,2,22,female,2,2022_May_05_0909,Partial repeat,2021.2.3,59.89092634429227,
2,2,0,1,2,2,1,2,1,0,1,0,0,1,0,0,151,151,151,1,0,1,0,,,,,,,,,1233.1855577994138,None,1233.9454611986876,None,l,1,0.6407995000481606,1233.9454611986876,None,None,None,,,,,,,2,22,female,2,2022_May_05_0909,Partial repeat,2021.2.3,59.89092634429227,
2,2,0,1,2,2,1,2,1,0,1,0,0,1,0,0,151,151,151,,,,,,,,,,,,,,,,,,,,,,,,,,,,,,2,22,female,2,2022_May_05_0909,Partial repeat,2021.2.3,59.89092634429227,
