prime_tar_pos,probe_tar_pos,dimension,tar_color,prime_dist_color,probe_dist_color,prime_dist_shape,probe_dist_shape,prime_tar_dot_pos,probe_tar_dot_pos,col_rep,shape_rep,resp_rep,pos_fixed,sparse,MainLoop.thisRepN,MainLoop.thisTrialN,MainLoop.thisN,MainLoop.thisIndex,PrimeProbe.thisRepN,PrimeProbe.thisTrialN,PrimeProbe.thisN,PrimeProbe.thisIndex,Instruction.started,Instruction.stopped,instruction_key.keys,instruction_key.rt,instruction_key.started,instruction_key.stopped,PairStartText.started,PairStartText.stopped,FixCross.started,FixCross.stopped,SearchFixCross.started,SearchFixCross.stopped,key_resp.keys,key_resp.corr,key_resp.rt,key_resp.started,key_resp.stopped,feedback_text.started,feedback_text.stopped,text_finish.started,text_finish.stopped,finish_key.keys,finish_key.rt,finish_key.started,finish_key.stopped,participant,age,gender,group,date,expName,psychopyVersion,frameRate,
,,,,,,,,,,,,,,,,,,,,,,,225.09267660044134,None,space,83.8893125988543,225.09267660044134,None,,,,,,,,,,,,,,,,,,,,3,19,female,3,2022_May_05_1022,Partial repeat,2021.2.3,59.79151887584874,
8,1,0,1,3,2,2,1,1,0,0,0,0,0,0,0,0,0,0,0,0,0,0,,,,,,,309.13079180009663,None,315.4276398010552,None,316.41235909983516,None,l,1,2.961479200050235,316.41235909983516,None,None,None,,,,,,,3,19,female,3,2022_May_05_1022,Partial repeat,2021.2.3,59.79151887584874,
8,1,0,1,3,2,2,1,1,0,0,0,0,0,0,0,0,0,0,1,0,1,0,,,,,,,,,319.4040256012231,None,320.2143945004791,None,s,1,1.5434742998331785,320.2143945004791,None,None,None,,,,,,,3,19,female,3,2022_May_05_1022,Partial repeat,2021.2.3,59.79151887584874,
8,1,0,1,3,2,2,1,1,0,0,0,0,0,0,0,0,0,0,,,,,,,,,,,,,,,,,,,,,,,,,,,,,,3,19,female,3,2022_May_05_1022,Partial repeat,2021.2.3,59.79151887584874,
5,8,0,1,3,3,2,1,1,1,1,0,1,0,0,0,1,1,1,0,0,0,0,,,,,,,321.78843280114233,None,324.49359299987555,None,325.20873939991,None,l,1,1.557023499161005,325.20873939991,None,None,None,,,,,,,3,19,female,3,2022_May_05_1022,Partial repeat,2021.2.3,59.79151887584874,
5,8,0,1,3,3,2,1,1,1,1,0,1,0,0,0,1,1,1,1,0,1,0,,,,,,,,,326.78754490055144,None,327.74708059988916,None,l,1,1.226690599694848,327.74708059988916,None,None,None,,,,,,,3,19,female,3,2022_May_05_1022,Partial repeat,2021.2.3,59.79151887584874,
5,8,0,1,3,3,2,1,1,1,1,0,1,0,0,0,1,1,1,,,,,,,,,,,,,,,,,,,,,,,,,,,,,,3,19,female,3,2022_May_05_1022,Partial repeat,2021.2.3,59.79151887584874,
8,7,0,1,3,2,1,1,1,1,0,1,1,0,0,0,2,2,2,0,0,0,0,,,,,,,328.9958455003798,None,331.3234841004014,None,332.2055558003485,None,l,1,1.2242707014083862,332.2055558003485,None,None,None,,,,,,,3,19,female,3,2022_May_05_1022,Partial repeat,2021.2.3,59.79151887584874,
8,7,0,1,3,2,1,1,1,1,0,1,1,0,0,0,2,2,2,1,0,1,0,,,,,,,,,333.44133410044014,None,334.27538560144603,None,l,1,0.9784500002861023,334.27538560144603,None,None,None,,,,,,,3,19,female,3,2022_May_05_1022,Partial repeat,2021.2.3,59.79151887584874,
8,7,0,1,3,2,1,1,1,1,0,1,1,0,0,0,2,2,2,,,,,,,,,,,,,,,,,,,,,,,,,,,,,,3,19,female,3,2022_May_05_1022,Partial repeat,2021.2.3,59.79151887584874,
8,6,0,1,3,2,1,1,0,1,0,1,0,0,0,0,3,3,3,0,0,0,0,,,,,,,335.2832802012563,None,338.92190320044756,None,339.9366307016462,None,s,1,0.9971603993326426,339.9366307016462,None,None,None,,,,,,,3,19,female,3,2022_May_05_1022,Partial repeat,2021.2.3,59.79151887584874,
8,6,0,1,3,2,1,1,0,1,0,1,0,0,0,0,3,3,3,1,0,1,0,,,,,,,,,340.94231890141964,None,341.9584698006511,None,l,1,1.303320599719882,341.9584698006511,None,None,None,,,,,,,3,19,female,3,2022_May_05_1022,Partial repeat,2021.2.3,59.79151887584874,
8,6,0,1,3,2,1,1,0,1,0,1,0,0,0,0,3,3,3,,,,,,,,,,,,,,,,,,,,,,,,,,,,,,3,19,female,3,2022_May_05_1022,Partial repeat,2021.2.3,59.79151887584874,
1,3,0,1,2,3,2,2,1,1,0,1,1,0,0,0,4,4,4,0,0,0,0,,,,,,,343.2770488001406,None,345.2840567007661,None,346.24851710163057,None,l,1,1.2213151007890701,346.24851710163057,None,None,None,,,,,,,3,19,female,3,2022_May_05_1022,Partial repeat,2021.2.3,59.79151887584874,
1,3,0,1,2,3,2,2,1,1,0,1,1,0,0,0,4,4,4,1,0,1,0,,,,,,,,,347.4877129010856,None,348.26895880140364,None,l,1,1.5608462989330292,348.26895880140364,None,None,None,,,,,,,3,19,female,3,2022_May_05_1022,Partial repeat,2021.2.3,59.79151887584874,
1,3,0,1,2,3,2,2,1,1,0,1,1,0,0,0,4,4,4,,,,,,,,,,,,,,,,,,,,,,,,,,,,,,3,19,female,3,2022_May_05_1022,Partial repeat,2021.2.3,59.79151887584874,
5,1,0,1,2,2,2,1,1,0,1,0,0,0,0,0,5,5,5,0,0,0,0,,,,,,,349.85363529995084,None,351.4460533000529,None,352.3773212004453,None,l,1,0.9485040996223688,352.3773212004453,None,None,None,,,,,,,3,19,female,3,2022_May_05_1022,Partial repeat,2021.2.3,59.79151887584874,
5,1,0,1,2,2,2,1,1,0,1,0,0,0,0,0,5,5,5,1,0,1,0,,,,,,,,,353.34133310057223,None,354.2315509002656,None,s,1,1.1422685999423265,354.2315509002656,None,None,None,,,,,,,3,19,female,3,2022_May_05_1022,Partial repeat,2021.2.3,59.79151887584874,
5,1,0,1,2,2,2,1,1,0,1,0,0,0,0,0,5,5,5,,,,,,,,,,,,,,,,,,,,,,,,,,,,,,3,19,female,3,2022_May_05_1022,Partial repeat,2021.2.3,59.79151887584874,
6,7,0,1,2,3,1,2,0,1,0,0,0,0,0,0,6,6,6,0,0,0,0,,,,,,,355.39652210101485,None,357.3241552002728,None,358.1387482006103,None,s,1,0.963078098371625,358.1387482006103,None,None,None,,,,,,,3,19,female,3,2022_May_05_1022,Partial repeat,2021.2.3,59.79151887584874,
6,7,0,1,2,3,1,2,0,1,0,0,0,0,0,0,6,6,6,1,0,1,0,,,,,,,,,359.11986410059035,None,359.99208020046353,None,l,1,1.061745399609208,359.99208020046353,None,None,None,,,,,,,3,19,female,3,2022_May_05_1022,Partial repeat,2021.2.3,59.79151887584874,
6,7,0,1,2,3,1,2,0,1,0,0,0,0,0,0,6,6,6,,,,,,,,,,,,,,,,,,,,,,,,,,,,,,3,19,female,3,2022_May_05_1022,Partial repeat,2021.2.3,59.79151887584874,
8,5,0,1,2,2,1,1,1,0,1,1,0,0,0,0,7,7,7,0,0,0,0,,,,,,,361.0707445014268,None,363.3191641010344,None,364.16772400029004,None,l,1,0.7901840005069971,364.16772400029004,None,None,None,,,,,,,3,19,female,3,2022_May_05_1022,Partial repeat,2021.2.3,59.79151887584874,
8,5,0,1,2,2,1,1,1,0,1,1,0,0,0,0,7,7,7,1,0,1,0,,,,,,,,,364.9686684012413,None,365.7699595000595,None,s,1,0.8278730995953083,365.7699595000595,None,None,None,,,,,,,3,19,female,3,2022_May_05_1022,Partial repeat,2021.2.3,59.79151887584874,
8,5,0,1,2,2,1,1,1,0,1,1,0,0,0,0,7,7,7,,,,,,,,,,,,,,,,,,,,,,,,,,,,,,3,19,female,3,2022_May_05_1022,Partial repeat,2021.2.3,59.79151887584874,
7,7,0,1,3,3,1,2,1,1,1,0,1,0,0,0,8,8,8,0,0,0,0,,,,,,,366.6135048009455,None,368.02829500101507,None,368.81000290066004,None,l,1,0.6518212016671896,368.81000290066004,None,None,None,,,,,,,3,19,female,3,2022_May_05_1022,Partial repeat,2021.2.3,59.79151887584874,
7,7,0,1,3,3,1,2,1,1,1,0,1,0,0,0,8,8,8,1,0,1,0,,,,,,,,,369.4821677003056,None,370.2467861007899,None,l,1,0.6150598004460335,370.2467861007899,None,None,None,,,,,,,3,19,female,3,2022_May_05_1022,Partial repeat,2021.2.3,59.79151887584874,
7,7,0,1,3,3,1,2,1,1,1,0,1,0,0,0,8,8,8,,,,,,,,,,,,,,,,,,,,,,,,,,,,,,3,19,female,3,2022_May_05_1022,Partial repeat,2021.2.3,59.79151887584874,
3,1,0,1,2,3,1,2,0,0,0,0,1,0,0,0,9,9,9,0,0,0,0,,,,,,,370.8788218013942,None,374.2069915011525,None,375.15628929995,None,s,1,1.0015484001487494,375.15628929995,None,None,None,,,,,,,3,19,female,3,2022_May_05_1022,Partial repeat,2021.2.3,59.79151887584874,
3,1,0,1,2,3,1,2,0,0,0,0,1,0,0,0,9,9,9,1,0,1,0,,,,,,,,,376.1665844004601,None,377.041665000841,None,s,1,0.9961478002369404,377.041665000841,None,None,None,,,,,,,3,19,female,3,2022_May_05_1022,Partial repeat,2021.2.3,59.79151887584874,
3,1,0,1,2,3,1,2,0,0,0,0,1,0,0,0,9,9,9,,,,,,,,,,,,,,,,,,,,,,,,,,,,,,3,19,female,3,2022_May_05_1022,Partial repeat,2021.2.3,59.79151887584874,
1,2,0,1,2,3,2,1,0,0,0,0,1,0,0,0,10,10,10,0,0,0,0,,,,,,,378.0639100000262,None,379.31693590059876,None,380.3323290999979,None,s,1,0.7775717992335558,380.3323290999979,None,None,None,,,,,,,3,19,female,3,2022_May_05_1022,Partial repeat,2021.2.3,59.79151887584874,
1,2,0,1,2,3,2,1,0,0,0,0,1,0,0,0,10,10,10,1,0,1,0,,,,,,,,,381.1202667001635,None,382.0347275007516,None,s,1,0.5790985003113747,382.0347275007516,None,None,None,,,,,,,3,19,female,3,2022_May_05_1022,Partial repeat,2021.2.3,59.79151887584874,
1,2,0,1,2,3,2,1,0,0,0,0,1,0,0,0,10,10,10,,,,,,,,,,,,,,,,,,,,,,,,,,,,,,3,19,female,3,2022_May_05_1022,Partial repeat,2021.2.3,59.79151887584874,
3,7,0,1,3,2,1,2,1,0,0,0,0,0,0,0,11,11,11,0,0,0,0,,,,,,,382.64501320011914,None,383.9929579999298,None,384.8743070010096,None,l,1,0.7955153994262218,384.8743070010096,None,None,None,,,,,,,3,19,female,3,2022_May_05_1022,Partial repeat,2021.2.3,59.79151887584874,
3,7,0,1,3,2,1,2,1,0,0,0,0,0,0,0,11,11,11,1,0,1,0,,,,,,,,,385.69386340118945,None,386.5267469007522,None,s,1,0.975110799074173,386.5267469007522,None,None,None,,,,,,,3,19,female,3,2022_May_05_1022,Partial repeat,2021.2.3,59.79151887584874,
3,7,0,1,3,2,1,2,1,0,0,0,0,0,0,0,11,11,11,,,,,,,,,,,,,,,,,,,,,,,,,,,,,,3,19,female,3,2022_May_05_1022,Partial repeat,2021.2.3,59.79151887584874,
1,7,0,1,3,3,1,1,0,0,1,1,1,0,0,0,12,12,12,0,0,0,0,,,,,,,387.5215640999377,None,389.2696679010987,None,390.218207500875,None,s,1,1.5156120005995035,390.218207500875,None,None,None,,,,,,,3,19,female,3,2022_May_05_1022,Partial repeat,2021.2.3,59.79151887584874,
1,7,0,1,3,3,1,1,0,0,1,1,1,0,0,0,12,12,12,1,0,1,0,,,,,,,,,391.74849160015583,None,392.72246830165386,None,s,1,0.7714224997907877,392.72246830165386,None,None,None,,,,,,,3,19,female,3,2022_May_05_1022,Partial repeat,2021.2.3,59.79151887584874,
1,7,0,1,3,3,1,1,0,0,1,1,1,0,0,0,12,12,12,,,,,,,,,,,,,,,,,,,,,,,,,,,,,,3,19,female,3,2022_May_05_1022,Partial repeat,2021.2.3,59.79151887584874,
5,6,0,1,3,3,1,2,0,1,1,0,0,0,0,0,13,13,13,0,0,0,0,,,,,,,393.5043744016439,None,395.49842560105026,None,396.4629140011966,None,s,1,1.0149007998406887,396.4629140011966,None,None,None,,,,,,,3,19,female,3,2022_May_05_1022,Partial repeat,2021.2.3,59.79151887584874,
5,6,0,1,3,3,1,2,0,1,1,0,0,0,0,0,13,13,13,1,0,1,0,,,,,,,,,397.49327789992094,None,398.2672839015722,None,l,1,0.858491400256753,398.2672839015722,None,None,None,,,,,,,3,19,female,3,2022_May_05_1022,Partial repeat,2021.2.3,59.79151887584874,
5,6,0,1,3,3,1,2,0,1,1,0,0,0,0,0,13,13,13,,,,,,,,,,,,,,,,,,,,,,,,,,,,,,3,19,female,3,2022_May_05_1022,Partial repeat,2021.2.3,59.79151887584874,
6,2,0,1,3,2,2,1,0,0,0,0,1,0,0,0,14,14,14,0,0,0,0,,,,,,,399.1372758001089,None,400.7586615998298,None,401.6577989012003,None,s,1,0.9720222987234592,401.6577989012003,None,None,None,,,,,,,3,19,female,3,2022_May_05_1022,Partial repeat,2021.2.3,59.79151887584874,
6,2,0,1,3,2,2,1,0,0,0,0,1,0,0,0,14,14,14,1,0,1,0,,,,,,,,,402.6443656012416,None,403.4260984007269,None,s,1,0.9556796997785568,403.4260984007269,None,None,None,,,,,,,3,19,female,3,2022_May_05_1022,Partial repeat,2021.2.3,59.79151887584874,
6,2,0,1,3,2,2,1,0,0,0,0,1,0,0,0,14,14,14,,,,,,,,,,,,,,,,,,,,,,,,,,,,,,3,19,female,3,2022_May_05_1022,Partial repeat,2021.2.3,59.79151887584874,
7,6,0,1,2,3,1,1,0,0,0,1,1,0,0,0,15,15,15,0,0,0,0,,,,,,,404.41135400161147,None,408.02279030159116,None,408.97044599987566,None,s,1,0.7393791992217302,408.97044599987566,None,None,None,,,,,,,3,19,female,3,2022_May_05_1022,Partial repeat,2021.2.3,59.79151887584874,
7,6,0,1,2,3,1,1,0,0,0,1,1,0,0,0,15,15,15,1,0,1,0,,,,,,,,,409.7242984008044,None,410.52444300055504,None,s,1,0.793376300483942,410.52444300055504,None,None,None,,,,,,,3,19,female,3,2022_May_05_1022,Partial repeat,2021.2.3,59.79151887584874,
7,6,0,1,2,3,1,1,0,0,0,1,1,0,0,0,15,15,15,,,,,,,,,,,,,,,,,,,,,,,,,,,,,,3,19,female,3,2022_May_05_1022,Partial repeat,2021.2.3,59.79151887584874,
4,1,0,1,3,3,1,1,1,1,1,1,1,0,0,0,16,16,16,0,0,0,0,,,,,,,411.3467974010855,None,414.35177690163255,None,415.3171522002667,None,l,1,0.896687800064683,415.3171522002667,None,None,None,,,,,,,3,19,female,3,2022_May_05_1022,Partial repeat,2021.2.3,59.79151887584874,
4,1,0,1,3,3,1,1,1,1,1,1,1,0,0,0,16,16,16,1,0,1,0,,,,,,,,,416.2256895005703,None,416.95328900031745,None,l,1,0.9006156995892525,416.95328900031745,None,None,None,,,,,,,3,19,female,3,2022_May_05_1022,Partial repeat,2021.2.3,59.79151887584874,
4,1,0,1,3,3,1,1,1,1,1,1,1,0,0,0,16,16,16,,,,,,,,,,,,,,,,,,,,,,,,,,,,,,3,19,female,3,2022_May_05_1022,Partial repeat,2021.2.3,59.79151887584874,
4,5,0,1,3,2,2,1,1,1,0,0,1,0,0,0,17,17,17,0,0,0,0,,,,,,,417.8654652014375,None,419.4285887014121,None,420.17663929983974,None,l,1,0.7491398993879557,420.17663929983974,None,None,None,,,,,,,3,19,female,3,2022_May_05_1022,Partial repeat,2021.2.3,59.79151887584874,
4,5,0,1,3,2,2,1,1,1,0,0,1,0,0,0,17,17,17,1,0,1,0,,,,,,,,,420.9547701012343,None,421.8288558013737,None,l,1,0.9369719997048378,421.8288558013737,None,None,None,,,,,,,3,19,female,3,2022_May_05_1022,Partial repeat,2021.2.3,59.79151887584874,
4,5,0,1,3,2,2,1,1,1,0,0,1,0,0,0,17,17,17,,,,,,,,,,,,,,,,,,,,,,,,,,,,,,3,19,female,3,2022_May_05_1022,Partial repeat,2021.2.3,59.79151887584874,
7,1,0,1,2,2,1,2,0,1,1,0,0,0,0,0,18,18,18,0,0,0,0,,,,,,,422.7931961007416,None,425.27303520031273,None,426.0534196998924,None,s,1,0.8484052997082472,426.0534196998924,None,None,None,,,,,,,3,19,female,3,2022_May_05_1022,Partial repeat,2021.2.3,59.79151887584874,
7,1,0,1,2,2,1,2,0,1,1,0,0,0,0,0,18,18,18,1,0,1,0,,,,,,,,,426.9144651014358,None,427.8741232007742,None,l,1,1.979679198935628,427.8741232007742,None,None,None,,,,,,,3,19,female,3,2022_May_05_1022,Partial repeat,2021.2.3,59.79151887584874,
7,1,0,1,2,2,1,2,0,1,1,0,0,0,0,0,18,18,18,,,,,,,,,,,,,,,,,,,,,,,,,,,,,,3,19,female,3,2022_May_05_1022,Partial repeat,2021.2.3,59.79151887584874,
8,4,0,1,3,2,2,2,1,0,0,1,0,0,0,0,19,19,19,0,0,0,0,,,,,,,429.8739378005266,None,431.5853387005627,None,432.5506875999272,None,l,1,0.8231107983738184,432.5506875999272,None,None,None,,,,,,,3,19,female,3,2022_May_05_1022,Partial repeat,2021.2.3,59.79151887584874,
8,4,0,1,3,2,2,2,1,0,0,1,0,0,0,0,19,19,19,1,0,1,0,,,,,,,,,433.3878423012793,None,434.2540314011276,None,s,1,1.2078577000647783,434.2540314011276,None,None,None,,,,,,,3,19,female,3,2022_May_05_1022,Partial repeat,2021.2.3,59.79151887584874,
8,4,0,1,3,2,2,2,1,0,0,1,0,0,0,0,19,19,19,,,,,,,,,,,,,,,,,,,,,,,,,,,,,,3,19,female,3,2022_May_05_1022,Partial repeat,2021.2.3,59.79151887584874,
6,1,0,1,3,3,2,1,0,1,1,0,0,0,0,0,20,20,20,0,0,0,0,,,,,,,435.4741175007075,None,437.24634050019085,None,438.0280181001872,None,s,1,1.0178552009165287,438.0280181001872,None,None,None,,,,,,,3,19,female,3,2022_May_05_1022,Partial repeat,2021.2.3,59.79151887584874,
6,1,0,1,3,3,2,1,0,1,1,0,0,0,0,0,20,20,20,1,0,1,0,,,,,,,,,439.0734115000814,None,439.8826277013868,None,l,1,1.4191994983702898,439.8826277013868,None,None,None,,,,,,,3,19,female,3,2022_May_05_1022,Partial repeat,2021.2.3,59.79151887584874,
6,1,0,1,3,3,2,1,0,1,1,0,0,0,0,0,20,20,20,,,,,,,,,,,,,,,,,,,,,,,,,,,,,,3,19,female,3,2022_May_05_1022,Partial repeat,2021.2.3,59.79151887584874,
1,6,0,1,2,2,2,1,1,1,1,0,1,0,0,0,21,21,21,0,0,0,0,,,,,,,441.32548490166664,None,443.52543580159545,None,444.3244799003005,None,l,1,0.9613292999565601,444.3244799003005,None,None,None,,,,,,,3,19,female,3,2022_May_05_1022,Partial repeat,2021.2.3,59.79151887584874,
1,6,0,1,2,2,2,1,1,1,1,0,1,0,0,0,21,21,21,1,0,1,0,,,,,,,,,445.3067940007895,None,446.2771330010146,None,l,1,0.9366768002510071,446.2771330010146,None,None,None,,,,,,,3,19,female,3,2022_May_05_1022,Partial repeat,2021.2.3,59.79151887584874,
1,6,0,1,2,2,2,1,1,1,1,0,1,0,0,0,21,21,21,,,,,,,,,,,,,,,,,,,,,,,,,,,,,,3,19,female,3,2022_May_05_1022,Partial repeat,2021.2.3,59.79151887584874,
7,4,0,1,3,3,1,1,1,0,1,1,0,0,0,0,22,22,22,0,0,0,0,,,,,,,447.2297214008868,None,448.61844890005887,None,449.5503893010318,None,l,1,0.8234714008867741,449.5503893010318,None,None,None,,,,,,,3,19,female,3,2022_May_05_1022,Partial repeat,2021.2.3,59.79151887584874,
7,4,0,1,3,3,1,1,1,0,1,1,0,0,0,0,22,22,22,1,0,1,0,,,,,,,,,450.38626269996166,None,451.21925500035286,None,s,1,1.354568799957633,451.21925500035286,None,None,None,,,,,,,3,19,female,3,2022_May_05_1022,Partial repeat,2021.2.3,59.79151887584874,
7,4,0,1,3,3,1,1,1,0,1,1,0,0,0,0,22,22,22,,,,,,,,,,,,,,,,,,,,,,,,,,,,,,3,19,female,3,2022_May_05_1022,Partial repeat,2021.2.3,59.79151887584874,
7,3,0,1,2,3,1,1,1,0,0,1,0,0,0,0,23,23,23,0,0,0,0,,,,,,,452.5893568005413,None,453.9958396013826,None,454.82716480083764,None,l,1,0.7946544010192156,454.82716480083764,None,None,None,,,,,,,3,19,female,3,2022_May_05_1022,Partial repeat,2021.2.3,59.79151887584874,
7,3,0,1,2,3,1,1,1,0,0,1,0,0,0,0,23,23,23,1,0,1,0,,,,,,,,,455.64281050115824,None,456.3793207015842,None,s,1,1.5464634988456964,456.3793207015842,None,None,None,,,,,,,3,19,female,3,2022_May_05_1022,Partial repeat,2021.2.3,59.79151887584874,
7,3,0,1,2,3,1,1,1,0,0,1,0,0,0,0,23,23,23,,,,,,,,,,,,,,,,,,,,,,,,,,,,,,3,19,female,3,2022_May_05_1022,Partial repeat,2021.2.3,59.79151887584874,
6,4,0,1,2,3,2,1,1,0,0,0,0,0,0,0,24,24,24,0,0,0,0,,,,,,,457.9450692012906,None,459.65661749988794,None,460.50483410060406,None,l,1,0.7329930011183023,460.50483410060406,None,None,None,,,,,,,3,19,female,3,2022_May_05_1022,Partial repeat,2021.2.3,59.79151887584874,
6,4,0,1,2,3,2,1,1,0,0,0,0,0,0,0,24,24,24,1,0,1,0,,,,,,,,,461.256099300459,None,461.99123620055616,None,s,1,1.294599099084735,461.99123620055616,None,None,None,,,,,,,3,19,female,3,2022_May_05_1022,Partial repeat,2021.2.3,59.79151887584874,
6,4,0,1,2,3,2,1,1,0,0,0,0,0,0,0,24,24,24,,,,,,,,,,,,,,,,,,,,,,,,,,,,,,3,19,female,3,2022_May_05_1022,Partial repeat,2021.2.3,59.79151887584874,
5,2,0,1,3,3,2,1,1,0,1,0,0,0,0,0,25,25,25,0,0,0,0,,,,,,,463.30969469994307,None,464.9003455005586,None,465.88108270056546,None,l,1,0.8927224986255169,465.88108270056546,None,None,None,,,,,,,3,19,female,3,2022_May_05_1022,Partial repeat,2021.2.3,59.79151887584874,
5,2,0,1,3,3,2,1,1,0,1,0,0,0,0,0,25,25,25,1,0,1,0,,,,,,,,,466.8025163002312,None,467.68495910055935,None,s,1,1.0489602014422417,467.68495910055935,None,None,None,,,,,,,3,19,female,3,2022_May_05_1022,Partial repeat,2021.2.3,59.79151887584874,
5,2,0,1,3,3,2,1,1,0,1,0,0,0,0,0,25,25,25,,,,,,,,,,,,,,,,,,,,,,,,,,,,,,3,19,female,3,2022_May_05_1022,Partial repeat,2021.2.3,59.79151887584874,
3,8,0,1,3,3,2,2,0,1,1,1,0,0,0,0,26,26,26,0,0,0,0,,,,,,,468.7466470003128,None,470.32734080031514,None,471.2593908999115,None,s,1,2.5303958002477884,471.2593908999115,None,None,None,,,,,,,3,19,female,3,2022_May_05_1022,Partial repeat,2021.2.3,59.79151887584874,
3,8,0,1,3,3,2,2,0,1,1,1,0,0,0,0,26,26,26,1,0,1,0,,,,,,,,,473.798361601308,None,474.7985435016453,None,l,1,1.0552870985120535,474.7985435016453,None,None,None,,,,,,,3,19,female,3,2022_May_05_1022,Partial repeat,2021.2.3,59.79151887584874,
3,8,0,1,3,3,2,2,0,1,1,1,0,0,0,0,26,26,26,,,,,,,,,,,,,,,,,,,,,,,,,,,,,,3,19,female,3,2022_May_05_1022,Partial repeat,2021.2.3,59.79151887584874,
2,3,0,1,3,2,1,1,0,0,0,1,1,0,0,0,27,27,27,0,0,0,0,,,,,,,475.88551590032876,None,477.4078112002462,None,478.20648830011487,None,s,1,0.8634034991264343,478.20648830011487,None,None,None,,,,,,,3,19,female,3,2022_May_05_1022,Partial repeat,2021.2.3,59.79151887584874,
2,3,0,1,3,2,1,1,0,0,0,1,1,0,0,0,27,27,27,1,0,1,0,,,,,,,,,479.08772320114076,None,479.8584131002426,None,s,1,0.8434218987822533,479.8584131002426,None,None,None,,,,,,,3,19,female,3,2022_May_05_1022,Partial repeat,2021.2.3,59.79151887584874,
2,3,0,1,3,2,1,1,0,0,0,1,1,0,0,0,27,27,27,,,,,,,,,,,,,,,,,,,,,,,,,,,,,,3,19,female,3,2022_May_05_1022,Partial repeat,2021.2.3,59.79151887584874,
8,8,0,1,2,2,2,2,0,0,1,1,1,0,0,0,28,28,28,0,0,0,0,,,,,,,480.7289321999997,None,482.40113330073655,None,483.2501149009913,None,s,1,0.8676855005323887,483.2501149009913,None,None,None,,,,,,,3,19,female,3,2022_May_05_1022,Partial repeat,2021.2.3,59.79151887584874,
8,8,0,1,2,2,2,2,0,0,1,1,1,0,0,0,28,28,28,1,0,1,0,,,,,,,,,484.13043120130897,None,484.98659600131214,None,s,1,0.7872280012816191,484.98659600131214,None,None,None,,,,,,,3,19,female,3,2022_May_05_1022,Partial repeat,2021.2.3,59.79151887584874,
8,8,0,1,2,2,2,2,0,0,1,1,1,0,0,0,28,28,28,,,,,,,,,,,,,,,,,,,,,,,,,,,,,,3,19,female,3,2022_May_05_1022,Partial repeat,2021.2.3,59.79151887584874,
3,5,0,1,3,3,2,2,1,1,1,1,1,0,0,0,29,29,29,0,0,0,0,,,,,,,485.7885835003108,None,488.04517449997365,None,488.82710470072925,None,l,1,0.8267050012946129,488.82710470072925,None,None,None,,,,,,,3,19,female,3,2022_May_05_1022,Partial repeat,2021.2.3,59.79151887584874,
3,5,0,1,3,3,2,2,1,1,1,1,1,0,0,0,29,29,29,1,0,1,0,,,,,,,,,489.6814174000174,None,490.58102140016854,None,l,1,0.9367592986673117,490.58102140016854,None,None,None,,,,,,,3,19,female,3,2022_May_05_1022,Partial repeat,2021.2.3,59.79151887584874,
3,5,0,1,3,3,2,2,1,1,1,1,1,0,0,0,29,29,29,,,,,,,,,,,,,,,,,,,,,,,,,,,,,,3,19,female,3,2022_May_05_1022,Partial repeat,2021.2.3,59.79151887584874,
7,8,0,1,2,2,2,2,1,0,1,1,0,0,0,0,30,30,30,0,0,0,0,,,,,,,491.53623060137033,None,493.2386167999357,None,494.087410800159,None,l,1,0.7184130009263754,494.087410800159,None,None,None,,,,,,,3,19,female,3,2022_May_05_1022,Partial repeat,2021.2.3,59.79151887584874,
7,8,0,1,2,2,2,2,1,0,1,1,0,0,0,0,30,30,30,1,0,1,0,,,,,,,,,494.8196534998715,None,495.7060697004199,None,s,1,0.9158263988792896,495.7060697004199,None,None,None,,,,,,,3,19,female,3,2022_May_05_1022,Partial repeat,2021.2.3,59.79151887584874,
7,8,0,1,2,2,2,2,1,0,1,1,0,0,0,0,30,30,30,,,,,,,,,,,,,,,,,,,,,,,,,,,,,,3,19,female,3,2022_May_05_1022,Partial repeat,2021.2.3,59.79151887584874,
2,2,0,1,3,2,1,2,0,0,0,0,1,0,0,0,31,31,31,0,0,0,0,,,,,,,496.63517980091274,None,498.61574110016227,None,499.6313035003841,None,s,1,0.6704796012490988,499.6313035003841,None,None,None,,,,,,,3,19,female,3,2022_May_05_1022,Partial repeat,2021.2.3,59.79151887584874,
2,2,0,1,3,2,1,2,0,0,0,0,1,0,0,0,31,31,31,1,0,1,0,,,,,,,,,500.3242500014603,None,501.2338471002877,None,s,1,0.9319410007447004,501.2338471002877,None,None,None,,,,,,,3,19,female,3,2022_May_05_1022,Partial repeat,2021.2.3,59.79151887584874,
2,2,0,1,3,2,1,2,0,0,0,0,1,0,0,0,31,31,31,,,,,,,,,,,,,,,,,,,,,,,,,,,,,,3,19,female,3,2022_May_05_1022,Partial repeat,2021.2.3,59.79151887584874,
3,6,0,1,3,3,2,1,0,0,1,0,1,0,0,0,32,32,32,0,0,0,0,,,,,,,502.18883820064366,None,504.0763787999749,None,505.00921330042183,None,s,1,0.7166117988526821,505.00921330042183,None,None,None,,,,,,,3,19,female,3,2022_May_05_1022,Partial repeat,2021.2.3,59.79151887584874,
3,6,0,1,3,3,2,1,0,0,1,0,1,0,0,0,32,32,32,1,0,1,0,,,,,,,,,505.7427859008312,None,506.71160440146923,None,s,1,0.8782004006206989,506.71160440146923,None,None,None,,,,,,,3,19,female,3,2022_May_05_1022,Partial repeat,2021.2.3,59.79151887584874,
3,6,0,1,3,3,2,1,0,0,1,0,1,0,0,0,32,32,32,,,,,,,,,,,,,,,,,,,,,,,,,,,,,,3,19,female,3,2022_May_05_1022,Partial repeat,2021.2.3,59.79151887584874,
4,4,0,1,3,2,1,1,1,0,0,1,0,0,0,0,33,33,33,0,0,0,0,,,,,,,507.6200612001121,None,509.83781080134213,None,510.60295630060136,None,l,1,0.7389492001384497,510.60295630060136,None,None,None,,,,,,,3,19,female,3,2022_May_05_1022,Partial repeat,2021.2.3,59.79151887584874,
4,4,0,1,3,2,1,1,1,0,0,1,0,0,0,0,33,33,33,1,0,1,0,,,,,,,,,511.3548397012055,None,512.1720443014055,None,l,0,1.1538420990109444,512.1720443014055,None,513.3552834000438,None,,,,,,,3,19,female,3,2022_May_05_1022,Partial repeat,2021.2.3,59.79151887584874,
4,4,0,1,3,2,1,1,1,0,0,1,0,0,0,0,33,33,33,,,,,,,,,,,,,,,,,,,,,,,,,,,,,,3,19,female,3,2022_May_05_1022,Partial repeat,2021.2.3,59.79151887584874,
5,3,0,1,3,2,2,2,0,0,0,1,1,0,0,0,34,34,34,0,0,0,0,,,,,,,513.8621220011264,None,516.5673459004611,None,517.4671617001295,None,s,1,1.0746446996927261,517.4671617001295,None,None,None,,,,,,,3,19,female,3,2022_May_05_1022,Partial repeat,2021.2.3,59.79151887584874,
5,3,0,1,3,2,2,2,0,0,0,1,1,0,0,0,34,34,34,1,0,1,0,,,,,,,,,518.5645285006613,None,519.453566301614,None,s,1,1.1682331003248692,519.453566301614,None,None,None,,,,,,,3,19,female,3,2022_May_05_1022,Partial repeat,2021.2.3,59.79151887584874,
5,3,0,1,3,2,2,2,0,0,0,1,1,0,0,0,34,34,34,,,,,,,,,,,,,,,,,,,,,,,,,,,,,,3,19,female,3,2022_May_05_1022,Partial repeat,2021.2.3,59.79151887584874,
2,1,0,1,2,2,1,2,0,0,1,0,1,0,0,0,35,35,35,0,0,0,0,,,,,,,520.6422496009618,None,522.7796558998525,None,523.7782701998949,None,s,1,0.9315485004335642,523.7782701998949,None,None,None,,,,,,,3,19,female,3,2022_May_05_1022,Partial repeat,2021.2.3,59.79151887584874,
2,1,0,1,2,2,1,2,0,0,1,0,1,0,0,0,35,35,35,1,0,1,0,,,,,,,,,524.7250954005867,None,525.5981749016792,None,s,1,0.8956490997225046,525.5981749016792,None,None,None,,,,,,,3,19,female,3,2022_May_05_1022,Partial repeat,2021.2.3,59.79151887584874,
2,1,0,1,2,2,1,2,0,0,1,0,1,0,0,0,35,35,35,,,,,,,,,,,,,,,,,,,,,,,,,,,,,,3,19,female,3,2022_May_05_1022,Partial repeat,2021.2.3,59.79151887584874,
2,7,0,1,2,2,1,1,0,0,1,1,1,0,0,0,36,36,36,0,0,0,0,,,,,,,526.5111092012376,None,528.1398608013988,None,528.9881597999483,None,s,1,0.6416791006922722,528.9881597999483,None,None,None,,,,,,,3,19,female,3,2022_May_05_1022,Partial repeat,2021.2.3,59.79151887584874,
2,7,0,1,2,2,1,1,0,0,1,1,1,0,0,0,36,36,36,1,0,1,0,,,,,,,,,529.6589732002467,None,530.5073426999152,None,s,1,0.8584866989403963,530.5073426999152,None,None,None,,,,,,,3,19,female,3,2022_May_05_1022,Partial repeat,2021.2.3,59.79151887584874,
2,7,0,1,2,2,1,1,0,0,1,1,1,0,0,0,36,36,36,,,,,,,,,,,,,,,,,,,,,,,,,,,,,,3,19,female,3,2022_May_05_1022,Partial repeat,2021.2.3,59.79151887584874,
4,2,0,1,3,3,2,2,0,0,1,1,1,0,0,0,37,37,37,0,0,0,0,,,,,,,531.3818768002093,None,533.2331257015467,None,534.1493430007249,None,s,1,0.6564837004989386,534.1493430007249,None,None,None,,,,,,,3,19,female,3,2022_May_05_1022,Partial repeat,2021.2.3,59.79151887584874,
4,2,0,1,3,3,2,2,0,0,1,1,1,0,0,0,37,37,37,1,0,1,0,,,,,,,,,534.8190079014748,None,535.6516219004989,None,s,1,0.6901888996362686,535.6516219004989,None,None,None,,,,,,,3,19,female,3,2022_May_05_1022,Partial repeat,2021.2.3,59.79151887584874,
4,2,0,1,3,3,2,2,0,0,1,1,1,0,0,0,37,37,37,,,,,,,,,,,,,,,,,,,,,,,,,,,,,,3,19,female,3,2022_May_05_1022,Partial repeat,2021.2.3,59.79151887584874,
2,6,0,1,2,3,1,2,1,1,0,0,1,0,0,0,38,38,38,0,0,0,0,,,,,,,536.3665049001575,None,537.6251789014786,None,538.3563884012401,None,l,1,0.6894650999456644,538.3563884012401,None,None,None,,,,,,,3,19,female,3,2022_May_05_1022,Partial repeat,2021.2.3,59.79151887584874,
2,6,0,1,2,3,1,2,1,1,0,0,1,0,0,0,38,38,38,1,0,1,0,,,,,,,,,539.0676910001785,None,539.8754614014179,None,l,1,0.6025421004742384,539.8754614014179,None,None,None,,,,,,,3,19,female,3,2022_May_05_1022,Partial repeat,2021.2.3,59.79151887584874,
2,6,0,1,2,3,1,2,1,1,0,0,1,0,0,0,38,38,38,,,,,,,,,,,,,,,,,,,,,,,,,,,,,,3,19,female,3,2022_May_05_1022,Partial repeat,2021.2.3,59.79151887584874,
4,7,0,1,3,3,2,2,1,0,1,1,0,0,0,0,39,39,39,0,0,0,0,,,,,,,540.4897750001401,None,541.3825296014547,None,542.3642656002194,None,l,1,0.6495874002575874,542.3642656002194,None,None,None,,,,,,,3,19,female,3,2022_May_05_1022,Partial repeat,2021.2.3,59.79151887584874,
4,7,0,1,3,3,2,2,1,0,1,1,0,0,0,0,39,39,39,1,0,1,0,,,,,,,,,543.0362793002278,None,543.8173225000501,None,s,1,0.7804879993200302,543.8173225000501,None,None,None,,,,,,,3,19,female,3,2022_May_05_1022,Partial repeat,2021.2.3,59.79151887584874,
4,7,0,1,3,3,2,2,1,0,1,1,0,0,0,0,39,39,39,,,,,,,,,,,,,,,,,,,,,,,,,,,,,,3,19,female,3,2022_May_05_1022,Partial repeat,2021.2.3,59.79151887584874,
6,6,0,1,3,2,2,2,0,1,0,1,0,0,0,0,40,40,40,0,0,0,0,,,,,,,544.617776799947,None,546.3755516000092,None,547.1074141003191,None,s,1,0.794378099963069,547.1074141003191,None,None,None,,,,,,,3,19,female,3,2022_May_05_1022,Partial repeat,2021.2.3,59.79151887584874,
6,6,0,1,3,2,2,2,0,1,0,1,0,0,0,0,40,40,40,1,0,1,0,,,,,,,,,547.9310005009174,None,548.8260807003826,None,l,1,0.7957728002220392,548.8260807003826,None,None,None,,,,,,,3,19,female,3,2022_May_05_1022,Partial repeat,2021.2.3,59.79151887584874,
6,6,0,1,3,2,2,2,0,1,0,1,0,0,0,0,40,40,40,,,,,,,,,,,,,,,,,,,,,,,,,,,,,,3,19,female,3,2022_May_05_1022,Partial repeat,2021.2.3,59.79151887584874,
4,3,0,1,3,3,1,2,1,0,1,0,0,0,0,0,41,41,41,0,0,0,0,,,,,,,549.6414199005812,None,550.7674478013068,None,551.6328100003302,None,l,1,0.6930190995335579,551.6328100003302,None,None,None,,,,,,,3,19,female,3,2022_May_05_1022,Partial repeat,2021.2.3,59.79151887584874,
4,3,0,1,3,3,1,2,1,0,1,0,0,0,0,0,41,41,41,1,0,1,0,,,,,,,,,552.3501102998853,None,553.1689291000366,None,s,1,0.7569276001304388,553.1689291000366,None,None,None,,,,,,,3,19,female,3,2022_May_05_1022,Partial repeat,2021.2.3,59.79151887584874,
4,3,0,1,3,3,1,2,1,0,1,0,0,0,0,0,41,41,41,,,,,,,,,,,,,,,,,,,,,,,,,,,,,,3,19,female,3,2022_May_05_1022,Partial repeat,2021.2.3,59.79151887584874,
3,3,0,1,2,2,1,1,1,1,1,1,1,0,0,0,42,42,42,0,0,0,0,,,,,,,553.9553260002285,None,555.4599189013243,None,556.4586511012167,None,l,1,0.6911701001226902,556.4586511012167,None,None,None,,,,,,,3,19,female,3,2022_May_05_1022,Partial repeat,2021.2.3,59.79151887584874,
3,3,0,1,2,2,1,1,1,1,1,1,1,0,0,0,42,42,42,1,0,1,0,,,,,,,,,557.1667535007,None,557.8936400003731,None,l,1,0.648207301273942,557.8936400003731,None,None,None,,,,,,,3,19,female,3,2022_May_05_1022,Partial repeat,2021.2.3,59.79151887584874,
3,3,0,1,2,2,1,1,1,1,1,1,1,0,0,0,42,42,42,,,,,,,,,,,,,,,,,,,,,,,,,,,,,,3,19,female,3,2022_May_05_1022,Partial repeat,2021.2.3,59.79151887584874,
5,7,0,1,3,2,2,2,1,1,0,1,1,0,0,0,43,43,43,0,0,0,0,,,,,,,558.5654161013663,None,559.8849635012448,None,560.8510747998953,None,l,1,0.6027806010097265,560.8510747998953,None,None,None,,,,,,,3,19,female,3,2022_May_05_1022,Partial repeat,2021.2.3,59.79151887584874,
5,7,0,1,3,2,2,2,1,1,0,1,1,0,0,0,43,43,43,1,0,1,0,,,,,,,,,561.4772562012076,None,562.4692216999829,None,l,1,0.7846019994467497,562.4692216999829,None,None,None,,,,,,,3,19,female,3,2022_May_05_1022,Partial repeat,2021.2.3,59.79151887584874,
5,7,0,1,3,2,2,2,1,1,0,1,1,0,0,0,43,43,43,,,,,,,,,,,,,,,,,,,,,,,,,,,,,,3,19,female,3,2022_May_05_1022,Partial repeat,2021.2.3,59.79151887584874,
5,4,0,1,2,2,2,1,0,0,1,0,1,0,0,0,44,44,44,0,0,0,0,,,,,,,563.2807542011142,None,565.0285689011216,None,565.776934100315,None,s,1,0.5888990014791489,565.776934100315,None,None,None,,,,,,,3,19,female,3,2022_May_05_1022,Partial repeat,2021.2.3,59.79151887584874,
5,4,0,1,2,2,2,1,0,0,1,0,1,0,0,0,44,44,44,1,0,1,0,,,,,,,,,566.383411500603,None,567.3962347004563,None,s,1,1.129636500030756,567.3962347004563,None,None,None,,,,,,,3,19,female,3,2022_May_05_1022,Partial repeat,2021.2.3,59.79151887584874,
5,4,0,1,2,2,2,1,0,0,1,0,1,0,0,0,44,44,44,,,,,,,,,,,,,,,,,,,,,,,,,,,,,,3,19,female,3,2022_May_05_1022,Partial repeat,2021.2.3,59.79151887584874,
8,2,0,1,2,3,2,1,1,1,0,0,1,0,0,0,45,45,45,0,0,0,0,,,,,,,568.5384811013937,None,569.8543651010841,None,570.6362665016204,None,l,1,0.4496787004172802,570.6362665016204,None,None,None,,,,,,,3,19,female,3,2022_May_05_1022,Partial repeat,2021.2.3,59.79151887584874,
8,2,0,1,2,3,2,1,1,1,0,0,1,0,0,0,45,45,45,1,0,1,0,,,,,,,,,571.0959729999304,None,571.8387106005102,None,l,1,0.6551889013499022,571.8387106005102,None,None,None,,,,,,,3,19,female,3,2022_May_05_1022,Partial repeat,2021.2.3,59.79151887584874,
8,2,0,1,2,3,2,1,1,1,0,0,1,0,0,0,45,45,45,,,,,,,,,,,,,,,,,,,,,,,,,,,,,,3,19,female,3,2022_May_05_1022,Partial repeat,2021.2.3,59.79151887584874,
6,3,0,1,2,3,1,1,1,1,0,1,1,0,0,0,46,46,46,0,0,0,0,,,,,,,572.5116289015859,None,574.8307122010738,None,575.7126730009913,None,l,1,0.5891599990427494,575.7126730009913,None,None,None,,,,,,,3,19,female,3,2022_May_05_1022,Partial repeat,2021.2.3,59.79151887584874,
6,3,0,1,2,3,1,1,1,1,0,1,1,0,0,0,46,46,46,1,0,1,0,,,,,,,,,576.3176659010351,None,577.2486905008554,None,l,1,0.789138700813055,577.2486905008554,None,None,None,,,,,,,3,19,female,3,2022_May_05_1022,Partial repeat,2021.2.3,59.79151887584874,
6,3,0,1,2,3,1,1,1,1,0,1,1,0,0,0,46,46,46,,,,,,,,,,,,,,,,,,,,,,,,,,,,,,3,19,female,3,2022_May_05_1022,Partial repeat,2021.2.3,59.79151887584874,
2,5,0,1,3,3,1,1,0,1,1,1,0,0,0,0,47,47,47,0,0,0,0,,,,,,,578.0571321006864,None,580.0243951007724,None,581.0065260007977,None,l,0,0.46330679953098297,581.0065260007977,None,581.4846196006984,None,,,,,,,3,19,female,3,2022_May_05_1022,Partial repeat,2021.2.3,59.79151887584874,
2,5,0,1,3,3,1,1,0,1,1,1,0,0,0,0,47,47,47,1,0,1,0,,,,,,,,,581.9946577008814,None,582.8423891998827,None,l,1,0.6914329994469881,582.8423891998827,None,None,None,,,,,,,3,19,female,3,2022_May_05_1022,Partial repeat,2021.2.3,59.79151887584874,
2,5,0,1,3,3,1,1,0,1,1,1,0,0,0,0,47,47,47,,,,,,,,,,,,,,,,,,,,,,,,,,,,,,3,19,female,3,2022_May_05_1022,Partial repeat,2021.2.3,59.79151887584874,
1,1,0,1,2,2,1,2,1,1,1,0,1,0,0,0,48,48,48,0,0,0,0,,,,,,,583.5614519007504,None,586.3032779004425,None,587.1005373001099,None,l,1,0.6172882989048958,587.1005373001099,None,None,None,,,,,,,3,19,female,3,2022_May_05_1022,Partial repeat,2021.2.3,59.79151887584874,
1,1,0,1,2,2,1,2,1,1,1,0,1,0,0,0,48,48,48,1,0,1,0,,,,,,,,,587.7293447013944,None,588.5199215002358,None,l,1,0.9418924003839493,588.5199215002358,None,None,None,,,,,,,3,19,female,3,2022_May_05_1022,Partial repeat,2021.2.3,59.79151887584874,
1,1,0,1,2,2,1,2,1,1,1,0,1,0,0,0,48,48,48,,,,,,,,,,,,,,,,,,,,,,,,,,,,,,3,19,female,3,2022_May_05_1022,Partial repeat,2021.2.3,59.79151887584874,
1,4,0,1,2,3,1,2,1,0,0,0,0,0,0,0,49,49,49,0,0,0,0,,,,,,,589.4923574998975,None,591.1793917007744,None,591.9455319009721,None,l,1,0.6202684007585049,591.9455319009721,None,None,None,,,,,,,3,19,female,3,2022_May_05_1022,Partial repeat,2021.2.3,59.79151887584874,
1,4,0,1,2,3,1,2,1,0,0,0,0,0,0,0,49,49,49,1,0,1,0,,,,,,,,,592.5851393006742,None,593.3127167001367,None,s,1,0.7891145013272762,593.3127167001367,None,None,None,,,,,,,3,19,female,3,2022_May_05_1022,Partial repeat,2021.2.3,59.79151887584874,
1,4,0,1,2,3,1,2,1,0,0,0,0,0,0,0,49,49,49,,,,,,,,,,,,,,,,,,,,,,,,,,,,,,3,19,female,3,2022_May_05_1022,Partial repeat,2021.2.3,59.79151887584874,
4,8,0,1,2,2,1,1,0,1,1,1,0,0,0,0,50,50,50,0,0,0,0,,,,,,,594.1212965007871,None,597.40823960118,None,598.1396427005529,None,s,1,0.7702968008816242,598.1396427005529,None,None,None,,,,,,,3,19,female,3,2022_May_05_1022,Partial repeat,2021.2.3,59.79151887584874,
4,8,0,1,2,2,1,1,0,1,1,1,0,0,0,0,50,50,50,1,0,1,0,,,,,,,,,598.918843600899,None,599.843044500798,None,l,1,0.7628259006887674,599.843044500798,None,None,None,,,,,,,3,19,female,3,2022_May_05_1022,Partial repeat,2021.2.3,59.79151887584874,
4,8,0,1,2,2,1,1,0,1,1,1,0,0,0,0,50,50,50,,,,,,,,,,,,,,,,,,,,,,,,,,,,,,3,19,female,3,2022_May_05_1022,Partial repeat,2021.2.3,59.79151887584874,
1,8,0,1,2,2,2,2,0,1,1,1,0,0,0,0,51,51,51,0,0,0,0,,,,,,,600.6294762007892,None,604.4216393008828,None,605.2040945999324,None,s,1,0.7137385997921228,605.2040945999324,None,None,None,,,,,,,3,19,female,3,2022_May_05_1022,Partial repeat,2021.2.3,59.79151887584874,
1,8,0,1,2,2,2,2,0,1,1,1,0,0,0,0,51,51,51,1,0,1,0,,,,,,,,,605.9350046012551,None,606.8735867012292,None,l,1,0.7402156982570887,606.8735867012292,None,None,None,,,,,,,3,19,female,3,2022_May_05_1022,Partial repeat,2021.2.3,59.79151887584874,
1,8,0,1,2,2,2,2,0,1,1,1,0,0,0,0,51,51,51,,,,,,,,,,,,,,,,,,,,,,,,,,,,,,3,19,female,3,2022_May_05_1022,Partial repeat,2021.2.3,59.79151887584874,
1,5,0,1,2,3,2,1,0,1,0,0,0,0,0,0,52,52,52,0,0,0,0,,,,,,,607.6432054005563,None,609.0973867010325,None,609.8791115004569,None,s,1,0.8307587001472712,609.8791115004569,None,None,None,,,,,,,3,19,female,3,2022_May_05_1022,Partial repeat,2021.2.3,59.79151887584874,
1,5,0,1,2,3,2,1,0,1,0,0,0,0,0,0,52,52,52,1,0,1,0,,,,,,,,,610.7212254013866,None,611.6986026000232,None,l,1,1.0912220999598503,611.6986026000232,None,None,None,,,,,,,3,19,female,3,2022_May_05_1022,Partial repeat,2021.2.3,59.79151887584874,
1,5,0,1,2,3,2,1,0,1,0,0,0,0,0,0,52,52,52,,,,,,,,,,,,,,,,,,,,,,,,,,,,,,3,19,female,3,2022_May_05_1022,Partial repeat,2021.2.3,59.79151887584874,
2,4,0,1,3,2,2,1,0,1,0,0,0,0,0,0,53,53,53,0,0,0,0,,,,,,,612.8183345999569,None,614.2911342009902,None,615.0732429008931,None,s,1,0.7726166993379593,615.0732429008931,None,None,None,,,,,,,3,19,female,3,2022_May_05_1022,Partial repeat,2021.2.3,59.79151887584874,
2,4,0,1,3,2,2,1,0,1,0,0,0,0,0,0,53,53,53,1,0,1,0,,,,,,,,,615.8700238000602,None,616.6749591007829,None,l,1,0.8748503997921944,616.6749591007829,None,None,None,,,,,,,3,19,female,3,2022_May_05_1022,Partial repeat,2021.2.3,59.79151887584874,
2,4,0,1,3,2,2,1,0,1,0,0,0,0,0,0,53,53,53,,,,,,,,,,,,,,,,,,,,,,,,,,,,,,3,19,female,3,2022_May_05_1022,Partial repeat,2021.2.3,59.79151887584874,
3,2,0,1,2,2,2,1,0,1,1,0,0,0,0,0,54,54,54,0,0,0,0,,,,,,,617.565288901329,None,619.1503823008388,None,619.9652745015919,None,s,1,1.0646580010652542,619.9652745015919,None,None,None,,,,,,,3,19,female,3,2022_May_05_1022,Partial repeat,2021.2.3,59.79151887584874,
3,2,0,1,2,2,2,1,0,1,1,0,0,0,0,0,54,54,54,1,0,1,0,,,,,,,,,621.0393710006028,None,621.9852611012757,None,l,1,0.868580799549818,621.9852611012757,None,None,None,,,,,,,3,19,female,3,2022_May_05_1022,Partial repeat,2021.2.3,59.79151887584874,
3,2,0,1,2,2,2,1,0,1,1,0,0,0,0,0,54,54,54,,,,,,,,,,,,,,,,,,,,,,,,,,,,,,3,19,female,3,2022_May_05_1022,Partial repeat,2021.2.3,59.79151887584874,
7,5,0,1,2,3,2,2,0,0,0,1,1,0,0,0,55,55,55,0,0,0,0,,,,,,,622.8804044015706,None,624.4606367014349,None,625.2256983015686,None,s,1,0.9722272995859385,625.2256983015686,None,None,None,,,,,,,3,19,female,3,2022_May_05_1022,Partial repeat,2021.2.3,59.79151887584874,
7,5,0,1,2,3,2,2,0,0,0,1,1,0,0,0,55,55,55,1,0,1,0,,,,,,,,,626.2199838999659,None,627.0955308005214,None,s,1,0.8143605012446642,627.0955308005214,None,None,None,,,,,,,3,19,female,3,2022_May_05_1022,Partial repeat,2021.2.3,59.79151887584874,
7,5,0,1,2,3,2,2,0,0,0,1,1,0,0,0,55,55,55,,,,,,,,,,,,,,,,,,,,,,,,,,,,,,3,19,female,3,2022_May_05_1022,Partial repeat,2021.2.3,59.79151887584874,
4,6,0,1,2,3,2,2,1,0,0,1,0,0,0,0,56,56,56,0,0,0,0,,,,,,,627.920167600736,None,629.1363984011114,None,630.0691282004118,None,l,1,0.8647881001234055,630.0691282004118,None,None,None,,,,,,,3,19,female,3,2022_May_05_1022,Partial repeat,2021.2.3,59.79151887584874,
4,6,0,1,2,3,2,2,1,0,0,1,0,0,0,0,56,56,56,1,0,1,0,,,,,,,,,630.9448856003582,None,631.7048303000629,None,l,0,0.9490077011287212,631.7048303000629,None,632.6693341005594,None,,,,,,,3,19,female,3,2022_May_05_1022,Partial repeat,2021.2.3,59.79151887584874,
4,6,0,1,2,3,2,2,1,0,0,1,0,0,0,0,56,56,56,,,,,,,,,,,,,,,,,,,,,,,,,,,,,,3,19,female,3,2022_May_05_1022,Partial repeat,2021.2.3,59.79151887584874,
2,8,0,1,2,3,1,1,0,1,0,1,0,0,0,0,57,57,57,0,0,0,0,,,,,,,633.1779240015894,None,634.1628507003188,None,635.078407600522,None,s,1,1.567425301298499,635.078407600522,None,None,None,,,,,,,3,19,female,3,2022_May_05_1022,Partial repeat,2021.2.3,59.79151887584874,
2,8,0,1,2,3,1,1,0,1,0,1,0,0,0,0,57,57,57,1,0,1,0,,,,,,,,,636.6647233013064,None,637.398244600743,None,l,1,0.6475907005369663,637.398244600743,None,None,None,,,,,,,3,19,female,3,2022_May_05_1022,Partial repeat,2021.2.3,59.79151887584874,
2,8,0,1,2,3,1,1,0,1,0,1,0,0,0,0,57,57,57,,,,,,,,,,,,,,,,,,,,,,,,,,,,,,3,19,female,3,2022_May_05_1022,Partial repeat,2021.2.3,59.79151887584874,
3,4,0,1,3,2,1,2,0,1,0,0,0,0,0,0,58,58,58,0,0,0,0,,,,,,,638.0736705008894,None,639.6234613005072,None,640.4545737002045,None,s,1,0.9992395993322134,640.4545737002045,None,None,None,,,,,,,3,19,female,3,2022_May_05_1022,Partial repeat,2021.2.3,59.79151887584874,
3,4,0,1,3,2,1,2,0,1,0,0,0,0,0,0,58,58,58,1,0,1,0,,,,,,,,,641.466302100569,None,642.2243754006922,None,l,1,0.749440299347043,642.2243754006922,None,None,None,,,,,,,3,19,female,3,2022_May_05_1022,Partial repeat,2021.2.3,59.79151887584874,
3,4,0,1,3,2,1,2,0,1,0,0,0,0,0,0,58,58,58,,,,,,,,,,,,,,,,,,,,,,,,,,,,,,3,19,female,3,2022_May_05_1022,Partial repeat,2021.2.3,59.79151887584874,
7,2,0,1,2,2,2,2,1,1,1,1,1,0,0,0,59,59,59,0,0,0,0,,,,,,,642.9884191006422,None,645.9693772010505,None,646.8673502001911,None,l,1,1.2184631992131472,646.8673502001911,None,None,None,,,,,,,3,19,female,3,2022_May_05_1022,Partial repeat,2021.2.3,59.79151887584874,
7,2,0,1,2,2,2,2,1,1,1,1,1,0,0,0,59,59,59,1,0,1,0,,,,,,,,,648.1065050009638,None,648.8707738015801,None,l,1,0.9431235007941723,648.8707738015801,None,None,None,,,,,,,3,19,female,3,2022_May_05_1022,Partial repeat,2021.2.3,59.79151887584874,
7,2,0,1,2,2,2,2,1,1,1,1,1,0,0,0,59,59,59,,,,,,,,,,,,,,,,,,,,,,,,,,,,,,3,19,female,3,2022_May_05_1022,Partial repeat,2021.2.3,59.79151887584874,
6,5,0,1,2,3,2,2,0,1,0,1,0,0,0,0,60,60,60,0,0,0,0,,,,,,,649.8304858002812,None,651.7804236002266,None,652.7295401003212,None,s,1,1.1482597012072802,652.7295401003212,None,None,None,,,,,,,3,19,female,3,2022_May_05_1022,Partial repeat,2021.2.3,59.79151887584874,
6,5,0,1,2,3,2,2,0,1,0,1,0,0,0,0,60,60,60,1,0,1,0,,,,,,,,,653.8902802001685,None,654.632629700005,None,l,1,0.7092009000480175,654.632629700005,None,None,None,,,,,,,3,19,female,3,2022_May_05_1022,Partial repeat,2021.2.3,59.79151887584874,
6,5,0,1,2,3,2,2,0,1,0,1,0,0,0,0,60,60,60,,,,,,,,,,,,,,,,,,,,,,,,,,,,,,3,19,female,3,2022_May_05_1022,Partial repeat,2021.2.3,59.79151887584874,
5,5,0,1,3,3,1,2,0,0,1,0,1,0,0,0,61,61,61,0,0,0,0,,,,,,,655.3654791004956,None,656.7568076010793,None,657.6892163008451,None,s,1,0.9325853995978832,657.6892163008451,None,None,None,,,,,,,3,19,female,3,2022_May_05_1022,Partial repeat,2021.2.3,59.79151887584874,
5,5,0,1,3,3,1,2,0,0,1,0,1,0,0,0,61,61,61,1,0,1,0,,,,,,,,,658.6362418010831,None,659.4415079001337,None,s,1,0.7884161993861198,659.4415079001337,None,None,None,,,,,,,3,19,female,3,2022_May_05_1022,Partial repeat,2021.2.3,59.79151887584874,
5,5,0,1,3,3,1,2,0,0,1,0,1,0,0,0,61,61,61,,,,,,,,,,,,,,,,,,,,,,,,,,,,,,3,19,female,3,2022_May_05_1022,Partial repeat,2021.2.3,59.79151887584874,
6,8,0,1,3,2,1,2,1,1,0,0,1,0,0,0,62,62,62,0,0,0,0,,,,,,,660.2421390004456,None,661.4993422999978,None,662.4309058003128,None,l,1,0.694895101711154,662.4309058003128,None,None,None,,,,,,,3,19,female,3,2022_May_05_1022,Partial repeat,2021.2.3,59.79151887584874,
6,8,0,1,3,2,1,2,1,1,0,0,1,0,0,0,62,62,62,1,0,1,0,,,,,,,,,663.1341115012765,None,663.9007991999388,None,l,1,0.761030999943614,663.9007991999388,None,None,None,,,,,,,3,19,female,3,2022_May_05_1022,Partial repeat,2021.2.3,59.79151887584874,
6,8,0,1,3,2,1,2,1,1,0,0,1,0,0,0,62,62,62,,,,,,,,,,,,,,,,,,,,,,,,,,,,,,3,19,female,3,2022_May_05_1022,Partial repeat,2021.2.3,59.79151887584874,
8,3,0,1,2,2,1,2,1,0,1,0,0,0,0,0,63,63,63,0,0,0,0,,,,,,,664.6847943011671,None,665.9581899009645,None,666.707298701629,None,l,1,0.6585320997983217,666.707298701629,None,None,None,,,,,,,3,19,female,3,2022_May_05_1022,Partial repeat,2021.2.3,59.79151887584874,
8,3,0,1,2,2,1,2,1,0,1,0,0,0,0,0,63,63,63,1,0,1,0,,,,,,,,,667.387992599979,None,668.3754133004695,None,s,1,0.8944327998906374,668.3754133004695,None,None,None,,,,,,,3,19,female,3,2022_May_05_1022,Partial repeat,2021.2.3,59.79151887584874,
8,3,0,1,2,2,1,2,1,0,1,0,0,0,0,0,63,63,63,,,,,,,,,,,,,,,,,,,,,,,,,,,,,,3,19,female,3,2022_May_05_1022,Partial repeat,2021.2.3,59.79151887584874,
8,8,0,1,3,3,2,1,1,1,1,0,1,1,0,0,64,64,64,0,0,0,0,,,,,,,676.6771390009671,None,679.1005016006529,None,680.0317134000361,None,l,1,0.9260689001530409,680.0317134000361,None,None,None,,,,,,,3,19,female,3,2022_May_05_1022,Partial repeat,2021.2.3,59.79151887584874,
8,8,0,1,3,3,2,1,1,1,1,0,1,1,0,0,64,64,64,1,0,1,0,,,,,,,,,680.9715793002397,None,681.9184480011463,None,l,1,0.6313931997865438,681.9184480011463,None,None,None,,,,,,,3,19,female,3,2022_May_05_1022,Partial repeat,2021.2.3,59.79151887584874,
8,8,0,1,3,3,2,1,1,1,1,0,1,1,0,0,64,64,64,,,,,,,,,,,,,,,,,,,,,,,,,,,,,,3,19,female,3,2022_May_05_1022,Partial repeat,2021.2.3,59.79151887584874,
8,8,0,1,2,2,2,2,0,0,1,1,1,1,0,0,65,65,65,0,0,0,0,,,,,,,682.5600862000138,None,684.1601023003459,None,684.9921911004931,None,s,1,0.725602900609374,684.9921911004931,None,None,None,,,,,,,3,19,female,3,2022_May_05_1022,Partial repeat,2021.2.3,59.79151887584874,
8,8,0,1,2,2,2,2,0,0,1,1,1,1,0,0,65,65,65,1,0,1,0,,,,,,,,,685.7459545005113,None,686.6956951003522,None,s,1,1.1901354994624853,686.6956951003522,None,None,None,,,,,,,3,19,female,3,2022_May_05_1022,Partial repeat,2021.2.3,59.79151887584874,
8,8,0,1,2,2,2,2,0,0,1,1,1,1,0,0,65,65,65,,,,,,,,,,,,,,,,,,,,,,,,,,,,,,3,19,female,3,2022_May_05_1022,Partial repeat,2021.2.3,59.79151887584874,
8,8,0,1,3,3,1,2,0,1,1,0,0,1,0,0,66,66,66,0,0,0,0,,,,,,,687.9107282999903,None,689.1033204998821,None,690.0346047002822,None,s,1,0.7711804006248713,690.0346047002822,None,None,None,,,,,,,3,19,female,3,2022_May_05_1022,Partial repeat,2021.2.3,59.79151887584874,
8,8,0,1,3,3,1,2,0,1,1,0,0,1,0,0,66,66,66,1,0,1,0,,,,,,,,,690.8242434002459,None,691.7200980000198,None,l,1,0.6536779999732971,691.7200980000198,None,None,None,,,,,,,3,19,female,3,2022_May_05_1022,Partial repeat,2021.2.3,59.79151887584874,
8,8,0,1,3,3,1,2,0,1,1,0,0,1,0,0,66,66,66,,,,,,,,,,,,,,,,,,,,,,,,,,,,,,3,19,female,3,2022_May_05_1022,Partial repeat,2021.2.3,59.79151887584874,
8,8,0,1,2,3,1,1,1,0,0,1,0,1,0,0,67,67,67,0,0,0,0,,,,,,,692.3967589009553,None,693.6788535006344,None,694.6934534013271,None,l,1,0.5523132998496294,694.6934534013271,None,None,None,,,,,,,3,19,female,3,2022_May_05_1022,Partial repeat,2021.2.3,59.79151887584874,
8,8,0,1,2,3,1,1,1,0,0,1,0,1,0,0,67,67,67,1,0,1,0,,,,,,,,,695.2644607014954,None,696.2631381005049,None,l,0,0.9667497016489506,696.2631381005049,None,697.2397549003363,None,,,,,,,3,19,female,3,2022_May_05_1022,Partial repeat,2021.2.3,59.79151887584874,
8,8,0,1,2,3,1,1,1,0,0,1,0,1,0,0,67,67,67,,,,,,,,,,,,,,,,,,,,,,,,,,,,,,3,19,female,3,2022_May_05_1022,Partial repeat,2021.2.3,59.79151887584874,
8,8,0,1,3,3,1,2,1,1,1,0,1,1,0,0,68,68,68,0,0,0,0,,,,,,,697.7532390002161,None,699.0390517003834,None,699.7703686002642,None,l,1,0.5074821002781391,699.7703686002642,None,None,None,,,,,,,3,19,female,3,2022_May_05_1022,Partial repeat,2021.2.3,59.79151887584874,
8,8,0,1,3,3,1,2,1,1,1,0,1,1,0,0,68,68,68,1,0,1,0,,,,,,,,,700.302606601268,None,701.1740097999573,None,l,1,0.6717916000634432,701.1740097999573,None,None,None,,,,,,,3,19,female,3,2022_May_05_1022,Partial repeat,2021.2.3,59.79151887584874,
8,8,0,1,3,3,1,2,1,1,1,0,1,1,0,0,68,68,68,,,,,,,,,,,,,,,,,,,,,,,,,,,,,,3,19,female,3,2022_May_05_1022,Partial repeat,2021.2.3,59.79151887584874,
8,8,0,1,2,2,2,2,1,1,1,1,1,1,0,0,69,69,69,0,0,0,0,,,,,,,701.8741934001446,None,703.1804715003818,None,704.0464580003172,None,l,1,0.5352852009236813,704.0464580003172,None,None,None,,,,,,,3,19,female,3,2022_May_05_1022,Partial repeat,2021.2.3,59.79151887584874,
8,8,0,1,2,2,2,2,1,1,1,1,1,1,0,0,69,69,69,1,0,1,0,,,,,,,,,704.5975076016039,None,705.3982474002987,None,l,1,0.7195918001234531,705.3982474002987,None,None,None,,,,,,,3,19,female,3,2022_May_05_1022,Partial repeat,2021.2.3,59.79151887584874,
8,8,0,1,2,2,2,2,1,1,1,1,1,1,0,0,69,69,69,,,,,,,,,,,,,,,,,,,,,,,,,,,,,,3,19,female,3,2022_May_05_1022,Partial repeat,2021.2.3,59.79151887584874,
8,8,0,1,3,3,1,2,0,0,1,0,1,1,0,0,70,70,70,0,0,0,0,,,,,,,706.129639999941,None,707.0713493004441,None,708.0695962011814,None,s,1,0.7201866004616022,708.0695962011814,None,None,None,,,,,,,3,19,female,3,2022_May_05_1022,Partial repeat,2021.2.3,59.79151887584874,
8,8,0,1,3,3,1,2,0,0,1,0,1,1,0,0,70,70,70,1,0,1,0,,,,,,,,,708.8063951004297,None,709.6558077000082,None,s,1,0.8299649991095066,709.6558077000082,None,None,None,,,,,,,3,19,female,3,2022_May_05_1022,Partial repeat,2021.2.3,59.79151887584874,
8,8,0,1,3,3,1,2,0,0,1,0,1,1,0,0,70,70,70,,,,,,,,,,,,,,,,,,,,,,,,,,,,,,3,19,female,3,2022_May_05_1022,Partial repeat,2021.2.3,59.79151887584874,
8,8,0,1,3,2,1,1,0,0,0,1,1,1,0,0,71,71,71,0,0,0,0,,,,,,,710.5076241008937,None,711.8138735014945,None,712.6792842000723,None,s,1,0.7905244007706642,712.6792842000723,None,None,None,,,,,,,3,19,female,3,2022_May_05_1022,Partial repeat,2021.2.3,59.79151887584874,
8,8,0,1,3,2,1,1,0,0,0,1,1,1,0,0,71,71,71,1,0,1,0,,,,,,,,,713.4882196001709,None,714.2663480006158,None,s,1,0.699422400444746,714.2663480006158,None,None,None,,,,,,,3,19,female,3,2022_May_05_1022,Partial repeat,2021.2.3,59.79151887584874,
8,8,0,1,3,2,1,1,0,0,0,1,1,1,0,0,71,71,71,,,,,,,,,,,,,,,,,,,,,,,,,,,,,,3,19,female,3,2022_May_05_1022,Partial repeat,2021.2.3,59.79151887584874,
8,8,0,1,3,2,2,2,0,0,0,1,1,1,0,0,72,72,72,0,0,0,0,,,,,,,714.9866774007678,None,716.2725994009525,None,717.0878949016333,None,s,1,0.7899015005677938,717.0878949016333,None,None,None,,,,,,,3,19,female,3,2022_May_05_1022,Partial repeat,2021.2.3,59.79151887584874,
8,8,0,1,3,2,2,2,0,0,0,1,1,1,0,0,72,72,72,1,0,1,0,,,,,,,,,717.8976737000048,None,718.8069251012057,None,s,1,0.6388216000050306,718.8069251012057,None,None,None,,,,,,,3,19,female,3,2022_May_05_1022,Partial repeat,2021.2.3,59.79151887584874,
8,8,0,1,3,2,2,2,0,0,0,1,1,1,0,0,72,72,72,,,,,,,,,,,,,,,,,,,,,,,,,,,,,,3,19,female,3,2022_May_05_1022,Partial repeat,2021.2.3,59.79151887584874,
8,8,0,1,2,3,2,2,0,1,0,1,0,1,0,0,73,73,73,0,0,0,0,,,,,,,719.4743394013494,None,720.6143407002091,None,721.512623200193,None,s,1,0.5812717992812395,721.512623200193,None,None,None,,,,,,,3,19,female,3,2022_May_05_1022,Partial repeat,2021.2.3,59.79151887584874,
8,8,0,1,2,3,2,2,0,1,0,1,0,1,0,0,73,73,73,1,0,1,0,,,,,,,,,722.1051254998893,None,722.9983872007579,None,l,1,0.7993902992457151,722.9983872007579,None,None,None,,,,,,,3,19,female,3,2022_May_05_1022,Partial repeat,2021.2.3,59.79151887584874,
8,8,0,1,2,3,2,2,0,1,0,1,0,1,0,0,73,73,73,,,,,,,,,,,,,,,,,,,,,,,,,,,,,,3,19,female,3,2022_May_05_1022,Partial repeat,2021.2.3,59.79151887584874,
8,8,0,1,2,2,2,1,1,1,1,0,1,1,0,0,74,74,74,0,0,0,0,,,,,,,723.8124734014273,None,726.5926700010896,None,727.358357200399,None,l,1,0.7994525004178286,727.358357200399,None,None,None,,,,,,,3,19,female,3,2022_May_05_1022,Partial repeat,2021.2.3,59.79151887584874,
8,8,0,1,2,2,2,1,1,1,1,0,1,1,0,0,74,74,74,1,0,1,0,,,,,,,,,728.1692816000432,None,728.9598567001522,None,l,1,0.6299825999885798,728.9598567001522,None,None,None,,,,,,,3,19,female,3,2022_May_05_1022,Partial repeat,2021.2.3,59.79151887584874,
8,8,0,1,2,2,2,1,1,1,1,0,1,1,0,0,74,74,74,,,,,,,,,,,,,,,,,,,,,,,,,,,,,,3,19,female,3,2022_May_05_1022,Partial repeat,2021.2.3,59.79151887584874,
8,8,0,1,3,3,1,1,0,1,1,1,0,1,0,0,75,75,75,0,0,0,0,,,,,,,729.6122619006783,None,730.7173803001642,None,731.6826824005693,None,s,1,0.7391160000115633,731.6826824005693,None,None,None,,,,,,,3,19,female,3,2022_May_05_1022,Partial repeat,2021.2.3,59.79151887584874,
8,8,0,1,3,3,1,1,0,1,1,1,0,1,0,0,75,75,75,1,0,1,0,,,,,,,,,732.4350616000593,None,733.2350131999701,None,l,1,0.6907283999025822,733.2350131999701,None,None,None,,,,,,,3,19,female,3,2022_May_05_1022,Partial repeat,2021.2.3,59.79151887584874,
8,8,0,1,3,3,1,1,0,1,1,1,0,1,0,0,75,75,75,,,,,,,,,,,,,,,,,,,,,,,,,,,,,,3,19,female,3,2022_May_05_1022,Partial repeat,2021.2.3,59.79151887584874,
8,8,0,1,2,3,2,2,0,0,0,1,1,1,0,0,76,76,76,0,0,0,0,,,,,,,733.9488680008799,None,735.5267559010535,None,736.2904489003122,None,s,1,0.5953208990395069,736.2904489003122,None,None,None,,,,,,,3,19,female,3,2022_May_05_1022,Partial repeat,2021.2.3,59.79151887584874,
8,8,0,1,2,3,2,2,0,0,0,1,1,1,0,0,76,76,76,1,0,1,0,,,,,,,,,736.9103354010731,None,737.9111014008522,None,s,1,0.5666505005210638,737.9111014008522,None,None,None,,,,,,,3,19,female,3,2022_May_05_1022,Partial repeat,2021.2.3,59.79151887584874,
8,8,0,1,2,3,2,2,0,0,0,1,1,1,0,0,76,76,76,,,,,,,,,,,,,,,,,,,,,,,,,,,,,,3,19,female,3,2022_May_05_1022,Partial repeat,2021.2.3,59.79151887584874,
8,8,0,1,3,2,1,2,1,0,0,0,0,1,0,0,77,77,77,0,0,0,0,,,,,,,738.4984544012696,None,739.5179166011512,None,740.3157189004123,None,l,1,0.5462283007800579,740.3157189004123,None,None,None,,,,,,,3,19,female,3,2022_May_05_1022,Partial repeat,2021.2.3,59.79151887584874,
8,8,0,1,3,2,1,2,1,0,0,0,0,1,0,0,77,77,77,1,0,1,0,,,,,,,,,740.8729257006198,None,741.6348418015987,None,s,1,0.6509594991803169,741.6348418015987,None,None,None,,,,,,,3,19,female,3,2022_May_05_1022,Partial repeat,2021.2.3,59.79151887584874,
8,8,0,1,3,2,1,2,1,0,0,0,0,1,0,0,77,77,77,,,,,,,,,,,,,,,,,,,,,,,,,,,,,,3,19,female,3,2022_May_05_1022,Partial repeat,2021.2.3,59.79151887584874,
8,8,0,1,3,3,1,1,1,0,1,1,0,1,0,0,78,78,78,0,0,0,0,,,,,,,742.3057394009084,None,743.3753319010139,None,744.2920115999877,None,l,1,0.8417840991169214,744.2920115999877,None,None,None,,,,,,,3,19,female,3,2022_May_05_1022,Partial repeat,2021.2.3,59.79151887584874,
8,8,0,1,3,3,1,1,1,0,1,1,0,1,0,0,78,78,78,1,0,1,0,,,,,,,,,745.1427682004869,None,746.0433124005795,None,s,1,0.7464924994856119,746.0433124005795,None,None,None,,,,,,,3,19,female,3,2022_May_05_1022,Partial repeat,2021.2.3,59.79151887584874,
8,8,0,1,3,3,1,1,1,0,1,1,0,1,0,0,78,78,78,,,,,,,,,,,,,,,,,,,,,,,,,,,,,,3,19,female,3,2022_May_05_1022,Partial repeat,2021.2.3,59.79151887584874,
8,8,0,1,2,3,1,1,0,1,0,1,0,1,0,0,79,79,79,0,0,0,0,,,,,,,746.8188121002167,None,747.9842866007239,None,748.9146335013211,None,s,1,0.5231744013726711,748.9146335013211,None,None,None,,,,,,,3,19,female,3,2022_May_05_1022,Partial repeat,2021.2.3,59.79151887584874,
8,8,0,1,2,3,1,1,0,1,0,1,0,1,0,0,79,79,79,1,0,1,0,,,,,,,,,749.45066720061,None,750.2849788013846,None,l,1,0.7688338998705149,750.2849788013846,None,None,None,,,,,,,3,19,female,3,2022_May_05_1022,Partial repeat,2021.2.3,59.79151887584874,
8,8,0,1,2,3,1,1,0,1,0,1,0,1,0,0,79,79,79,,,,,,,,,,,,,,,,,,,,,,,,,,,,,,3,19,female,3,2022_May_05_1022,Partial repeat,2021.2.3,59.79151887584874,
8,8,0,1,2,2,1,2,1,0,1,0,0,1,0,0,80,80,80,0,0,0,0,,,,,,,751.0641444008797,None,752.0922493003309,None,752.9578163009137,None,l,1,0.5200592000037432,752.9578163009137,None,None,None,,,,,,,3,19,female,3,2022_May_05_1022,Partial repeat,2021.2.3,59.79151887584874,
8,8,0,1,2,2,1,2,1,0,1,0,0,1,0,0,80,80,80,1,0,1,0,,,,,,,,,753.5001999009401,None,754.4264811016619,None,s,1,1.1953507997095585,754.4264811016619,None,None,None,,,,,,,3,19,female,3,2022_May_05_1022,Partial repeat,2021.2.3,59.79151887584874,
8,8,0,1,2,2,1,2,1,0,1,0,0,1,0,0,80,80,80,,,,,,,,,,,,,,,,,,,,,,,,,,,,,,3,19,female,3,2022_May_05_1022,Partial repeat,2021.2.3,59.79151887584874,
8,8,0,1,3,3,1,1,1,1,1,1,1,1,0,0,81,81,81,0,0,0,0,,,,,,,755.6433199010789,None,757.0185334999114,None,757.8572920002043,None,l,1,0.5565339997410774,757.8572920002043,None,None,None,,,,,,,3,19,female,3,2022_May_05_1022,Partial repeat,2021.2.3,59.79151887584874,
8,8,0,1,3,3,1,1,1,1,1,1,1,1,0,0,81,81,81,1,0,1,0,,,,,,,,,758.4438471999019,None,759.4420743007213,None,l,1,0.5637376997619867,759.4420743007213,None,None,None,,,,,,,3,19,female,3,2022_May_05_1022,Partial repeat,2021.2.3,59.79151887584874,
8,8,0,1,3,3,1,1,1,1,1,1,1,1,0,0,81,81,81,,,,,,,,,,,,,,,,,,,,,,,,,,,,,,3,19,female,3,2022_May_05_1022,Partial repeat,2021.2.3,59.79151887584874,
8,8,0,1,3,2,1,2,0,0,0,0,1,1,0,0,82,82,82,0,0,0,0,,,,,,,760.0294752009213,None,761.0931753013283,None,761.8467803001404,None,s,1,0.6390744000673294,761.8467803001404,None,None,None,,,,,,,3,19,female,3,2022_May_05_1022,Partial repeat,2021.2.3,59.79151887584874,
8,8,0,1,3,2,1,2,0,0,0,0,1,1,0,0,82,82,82,1,0,1,0,,,,,,,,,762.5002898015082,None,763.4441603012383,None,s,1,0.6736861988902092,763.4441603012383,None,None,None,,,,,,,3,19,female,3,2022_May_05_1022,Partial repeat,2021.2.3,59.79151887584874,
8,8,0,1,3,2,1,2,0,0,0,0,1,1,0,0,82,82,82,,,,,,,,,,,,,,,,,,,,,,,,,,,,,,3,19,female,3,2022_May_05_1022,Partial repeat,2021.2.3,59.79151887584874,
8,8,0,1,2,2,2,1,1,0,1,0,0,1,0,0,83,83,83,0,0,0,0,,,,,,,764.13703950122,None,765.0008399002254,None,765.8360243998468,None,l,1,0.6018518004566431,765.8360243998468,None,None,None,,,,,,,3,19,female,3,2022_May_05_1022,Partial repeat,2021.2.3,59.79151887584874,
8,8,0,1,2,2,2,1,1,0,1,0,0,1,0,0,83,83,83,1,0,1,0,,,,,,,,,766.4487591013312,None,767.2683159001172,None,s,1,0.7454353999346495,767.2683159001172,None,None,None,,,,,,,3,19,female,3,2022_May_05_1022,Partial repeat,2021.2.3,59.79151887584874,
8,8,0,1,2,2,2,1,1,0,1,0,0,1,0,0,83,83,83,,,,,,,,,,,,,,,,,,,,,,,,,,,,,,3,19,female,3,2022_May_05_1022,Partial repeat,2021.2.3,59.79151887584874,
8,8,0,1,3,3,1,1,0,0,1,1,1,1,0,0,84,84,84,0,0,0,0,,,,,,,768.0337009001523,None,769.3759388010949,None,770.2587290015072,None,s,1,0.9151617996394634,770.2587290015072,None,None,None,,,,,,,3,19,female,3,2022_May_05_1022,Partial repeat,2021.2.3,59.79151887584874,
8,8,0,1,3,3,1,1,0,0,1,1,1,1,0,0,84,84,84,1,0,1,0,,,,,,,,,771.1985077001154,None,771.9633990004659,None,s,1,0.7463503982871771,771.9633990004659,None,None,None,,,,,,,3,19,female,3,2022_May_05_1022,Partial repeat,2021.2.3,59.79151887584874,
8,8,0,1,3,3,1,1,0,0,1,1,1,1,0,0,84,84,84,,,,,,,,,,,,,,,,,,,,,,,,,,,,,,3,19,female,3,2022_May_05_1022,Partial repeat,2021.2.3,59.79151887584874,
8,8,0,1,3,2,1,2,1,1,0,0,1,1,0,0,85,85,85,0,0,0,0,,,,,,,772.7399570010602,None,774.3859321009368,None,775.2167597003281,None,l,1,0.5970582999289036,775.2167597003281,None,None,None,,,,,,,3,19,female,3,2022_May_05_1022,Partial repeat,2021.2.3,59.79151887584874,
8,8,0,1,3,2,1,2,1,1,0,0,1,1,0,0,85,85,85,1,0,1,0,,,,,,,,,775.8252385016531,None,776.7893192004412,None,l,1,1.3845662008970976,776.7893192004412,None,None,None,,,,,,,3,19,female,3,2022_May_05_1022,Partial repeat,2021.2.3,59.79151887584874,
8,8,0,1,3,2,1,2,1,1,0,0,1,1,0,0,85,85,85,,,,,,,,,,,,,,,,,,,,,,,,,,,,,,3,19,female,3,2022_May_05_1022,Partial repeat,2021.2.3,59.79151887584874,
8,8,0,1,3,2,1,1,0,1,0,1,0,1,0,0,86,86,86,0,0,0,0,,,,,,,778.1994633004069,None,778.8777566011995,None,779.8926950003952,None,s,1,0.5371870994567871,779.8926950003952,None,None,None,,,,,,,3,19,female,3,2022_May_05_1022,Partial repeat,2021.2.3,59.79151887584874,
8,8,0,1,3,2,1,1,0,1,0,1,0,1,0,0,86,86,86,1,0,1,0,,,,,,,,,780.4392081014812,None,781.3131116013974,None,l,1,0.7326589003205299,781.3131116013974,None,None,None,,,,,,,3,19,female,3,2022_May_05_1022,Partial repeat,2021.2.3,59.79151887584874,
8,8,0,1,3,2,1,1,0,1,0,1,0,1,0,0,86,86,86,,,,,,,,,,,,,,,,,,,,,,,,,,,,,,3,19,female,3,2022_May_05_1022,Partial repeat,2021.2.3,59.79151887584874,
8,8,0,1,3,3,1,2,1,0,1,0,0,1,0,0,87,87,87,0,0,0,0,,,,,,,782.0735061001033,None,783.8207077998668,None,784.5362459011376,None,l,1,0.5255760997533798,784.5362459011376,None,None,None,,,,,,,3,19,female,3,2022_May_05_1022,Partial repeat,2021.2.3,59.79151887584874,
8,8,0,1,3,3,1,2,1,0,1,0,0,1,0,0,87,87,87,1,0,1,0,,,,,,,,,785.0825660005212,None,786.0886450000107,None,s,1,0.7011676002293825,786.0886450000107,None,None,None,,,,,,,3,19,female,3,2022_May_05_1022,Partial repeat,2021.2.3,59.79151887584874,
8,8,0,1,3,3,1,2,1,0,1,0,0,1,0,0,87,87,87,,,,,,,,,,,,,,,,,,,,,,,,,,,,,,3,19,female,3,2022_May_05_1022,Partial repeat,2021.2.3,59.79151887584874,
8,8,0,1,2,2,1,1,0,0,1,1,1,1,0,0,88,88,88,0,0,0,0,,,,,,,786.821563700214,None,787.8452039007097,None,788.6287173014134,None,s,1,0.6730589997023344,788.6287173014134,None,None,None,,,,,,,3,19,female,3,2022_May_05_1022,Partial repeat,2021.2.3,59.79151887584874,
8,8,0,1,2,2,1,1,0,0,1,1,1,1,0,0,88,88,88,1,0,1,0,,,,,,,,,789.3233399000019,None,790.0965296011418,None,s,1,0.5732942000031471,790.0965296011418,None,None,None,,,,,,,3,19,female,3,2022_May_05_1022,Partial repeat,2021.2.3,59.79151887584874,
8,8,0,1,2,2,1,1,0,0,1,1,1,1,0,0,88,88,88,,,,,,,,,,,,,,,,,,,,,,,,,,,,,,3,19,female,3,2022_May_05_1022,Partial repeat,2021.2.3,59.79151887584874,
8,8,0,1,3,2,1,1,1,1,0,1,1,1,0,0,89,89,89,0,0,0,0,,,,,,,790.6938439998776,None,791.6859546005726,None,792.5858555007726,None,l,1,0.6919656004756689,792.5858555007726,None,None,None,,,,,,,3,19,female,3,2022_May_05_1022,Partial repeat,2021.2.3,59.79151887584874,
8,8,0,1,3,2,1,1,1,1,0,1,1,1,0,0,89,89,89,1,0,1,0,,,,,,,,,793.2967198006809,None,794.2885799016804,None,l,1,0.6692102011293173,794.2885799016804,None,None,None,,,,,,,3,19,female,3,2022_May_05_1022,Partial repeat,2021.2.3,59.79151887584874,
8,8,0,1,3,2,1,1,1,1,0,1,1,1,0,0,89,89,89,,,,,,,,,,,,,,,,,,,,,,,,,,,,,,3,19,female,3,2022_May_05_1022,Partial repeat,2021.2.3,59.79151887584874,
8,8,0,1,2,2,2,1,0,1,1,0,0,1,0,0,90,90,90,0,0,0,0,,,,,,,794.9823164008558,None,795.7940510008484,None,796.5265715010464,None,s,1,0.6633515004068613,796.5265715010464,None,None,None,,,,,,,3,19,female,3,2022_May_05_1022,Partial repeat,2021.2.3,59.79151887584874,
8,8,0,1,2,2,2,1,0,1,1,0,0,1,0,0,90,90,90,1,0,1,0,,,,,,,,,797.2000962011516,None,798.0636360999197,None,l,1,0.5581656005233526,798.0636360999197,None,None,None,,,,,,,3,19,female,3,2022_May_05_1022,Partial repeat,2021.2.3,59.79151887584874,
8,8,0,1,2,2,2,1,0,1,1,0,0,1,0,0,90,90,90,,,,,,,,,,,,,,,,,,,,,,,,,,,,,,3,19,female,3,2022_May_05_1022,Partial repeat,2021.2.3,59.79151887584874,
8,8,0,1,2,2,1,1,0,1,1,1,0,1,0,0,91,91,91,0,0,0,0,,,,,,,798.6465234998614,None,799.5515420008451,None,800.4152736011893,None,s,1,0.6144955009222031,800.4152736011893,None,None,None,,,,,,,3,19,female,3,2022_May_05_1022,Partial repeat,2021.2.3,59.79151887584874,
8,8,0,1,2,2,1,1,0,1,1,1,0,1,0,0,91,91,91,1,0,1,0,,,,,,,,,801.0489070005715,None,802.0213600005955,None,l,1,0.5283919014036655,802.0213600005955,None,None,None,,,,,,,3,19,female,3,2022_May_05_1022,Partial repeat,2021.2.3,59.79151887584874,
8,8,0,1,2,2,1,1,0,1,1,1,0,1,0,0,91,91,91,,,,,,,,,,,,,,,,,,,,,,,,,,,,,,3,19,female,3,2022_May_05_1022,Partial repeat,2021.2.3,59.79151887584874,
8,8,0,1,3,3,2,1,0,0,1,0,1,1,0,0,92,92,92,0,0,0,0,,,,,,,802.5733072012663,None,805.5630355998874,None,806.5122677013278,None,s,1,0.9735672995448112,806.5122677013278,None,None,None,,,,,,,3,19,female,3,2022_May_05_1022,Partial repeat,2021.2.3,59.79151887584874,
8,8,0,1,3,3,2,1,0,0,1,0,1,1,0,0,92,92,92,1,0,1,0,,,,,,,,,807.5066857002676,None,808.2481722999364,None,s,1,1.669600399211049,808.2481722999364,None,None,None,,,,,,,3,19,female,3,2022_May_05_1022,Partial repeat,2021.2.3,59.79151887584874,
8,8,0,1,3,3,2,1,0,0,1,0,1,1,0,0,92,92,92,,,,,,,,,,,,,,,,,,,,,,,,,,,,,,3,19,female,3,2022_May_05_1022,Partial repeat,2021.2.3,59.79151887584874,
8,8,0,1,3,3,2,2,1,1,1,1,1,1,0,0,93,93,93,0,0,0,0,,,,,,,809.9357423000038,None,811.5914124008268,None,812.3099823016673,None,l,1,0.6237754002213478,812.3099823016673,None,None,None,,,,,,,3,19,female,3,2022_May_05_1022,Partial repeat,2021.2.3,59.79151887584874,
8,8,0,1,3,3,2,2,1,1,1,1,1,1,0,0,93,93,93,1,0,1,0,,,,,,,,,812.9619221016765,None,813.9761306010187,None,l,1,0.5896707996726036,813.9761306010187,None,None,None,,,,,,,3,19,female,3,2022_May_05_1022,Partial repeat,2021.2.3,59.79151887584874,
8,8,0,1,3,3,2,2,1,1,1,1,1,1,0,0,93,93,93,,,,,,,,,,,,,,,,,,,,,,,,,,,,,,3,19,female,3,2022_May_05_1022,Partial repeat,2021.2.3,59.79151887584874,
8,8,0,1,2,3,1,2,1,0,0,0,0,1,0,0,94,94,94,0,0,0,0,,,,,,,814.5913856010884,None,815.5660438016057,None,816.3643059004098,None,l,1,0.5535362008959055,816.3643059004098,None,None,None,,,,,,,3,19,female,3,2022_May_05_1022,Partial repeat,2021.2.3,59.79151887584874,
8,8,0,1,2,3,1,2,1,0,0,0,0,1,0,0,94,94,94,1,0,1,0,,,,,,,,,816.9318595007062,None,817.7328142002225,None,s,1,0.8970049005001783,817.7328142002225,None,None,None,,,,,,,3,19,female,3,2022_May_05_1022,Partial repeat,2021.2.3,59.79151887584874,
8,8,0,1,2,3,1,2,1,0,0,0,0,1,0,0,94,94,94,,,,,,,,,,,,,,,,,,,,,,,,,,,,,,3,19,female,3,2022_May_05_1022,Partial repeat,2021.2.3,59.79151887584874,
8,8,0,1,2,2,2,1,0,0,1,0,1,1,0,0,95,95,95,0,0,0,0,,,,,,,818.641251500696,None,819.5568930003792,None,820.5723689999431,None,s,1,1.7695330008864403,820.5723689999431,None,None,None,,,,,,,3,19,female,3,2022_May_05_1022,Partial repeat,2021.2.3,59.79151887584874,
8,8,0,1,2,2,2,1,0,0,1,0,1,1,0,0,95,95,95,1,0,1,0,,,,,,,,,822.3676577005535,None,823.2935715001076,None,s,1,0.792237201705575,823.2935715001076,None,None,None,,,,,,,3,19,female,3,2022_May_05_1022,Partial repeat,2021.2.3,59.79151887584874,
8,8,0,1,2,2,2,1,0,0,1,0,1,1,0,0,95,95,95,,,,,,,,,,,,,,,,,,,,,,,,,,,,,,3,19,female,3,2022_May_05_1022,Partial repeat,2021.2.3,59.79151887584874,
8,8,0,1,3,3,2,1,1,0,1,0,0,1,0,0,96,96,96,0,0,0,0,,,,,,,824.1157959010452,None,825.2682390008122,None,826.2500970009714,None,l,1,0.5717549994587898,826.2500970009714,None,None,None,,,,,,,3,19,female,3,2022_May_05_1022,Partial repeat,2021.2.3,59.79151887584874,
8,8,0,1,3,3,2,1,1,0,1,0,0,1,0,0,96,96,96,1,0,1,0,,,,,,,,,826.8392463009804,None,827.6520784012973,None,s,1,0.6817652005702257,827.6520784012973,None,None,None,,,,,,,3,19,female,3,2022_May_05_1022,Partial repeat,2021.2.3,59.79151887584874,
8,8,0,1,3,3,2,1,1,0,1,0,0,1,0,0,96,96,96,,,,,,,,,,,,,,,,,,,,,,,,,,,,,,3,19,female,3,2022_May_05_1022,Partial repeat,2021.2.3,59.79151887584874,
8,8,0,1,2,3,1,2,0,0,0,0,1,1,0,0,97,97,97,0,0,0,0,,,,,,,828.3504879008979,None,829.3762654010206,None,830.1240170001984,None,s,1,0.7298365999013186,830.1240170001984,None,None,None,,,,,,,3,19,female,3,2022_May_05_1022,Partial repeat,2021.2.3,59.79151887584874,
8,8,0,1,2,3,1,2,0,0,0,0,1,1,0,0,97,97,97,1,0,1,0,,,,,,,,,830.8674797005951,None,831.8443945012987,None,s,1,0.8254131004214287,831.8443945012987,None,None,None,,,,,,,3,19,female,3,2022_May_05_1022,Partial repeat,2021.2.3,59.79151887584874,
8,8,0,1,2,3,1,2,0,0,0,0,1,1,0,0,97,97,97,,,,,,,,,,,,,,,,,,,,,,,,,,,,,,3,19,female,3,2022_May_05_1022,Partial repeat,2021.2.3,59.79151887584874,
8,8,0,1,3,2,2,1,0,0,0,0,1,1,0,0,98,98,98,0,0,0,0,,,,,,,832.6924632005394,None,834.0352990012616,None,834.8167759012431,None,s,1,0.7650785986334085,834.8167759012431,None,None,None,,,,,,,3,19,female,3,2022_May_05_1022,Partial repeat,2021.2.3,59.79151887584874,
8,8,0,1,3,2,2,1,0,0,0,0,1,1,0,0,98,98,98,1,0,1,0,,,,,,,,,835.6013424005359,None,836.6024732999504,None,s,1,1.2593757007271051,836.6024732999504,None,None,None,,,,,,,3,19,female,3,2022_May_05_1022,Partial repeat,2021.2.3,59.79151887584874,
8,8,0,1,3,2,2,1,0,0,0,0,1,1,0,0,98,98,98,,,,,,,,,,,,,,,,,,,,,,,,,,,,,,3,19,female,3,2022_May_05_1022,Partial repeat,2021.2.3,59.79151887584874,
8,8,0,1,2,2,1,2,0,1,1,0,0,1,0,0,99,99,99,0,0,0,0,,,,,,,837.8832930009812,None,838.878056101501,None,839.859958101064,None,s,1,0.46590130031108856,839.859958101064,None,None,None,,,,,,,3,19,female,3,2022_May_05_1022,Partial repeat,2021.2.3,59.79151887584874,
8,8,0,1,2,2,1,2,0,1,1,0,0,1,0,0,99,99,99,1,0,1,0,,,,,,,,,840.3445188011974,None,841.245010400191,None,l,1,0.6808441001921892,841.245010400191,None,None,None,,,,,,,3,19,female,3,2022_May_05_1022,Partial repeat,2021.2.3,59.79151887584874,
8,8,0,1,2,2,1,2,0,1,1,0,0,1,0,0,99,99,99,,,,,,,,,,,,,,,,,,,,,,,,,,,,,,3,19,female,3,2022_May_05_1022,Partial repeat,2021.2.3,59.79151887584874,
8,8,0,1,3,2,2,2,1,0,0,1,0,1,0,0,100,100,100,0,0,0,0,,,,,,,841.9456739015877,None,843.0360694006085,None,843.8677565008402,None,l,1,0.6580915004014969,843.8677565008402,None,None,None,,,,,,,3,19,female,3,2022_May_05_1022,Partial repeat,2021.2.3,59.79151887584874,
8,8,0,1,3,2,2,2,1,0,0,1,0,1,0,0,100,100,100,1,0,1,0,,,,,,,,,844.5426369998604,None,845.4364968016744,None,s,1,0.9293694011867046,845.4364968016744,None,None,None,,,,,,,3,19,female,3,2022_May_05_1022,Partial repeat,2021.2.3,59.79151887584874,
8,8,0,1,3,2,2,2,1,0,0,1,0,1,0,0,100,100,100,,,,,,,,,,,,,,,,,,,,,,,,,,,,,,3,19,female,3,2022_May_05_1022,Partial repeat,2021.2.3,59.79151887584874,
8,8,0,1,3,2,2,2,1,1,0,1,1,1,0,0,101,101,101,0,0,0,0,,,,,,,846.3961848001927,None,847.9457428008318,None,848.8610530998558,None,l,1,0.6088304985314608,848.8610530998558,None,None,None,,,,,,,3,19,female,3,2022_May_05_1022,Partial repeat,2021.2.3,59.79151887584874,
8,8,0,1,3,2,2,2,1,1,0,1,1,1,0,0,101,101,101,1,0,1,0,,,,,,,,,849.4881548006088,None,850.480186900124,None,l,1,0.5016768015921116,850.480186900124,None,None,None,,,,,,,3,19,female,3,2022_May_05_1022,Partial repeat,2021.2.3,59.79151887584874,
8,8,0,1,3,2,2,2,1,1,0,1,1,1,0,0,101,101,101,,,,,,,,,,,,,,,,,,,,,,,,,,,,,,3,19,female,3,2022_May_05_1022,Partial repeat,2021.2.3,59.79151887584874,
8,8,0,1,2,2,1,2,1,1,1,0,1,1,0,0,102,102,102,0,0,0,0,,,,,,,851.004775101319,None,852.0871191006154,None,853.0688682999462,None,l,1,0.5929656010121107,853.0688682999462,None,None,None,,,,,,,3,19,female,3,2022_May_05_1022,Partial repeat,2021.2.3,59.79151887584874,
8,8,0,1,2,2,1,2,1,1,1,0,1,1,0,0,102,102,102,1,0,1,0,,,,,,,,,853.6786369010806,None,854.454177999869,None,l,1,0.6396708004176617,854.454177999869,None,None,None,,,,,,,3,19,female,3,2022_May_05_1022,Partial repeat,2021.2.3,59.79151887584874,
8,8,0,1,2,2,1,2,1,1,1,0,1,1,0,0,102,102,102,,,,,,,,,,,,,,,,,,,,,,,,,,,,,,3,19,female,3,2022_May_05_1022,Partial repeat,2021.2.3,59.79151887584874,
8,8,0,1,2,3,2,2,1,1,0,1,1,1,0,0,103,103,103,0,0,0,0,,,,,,,855.1104684006423,None,856.2118414007127,None,856.9756492003798,None,l,1,0.5262048002332449,856.9756492003798,None,None,None,,,,,,,3,19,female,3,2022_May_05_1022,Partial repeat,2021.2.3,59.79151887584874,
8,8,0,1,2,3,2,2,1,1,0,1,1,1,0,0,103,103,103,1,0,1,0,,,,,,,,,857.5179438013583,None,858.278499301523,None,l,1,0.5593528002500534,858.278499301523,None,None,None,,,,,,,3,19,female,3,2022_May_05_1022,Partial repeat,2021.2.3,59.79151887584874,
8,8,0,1,2,3,2,2,1,1,0,1,1,1,0,0,103,103,103,,,,,,,,,,,,,,,,,,,,,,,,,,,,,,3,19,female,3,2022_May_05_1022,Partial repeat,2021.2.3,59.79151887584874,
8,8,0,1,2,2,2,2,0,1,1,1,0,1,0,0,104,104,104,0,0,0,0,,,,,,,858.8524478003383,None,860.0860297009349,None,860.8674004003406,None,s,1,1.1864947006106377,860.8674004003406,None,None,None,,,,,,,3,19,female,3,2022_May_05_1022,Partial repeat,2021.2.3,59.79151887584874,
8,8,0,1,2,2,2,2,0,1,1,1,0,1,0,0,104,104,104,1,0,1,0,,,,,,,,,862.0707807000726,None,862.9542481005192,None,l,1,0.7316063996404409,862.9542481005192,None,None,None,,,,,,,3,19,female,3,2022_May_05_1022,Partial repeat,2021.2.3,59.79151887584874,
8,8,0,1,2,2,2,2,0,1,1,1,0,1,0,0,104,104,104,,,,,,,,,,,,,,,,,,,,,,,,,,,,,,3,19,female,3,2022_May_05_1022,Partial repeat,2021.2.3,59.79151887584874,
8,8,0,1,2,2,1,2,0,0,1,0,1,1,0,0,105,105,105,0,0,0,0,,,,,,,863.7052187006921,None,864.728345701471,None,865.5935498010367,None,s,1,0.788340799510479,865.5935498010367,None,None,None,,,,,,,3,19,female,3,2022_May_05_1022,Partial repeat,2021.2.3,59.79151887584874,
8,8,0,1,2,2,1,2,0,0,1,0,1,1,0,0,105,105,105,1,0,1,0,,,,,,,,,866.3931018002331,None,867.4135011006147,None,s,1,0.7684357985854149,867.4135011006147,None,None,None,,,,,,,3,19,female,3,2022_May_05_1022,Partial repeat,2021.2.3,59.79151887584874,
8,8,0,1,2,2,1,2,0,0,1,0,1,1,0,0,105,105,105,,,,,,,,,,,,,,,,,,,,,,,,,,,,,,3,19,female,3,2022_May_05_1022,Partial repeat,2021.2.3,59.79151887584874,
8,8,0,1,2,3,2,1,1,1,0,0,1,1,0,0,106,106,106,0,0,0,0,,,,,,,868.1960361003876,None,869.3707392010838,None,870.286011300981,None,l,1,0.4798379000276327,870.286011300981,None,None,None,,,,,,,3,19,female,3,2022_May_05_1022,Partial repeat,2021.2.3,59.79151887584874,
8,8,0,1,2,3,2,1,1,1,0,0,1,1,0,0,106,106,106,1,0,1,0,,,,,,,,,870.7876213006675,None,871.6374348010868,None,l,1,0.4644172992557287,871.6374348010868,None,None,None,,,,,,,3,19,female,3,2022_May_05_1022,Partial repeat,2021.2.3,59.79151887584874,
8,8,0,1,2,3,2,1,1,1,0,0,1,1,0,0,106,106,106,,,,,,,,,,,,,,,,,,,,,,,,,,,,,,3,19,female,3,2022_May_05_1022,Partial repeat,2021.2.3,59.79151887584874,
8,8,0,1,3,2,2,2,0,1,0,1,0,1,0,0,107,107,107,0,0,0,0,,,,,,,872.1204649005085,None,873.2282738015056,None,874.1096877008677,None,s,1,1.3681697007268667,874.1096877008677,None,None,None,,,,,,,3,19,female,3,2022_May_05_1022,Partial repeat,2021.2.3,59.79151887584874,
8,8,0,1,3,2,2,2,0,1,0,1,0,1,0,0,107,107,107,1,0,1,0,,,,,,,,,875.5033303014934,None,876.3800319004804,None,l,1,0.7858227994292974,876.3800319004804,None,None,None,,,,,,,3,19,female,3,2022_May_05_1022,Partial repeat,2021.2.3,59.79151887584874,
8,8,0,1,3,2,2,2,0,1,0,1,0,1,0,0,107,107,107,,,,,,,,,,,,,,,,,,,,,,,,,,,,,,3,19,female,3,2022_May_05_1022,Partial repeat,2021.2.3,59.79151887584874,
8,8,0,1,2,3,1,2,0,1,0,0,0,1,0,0,108,108,108,0,0,0,0,,,,,,,877.1861364003271,None,878.338215900585,None,879.1022407002747,None,s,1,0.6236016005277634,879.1022407002747,None,None,None,,,,,,,3,19,female,3,2022_May_05_1022,Partial repeat,2021.2.3,59.79151887584874,
8,8,0,1,2,3,1,2,0,1,0,0,0,1,0,0,108,108,108,1,0,1,0,,,,,,,,,879.7538288012147,None,880.7050357013941,None,l,1,0.7088323999196291,880.7050357013941,None,None,None,,,,,,,3,19,female,3,2022_May_05_1022,Partial repeat,2021.2.3,59.79151887584874,
8,8,0,1,2,3,1,2,0,1,0,0,0,1,0,0,108,108,108,,,,,,,,,,,,,,,,,,,,,,,,,,,,,,3,19,female,3,2022_May_05_1022,Partial repeat,2021.2.3,59.79151887584874,
8,8,0,1,2,2,2,2,1,0,1,1,0,1,0,0,109,109,109,0,0,0,0,,,,,,,881.4247510004789,None,882.6131724007428,None,883.4614133015275,None,l,1,0.560437498614192,883.4614133015275,None,None,None,,,,,,,3,19,female,3,2022_May_05_1022,Partial repeat,2021.2.3,59.79151887584874,
8,8,0,1,2,2,2,2,1,0,1,1,0,1,0,0,109,109,109,1,0,1,0,,,,,,,,,884.0463292002678,None,884.7968752011657,None,l,0,0.5129886996001005,884.7968752011657,None,885.3225058000535,None,,,,,,,3,19,female,3,2022_May_05_1022,Partial repeat,2021.2.3,59.79151887584874,
8,8,0,1,2,2,2,2,1,0,1,1,0,1,0,0,109,109,109,,,,,,,,,,,,,,,,,,,,,,,,,,,,,,3,19,female,3,2022_May_05_1022,Partial repeat,2021.2.3,59.79151887584874,
8,8,0,1,2,3,2,1,0,0,0,0,1,1,0,0,110,110,110,0,0,0,0,,,,,,,885.8361761998385,None,887.2722722999752,None,888.1539548002183,None,s,1,0.6118995994329453,888.1539548002183,None,None,None,,,,,,,3,19,female,3,2022_May_05_1022,Partial repeat,2021.2.3,59.79151887584874,
8,8,0,1,2,3,2,1,0,0,0,0,1,1,0,0,110,110,110,1,0,1,0,,,,,,,,,888.787622300908,None,889.6058029010892,None,s,1,0.6481461003422737,889.6058029010892,None,None,None,,,,,,,3,19,female,3,2022_May_05_1022,Partial repeat,2021.2.3,59.79151887584874,
8,8,0,1,2,3,2,1,0,0,0,0,1,1,0,0,110,110,110,,,,,,,,,,,,,,,,,,,,,,,,,,,,,,3,19,female,3,2022_May_05_1022,Partial repeat,2021.2.3,59.79151887584874,
8,8,0,1,3,3,2,2,0,0,1,1,1,1,0,0,111,111,111,0,0,0,0,,,,,,,890.2840611003339,None,891.4136236011982,None,892.2957040015608,None,s,1,0.7181483004242182,892.2957040015608,None,None,None,,,,,,,3,19,female,3,2022_May_05_1022,Partial repeat,2021.2.3,59.79151887584874,
8,8,0,1,3,3,2,2,0,0,1,1,1,1,0,0,111,111,111,1,0,1,0,,,,,,,,,893.0362255014479,None,893.8141032010317,None,s,1,0.5357159990817308,893.8141032010317,None,None,None,,,,,,,3,19,female,3,2022_May_05_1022,Partial repeat,2021.2.3,59.79151887584874,
8,8,0,1,3,3,2,2,0,0,1,1,1,1,0,0,111,111,111,,,,,,,,,,,,,,,,,,,,,,,,,,,,,,3,19,female,3,2022_May_05_1022,Partial repeat,2021.2.3,59.79151887584874,
8,8,0,1,2,3,2,1,0,1,0,0,0,1,0,0,112,112,112,0,0,0,0,,,,,,,894.3612512014806,None,895.2376974001527,None,895.9683567006141,None,s,1,0.6534596011042595,895.9683567006141,None,None,None,,,,,,,3,19,female,3,2022_May_05_1022,Partial repeat,2021.2.3,59.79151887584874,
8,8,0,1,2,3,2,1,0,1,0,0,0,1,0,0,112,112,112,1,0,1,0,,,,,,,,,896.6366870012134,None,897.6216867007315,None,l,1,0.5442009996622801,897.6216867007315,None,None,None,,,,,,,3,19,female,3,2022_May_05_1022,Partial repeat,2021.2.3,59.79151887584874,
8,8,0,1,2,3,2,1,0,1,0,0,0,1,0,0,112,112,112,,,,,,,,,,,,,,,,,,,,,,,,,,,,,,3,19,female,3,2022_May_05_1022,Partial repeat,2021.2.3,59.79151887584874,
8,8,0,1,2,3,2,1,1,0,0,0,0,1,0,0,113,113,113,0,0,0,0,,,,,,,898.1886952016503,None,899.6129218004644,None,900.3944057002664,None,l,1,0.6674467008560896,900.3944057002664,None,None,None,,,,,,,3,19,female,3,2022_May_05_1022,Partial repeat,2021.2.3,59.79151887584874,
8,8,0,1,2,3,2,1,1,0,0,0,0,1,0,0,113,113,113,1,0,1,0,,,,,,,,,901.087587300688,None,902.0467987004668,None,l,0,0.5110529996454716,902.0467987004668,None,902.5711484998465,None,,,,,,,3,19,female,3,2022_May_05_1022,Partial repeat,2021.2.3,59.79151887584874,
8,8,0,1,2,3,2,1,1,0,0,0,0,1,0,0,113,113,113,,,,,,,,,,,,,,,,,,,,,,,,,,,,,,3,19,female,3,2022_May_05_1022,Partial repeat,2021.2.3,59.79151887584874,
8,8,0,1,3,3,2,2,1,0,1,1,0,1,0,0,114,114,114,0,0,0,0,,,,,,,903.0864563006908,None,904.3889062013477,None,905.3198756016791,None,l,1,0.5340556986629963,905.3198756016791,None,None,None,,,,,,,3,19,female,3,2022_May_05_1022,Partial repeat,2021.2.3,59.79151887584874,
8,8,0,1,3,3,2,2,1,0,1,1,0,1,0,0,114,114,114,1,0,1,0,,,,,,,,,905.86406419985,None,906.6389137003571,None,s,1,0.5989079996943474,906.6389137003571,None,None,None,,,,,,,3,19,female,3,2022_May_05_1022,Partial repeat,2021.2.3,59.79151887584874,
8,8,0,1,3,3,2,2,1,0,1,1,0,1,0,0,114,114,114,,,,,,,,,,,,,,,,,,,,,,,,,,,,,,3,19,female,3,2022_May_05_1022,Partial repeat,2021.2.3,59.79151887584874,
8,8,0,1,3,2,2,1,1,1,0,0,1,1,0,0,115,115,115,0,0,0,0,,,,,,,907.2497880998999,None,908.5636809002608,None,909.5789357014,None,l,1,0.53891840018332,909.5789357014,None,None,None,,,,,,,3,19,female,3,2022_May_05_1022,Partial repeat,2021.2.3,59.79151887584874,
8,8,0,1,3,2,2,1,1,1,0,0,1,1,0,0,115,115,115,1,0,1,0,,,,,,,,,910.1425571013242,None,910.9308449011296,None,l,1,0.5310088004916906,910.9308449011296,None,None,None,,,,,,,3,19,female,3,2022_May_05_1022,Partial repeat,2021.2.3,59.79151887584874,
8,8,0,1,3,2,2,1,1,1,0,0,1,1,0,0,115,115,115,,,,,,,,,,,,,,,,,,,,,,,,,,,,,,3,19,female,3,2022_May_05_1022,Partial repeat,2021.2.3,59.79151887584874,
8,8,0,1,3,2,1,1,1,0,0,1,0,1,0,0,116,116,116,0,0,0,0,,,,,,,911.4802503008395,None,912.3877869006246,None,913.319561701268,None,l,1,0.4783576000481844,913.319561701268,None,None,None,,,,,,,3,19,female,3,2022_May_05_1022,Partial repeat,2021.2.3,59.79151887584874,
8,8,0,1,3,2,1,1,1,0,0,1,0,1,0,0,116,116,116,1,0,1,0,,,,,,,,,913.821115700528,None,914.6379703003913,None,s,1,0.8158772997558117,914.6379703003913,None,None,None,,,,,,,3,19,female,3,2022_May_05_1022,Partial repeat,2021.2.3,59.79151887584874,
8,8,0,1,3,2,1,1,1,0,0,1,0,1,0,0,116,116,116,,,,,,,,,,,,,,,,,,,,,,,,,,,,,,3,19,female,3,2022_May_05_1022,Partial repeat,2021.2.3,59.79151887584874,
8,8,0,1,3,2,1,2,0,1,0,0,0,1,0,0,117,117,117,0,0,0,0,,,,,,,915.4693913012743,None,917.1303226016462,None,917.9619077015668,None,s,1,0.6359611004590988,917.9619077015668,None,None,None,,,,,,,3,19,female,3,2022_May_05_1022,Partial repeat,2021.2.3,59.79151887584874,
8,8,0,1,3,2,1,2,0,1,0,0,0,1,0,0,117,117,117,1,0,1,0,,,,,,,,,918.6134737003595,None,919.3470788002014,None,l,1,0.47481480054557323,919.3470788002014,None,None,None,,,,,,,3,19,female,3,2022_May_05_1022,Partial repeat,2021.2.3,59.79151887584874,
8,8,0,1,3,2,1,2,0,1,0,0,0,1,0,0,117,117,117,,,,,,,,,,,,,,,,,,,,,,,,,,,,,,3,19,female,3,2022_May_05_1022,Partial repeat,2021.2.3,59.79151887584874,
8,8,0,1,2,2,1,1,1,0,1,1,0,1,0,0,118,118,118,0,0,0,0,,,,,,,919.8531408999115,None,921.3385846000165,None,922.0865428000689,None,l,1,0.6313103009015322,922.0865428000689,None,None,None,,,,,,,3,19,female,3,2022_May_05_1022,Partial repeat,2021.2.3,59.79151887584874,
8,8,0,1,2,2,1,1,1,0,1,1,0,1,0,0,118,118,118,1,0,1,0,,,,,,,,,922.7388454005122,None,923.6222256012261,None,s,1,0.6236741002649069,923.6222256012261,None,None,None,,,,,,,3,19,female,3,2022_May_05_1022,Partial repeat,2021.2.3,59.79151887584874,
8,8,0,1,2,2,1,1,1,0,1,1,0,1,0,0,118,118,118,,,,,,,,,,,,,,,,,,,,,,,,,,,,,,3,19,female,3,2022_May_05_1022,Partial repeat,2021.2.3,59.79151887584874,
8,8,0,1,2,3,1,1,0,0,0,1,1,1,0,0,119,119,119,0,0,0,0,,,,,,,924.2771530002356,None,925.964176600799,None,926.9620987009257,None,s,1,0.8197435010224581,926.9620987009257,None,None,None,,,,,,,3,19,female,3,2022_May_05_1022,Partial repeat,2021.2.3,59.79151887584874,
8,8,0,1,2,3,1,1,0,0,0,1,1,1,0,0,119,119,119,1,0,1,0,,,,,,,,,927.8040809016675,None,928.6319540012628,None,s,1,0.8859000001102686,928.6319540012628,None,None,None,,,,,,,3,19,female,3,2022_May_05_1022,Partial repeat,2021.2.3,59.79151887584874,
8,8,0,1,2,3,1,1,0,0,0,1,1,1,0,0,119,119,119,,,,,,,,,,,,,,,,,,,,,,,,,,,,,,3,19,female,3,2022_May_05_1022,Partial repeat,2021.2.3,59.79151887584874,
8,8,0,1,3,3,2,1,0,1,1,0,0,1,0,0,120,120,120,0,0,0,0,,,,,,,929.5468342006207,None,931.0073649007827,None,931.872084800154,None,s,1,0.7097640000283718,931.872084800154,None,None,None,,,,,,,3,19,female,3,2022_May_05_1022,Partial repeat,2021.2.3,59.79151887584874,
8,8,0,1,3,3,2,1,0,1,1,0,0,1,0,0,120,120,120,1,0,1,0,,,,,,,,,932.6079877000302,None,933.6247428003699,None,l,1,0.5330499988049269,933.6247428003699,None,None,None,,,,,,,3,19,female,3,2022_May_05_1022,Partial repeat,2021.2.3,59.79151887584874,
8,8,0,1,3,3,2,1,0,1,1,0,0,1,0,0,120,120,120,,,,,,,,,,,,,,,,,,,,,,,,,,,,,,3,19,female,3,2022_May_05_1022,Partial repeat,2021.2.3,59.79151887584874,
8,8,0,1,2,3,1,2,1,1,0,0,1,1,0,0,121,121,121,0,0,0,0,,,,,,,934.1730677001178,None,935.0986181013286,None,935.9803320001811,None,l,1,0.44152089953422546,935.9803320001811,None,None,None,,,,,,,3,19,female,3,2022_May_05_1022,Partial repeat,2021.2.3,59.79151887584874,
8,8,0,1,2,3,1,2,1,1,0,0,1,1,0,0,121,121,121,1,0,1,0,,,,,,,,,936.440536800772,None,937.2988240011036,None,l,1,0.4991166014224291,937.2988240011036,None,None,None,,,,,,,3,19,female,3,2022_May_05_1022,Partial repeat,2021.2.3,59.79151887584874,
8,8,0,1,2,3,1,2,1,1,0,0,1,1,0,0,121,121,121,,,,,,,,,,,,,,,,,,,,,,,,,,,,,,3,19,female,3,2022_May_05_1022,Partial repeat,2021.2.3,59.79151887584874,
8,8,0,1,2,2,1,1,1,1,1,1,1,1,0,0,122,122,122,0,0,0,0,,,,,,,937.8090222012252,None,938.9728638008237,None,939.8044901005924,None,l,1,0.4254369009286165,939.8044901005924,None,None,None,,,,,,,3,19,female,3,2022_May_05_1022,Partial repeat,2021.2.3,59.79151887584874,
8,8,0,1,2,2,1,1,1,1,1,1,1,1,0,0,122,122,122,1,0,1,0,,,,,,,,,940.2415928002447,None,941.1570428013802,None,l,1,0.4728593993932009,941.1570428013802,None,None,None,,,,,,,3,19,female,3,2022_May_05_1022,Partial repeat,2021.2.3,59.79151887584874,
8,8,0,1,2,2,1,1,1,1,1,1,1,1,0,0,122,122,122,,,,,,,,,,,,,,,,,,,,,,,,,,,,,,3,19,female,3,2022_May_05_1022,Partial repeat,2021.2.3,59.79151887584874,
8,8,0,1,3,3,2,2,0,1,1,1,0,1,0,0,123,123,123,0,0,0,0,,,,,,,941.6614919006824,None,942.7468874007463,None,943.7453830000013,None,l,0,0.4604695998132229,943.7453830000013,None,944.2219748012722,None,,,,,,,3,19,female,3,2022_May_05_1022,Partial repeat,2021.2.3,59.79151887584874,
8,8,0,1,3,3,2,2,0,1,1,1,0,1,0,0,123,123,123,1,0,1,0,,,,,,,,,944.73405460082,None,945.6323940008879,None,l,1,0.5254513993859291,945.6323940008879,None,None,None,,,,,,,3,19,female,3,2022_May_05_1022,Partial repeat,2021.2.3,59.79151887584874,
8,8,0,1,3,3,2,2,0,1,1,1,0,1,0,0,123,123,123,,,,,,,,,,,,,,,,,,,,,,,,,,,,,,3,19,female,3,2022_May_05_1022,Partial repeat,2021.2.3,59.79151887584874,
8,8,0,1,2,3,2,2,1,0,0,1,0,1,0,0,124,124,124,0,0,0,0,,,,,,,946.179923100397,None,948.040490500629,None,948.838147001341,None,l,1,0.54370759986341,948.838147001341,None,None,None,,,,,,,3,19,female,3,2022_May_05_1022,Partial repeat,2021.2.3,59.79151887584874,
8,8,0,1,2,3,2,2,1,0,0,1,0,1,0,0,124,124,124,1,0,1,0,,,,,,,,,949.4015085007995,None,950.2404219005257,None,s,1,0.7894317004829645,950.2404219005257,None,None,None,,,,,,,3,19,female,3,2022_May_05_1022,Partial repeat,2021.2.3,59.79151887584874,
8,8,0,1,2,3,2,2,1,0,0,1,0,1,0,0,124,124,124,,,,,,,,,,,,,,,,,,,,,,,,,,,,,,3,19,female,3,2022_May_05_1022,Partial repeat,2021.2.3,59.79151887584874,
8,8,0,1,2,3,1,1,1,1,0,1,1,1,0,0,125,125,125,0,0,0,0,,,,,,,951.0463574007154,None,951.9815123006701,None,952.9458297006786,None,l,1,0.4280885010957718,952.9458297006786,None,None,None,,,,,,,3,19,female,3,2022_May_05_1022,Partial repeat,2021.2.3,59.79151887584874,
8,8,0,1,2,3,1,1,1,1,0,1,1,1,0,0,125,125,125,1,0,1,0,,,,,,,,,953.4028109014034,None,954.1815124005079,None,l,1,0.44029369950294495,954.1815124005079,None,None,None,,,,,,,3,19,female,3,2022_May_05_1022,Partial repeat,2021.2.3,59.79151887584874,
8,8,0,1,2,3,1,1,1,1,0,1,1,1,0,0,125,125,125,,,,,,,,,,,,,,,,,,,,,,,,,,,,,,3,19,female,3,2022_May_05_1022,Partial repeat,2021.2.3,59.79151887584874,
8,8,0,1,3,2,2,1,1,0,0,0,0,1,0,0,126,126,126,0,0,0,0,,,,,,,954.6446539014578,None,956.1395799014717,None,957.1216078009456,None,l,1,0.5802631005644798,957.1216078009456,None,None,None,,,,,,,3,19,female,3,2022_May_05_1022,Partial repeat,2021.2.3,59.79151887584874,
8,8,0,1,3,2,2,1,1,0,0,0,0,1,0,0,126,126,126,1,0,1,0,,,,,,,,,957.7303149010986,None,958.6570297013968,None,s,1,0.820822399109602,958.6570297013968,None,None,None,,,,,,,3,19,female,3,2022_May_05_1022,Partial repeat,2021.2.3,59.79151887584874,
8,8,0,1,3,2,2,1,1,0,0,0,0,1,0,0,126,126,126,,,,,,,,,,,,,,,,,,,,,,,,,,,,,,3,19,female,3,2022_May_05_1022,Partial repeat,2021.2.3,59.79151887584874,
8,8,0,1,3,2,2,1,0,1,0,0,0,1,0,0,127,127,127,0,0,0,0,,,,,,,959.5038178004324,None,960.4646764006466,None,961.396655600518,None,s,1,0.5452007986605167,961.396655600518,None,None,None,,,,,,,3,19,female,3,2022_May_05_1022,Partial repeat,2021.2.3,59.79151887584874,
8,8,0,1,3,2,2,1,0,1,0,0,0,1,0,0,127,127,127,1,0,1,0,,,,,,,,,961.9592606015503,None,962.9651539009064,None,l,1,0.47294310107827187,962.9651539009064,None,None,None,,,,,,,3,19,female,3,2022_May_05_1022,Partial repeat,2021.2.3,59.79151887584874,
8,8,0,1,3,2,2,1,0,1,0,0,0,1,0,0,127,127,127,,,,,,,,,,,,,,,,,,,,,,,,,,,,,,3,19,female,3,2022_May_05_1022,Partial repeat,2021.2.3,59.79151887584874,
1,5,0,1,3,3,2,1,1,0,1,0,0,0,0,0,128,128,128,0,0,0,0,,,,,,,968.9497392009944,None,970.4674940016121,None,971.3650368005037,None,l,1,0.6888439990580082,971.3650368005037,None,None,None,,,,,,,3,19,female,3,2022_May_05_1022,Partial repeat,2021.2.3,59.79151887584874,
1,5,0,1,3,3,2,1,1,0,1,0,0,0,0,0,128,128,128,1,0,1,0,,,,,,,,,972.0829533003271,None,972.884871000424,None,s,1,0.6969826016575098,972.884871000424,None,None,None,,,,,,,3,19,female,3,2022_May_05_1022,Partial repeat,2021.2.3,59.79151887584874,
1,5,0,1,3,3,2,1,1,0,1,0,0,0,0,0,128,128,128,,,,,,,,,,,,,,,,,,,,,,,,,,,,,,3,19,female,3,2022_May_05_1022,Partial repeat,2021.2.3,59.79151887584874,
6,2,0,1,3,3,1,2,0,1,1,0,0,0,0,0,129,129,129,0,0,0,0,,,,,,,973.6006225999445,None,974.4919373001903,None,975.391259400174,None,s,1,0.7105939984321594,975.391259400174,None,None,None,,,,,,,3,19,female,3,2022_May_05_1022,Partial repeat,2021.2.3,59.79151887584874,
6,2,0,1,3,3,1,2,0,1,1,0,0,0,0,0,129,129,129,1,0,1,0,,,,,,,,,976.127602700144,None,976.9099062010646,None,l,1,0.7920161001384258,976.9099062010646,None,None,None,,,,,,,3,19,female,3,2022_May_05_1022,Partial repeat,2021.2.3,59.79151887584874,
6,2,0,1,3,3,1,2,0,1,1,0,0,0,0,0,129,129,129,,,,,,,,,,,,,,,,,,,,,,,,,,,,,,3,19,female,3,2022_May_05_1022,Partial repeat,2021.2.3,59.79151887584874,
5,3,0,1,2,3,2,1,1,1,0,0,1,0,0,0,130,130,130,0,0,0,0,,,,,,,977.7158017009497,None,980.01932580024,None,980.8843986000866,None,l,1,0.8894507996737957,980.8843986000866,None,None,None,,,,,,,3,19,female,3,2022_May_05_1022,Partial repeat,2021.2.3,59.79151887584874,
5,3,0,1,2,3,2,1,1,1,0,0,1,0,0,0,130,130,130,1,0,1,0,,,,,,,,,981.7938286010176,None,982.5539082009345,None,s,0,0.9879627004265785,982.5539082009345,None,983.5509420000017,None,,,,,,,3,19,female,3,2022_May_05_1022,Partial repeat,2021.2.3,59.79151887584874,
5,3,0,1,2,3,2,1,1,1,0,0,1,0,0,0,130,130,130,,,,,,,,,,,,,,,,,,,,,,,,,,,,,,3,19,female,3,2022_May_05_1022,Partial repeat,2021.2.3,59.79151887584874,
8,2,0,1,2,3,1,2,0,1,0,0,0,0,0,0,131,131,131,0,0,0,0,,,,,,,984.0606272015721,None,985.530141800642,None,986.528022300452,None,s,1,0.717832800000906,986.528022300452,None,None,None,,,,,,,3,19,female,3,2022_May_05_1022,Partial repeat,2021.2.3,59.79151887584874,
8,2,0,1,2,3,1,2,0,1,0,0,0,0,0,0,131,131,131,1,0,1,0,,,,,,,,,987.269145200029,None,988.2144584003836,None,l,1,0.7353934999555349,988.2144584003836,None,None,None,,,,,,,3,19,female,3,2022_May_05_1022,Partial repeat,2021.2.3,59.79151887584874,
8,2,0,1,2,3,1,2,0,1,0,0,0,0,0,0,131,131,131,,,,,,,,,,,,,,,,,,,,,,,,,,,,,,3,19,female,3,2022_May_05_1022,Partial repeat,2021.2.3,59.79151887584874,
1,8,0,1,2,2,2,2,1,0,1,1,0,0,0,0,132,132,132,0,0,0,0,,,,,,,988.9781774003059,None,991.6586161013693,None,992.5746915005147,None,l,1,0.4951556995511055,992.5746915005147,None,None,None,,,,,,,3,19,female,3,2022_May_05_1022,Partial repeat,2021.2.3,59.79151887584874,
1,8,0,1,2,2,2,2,1,0,1,1,0,0,0,0,132,132,132,1,0,1,0,,,,,,,,,993.0896808002144,None,994.0933477003127,None,s,1,0.616499999538064,994.0933477003127,None,None,None,,,,,,,3,19,female,3,2022_May_05_1022,Partial repeat,2021.2.3,59.79151887584874,
1,8,0,1,2,2,2,2,1,0,1,1,0,0,0,0,132,132,132,,,,,,,,,,,,,,,,,,,,,,,,,,,,,,3,19,female,3,2022_May_05_1022,Partial repeat,2021.2.3,59.79151887584874,
2,7,0,1,3,2,2,1,0,1,0,0,0,0,0,0,133,133,133,0,0,0,0,,,,,,,994.7274640016258,None,996.2342776004225,None,996.9990816004574,None,s,1,0.8787715006619692,996.9990816004574,None,None,None,,,,,,,3,19,female,3,2022_May_05_1022,Partial repeat,2021.2.3,59.79151887584874,
2,7,0,1,3,2,2,1,0,1,0,0,0,0,0,0,133,133,133,1,0,1,0,,,,,,,,,997.9008547011763,None,998.6852127015591,None,l,1,0.624635599553585,998.6852127015591,None,None,None,,,,,,,3,19,female,3,2022_May_05_1022,Partial repeat,2021.2.3,59.79151887584874,
2,7,0,1,3,2,2,1,0,1,0,0,0,0,0,0,133,133,133,,,,,,,,,,,,,,,,,,,,,,,,,,,,,,3,19,female,3,2022_May_05_1022,Partial repeat,2021.2.3,59.79151887584874,
7,1,0,1,2,2,2,2,0,0,1,1,1,0,0,0,134,134,134,0,0,0,0,,,,,,,999.3379306010902,None,1000.4090798012912,None,1001.2070726007223,None,s,1,0.5987740997225046,1001.2070726007223,None,None,None,,,,,,,3,19,female,3,2022_May_05_1022,Partial repeat,2021.2.3,59.79151887584874,
7,1,0,1,2,2,2,2,0,0,1,1,1,0,0,0,134,134,134,1,0,1,0,,,,,,,,,1001.8324508015066,None,1002.5589370001107,None,s,1,0.9909857008606195,1002.5589370001107,None,None,None,,,,,,,3,19,female,3,2022_May_05_1022,Partial repeat,2021.2.3,59.79151887584874,
7,1,0,1,2,2,2,2,0,0,1,1,1,0,0,0,134,134,134,,,,,,,,,,,,,,,,,,,,,,,,,,,,,,3,19,female,3,2022_May_05_1022,Partial repeat,2021.2.3,59.79151887584874,
6,8,0,1,3,3,2,2,1,0,1,1,0,0,0,0,135,135,135,0,0,0,0,,,,,,,1003.5786242000759,None,1004.7174492012709,None,1005.699883300811,None,l,1,0.6420052014291286,1005.699883300811,None,None,None,,,,,,,3,19,female,3,2022_May_05_1022,Partial repeat,2021.2.3,59.79151887584874,
6,8,0,1,3,3,2,2,1,0,1,1,0,0,0,0,135,135,135,1,0,1,0,,,,,,,,,1006.3700261004269,None,1007.3681843001395,None,s,1,1.093664700165391,1007.3681843001395,None,None,None,,,,,,,3,19,female,3,2022_May_05_1022,Partial repeat,2021.2.3,59.79151887584874,
6,8,0,1,3,3,2,2,1,0,1,1,0,0,0,0,135,135,135,,,,,,,,,,,,,,,,,,,,,,,,,,,,,,3,19,female,3,2022_May_05_1022,Partial repeat,2021.2.3,59.79151887584874,
5,2,0,1,3,3,1,1,1,0,1,1,0,0,0,0,136,136,136,0,0,0,0,,,,,,,1008.4808697998524,None,1010.178078500554,None,1011.1432344000787,None,l,1,0.6786710992455482,1011.1432344000787,None,None,None,,,,,,,3,19,female,3,2022_May_05_1022,Partial repeat,2021.2.3,59.79151887584874,
5,2,0,1,3,3,1,1,1,0,1,1,0,0,0,0,136,136,136,1,0,1,0,,,,,,,,,1011.8360879998654,None,1012.7122274003923,None,s,1,0.6776261013001204,1012.7122274003923,None,None,None,,,,,,,3,19,female,3,2022_May_05_1022,Partial repeat,2021.2.3,59.79151887584874,
5,2,0,1,3,3,1,1,1,0,1,1,0,0,0,0,136,136,136,,,,,,,,,,,,,,,,,,,,,,,,,,,,,,3,19,female,3,2022_May_05_1022,Partial repeat,2021.2.3,59.79151887584874,
1,7,0,1,3,2,1,1,0,0,0,1,1,0,0,0,137,137,137,0,0,0,0,,,,,,,1013.41456140019,None,1014.3194392006844,None,1015.2007470000535,None,s,1,0.5331284999847412,1015.2007470000535,None,None,None,,,,,,,3,19,female,3,2022_May_05_1022,Partial repeat,2021.2.3,59.79151887584874,
1,7,0,1,3,2,1,1,0,0,0,1,1,0,0,0,137,137,137,1,0,1,0,,,,,,,,,1015.7452108003199,None,1016.6364459004253,None,s,1,0.6814291011542082,1016.6364459004253,None,None,None,,,,,,,3,19,female,3,2022_May_05_1022,Partial repeat,2021.2.3,59.79151887584874,
1,7,0,1,3,2,1,1,0,0,0,1,1,0,0,0,137,137,137,,,,,,,,,,,,,,,,,,,,,,,,,,,,,,3,19,female,3,2022_May_05_1022,Partial repeat,2021.2.3,59.79151887584874,
7,8,0,1,2,2,1,1,0,1,1,1,0,0,0,0,138,138,138,0,0,0,0,,,,,,,1017.3371520005167,None,1018.3439731001854,None,1019.1755686998367,None,s,1,0.6222962010651827,1019.1755686998367,None,None,None,,,,,,,3,19,female,3,2022_May_05_1022,Partial repeat,2021.2.3,59.79151887584874,
7,8,0,1,2,2,1,1,0,1,1,1,0,0,0,0,138,138,138,1,0,1,0,,,,,,,,,1019.8235150016844,None,1020.811346501112,None,l,1,0.6025524996221066,1020.811346501112,None,None,None,,,,,,,3,19,female,3,2022_May_05_1022,Partial repeat,2021.2.3,59.79151887584874,
7,8,0,1,2,2,1,1,0,1,1,1,0,0,0,0,138,138,138,,,,,,,,,,,,,,,,,,,,,,,,,,,,,,3,19,female,3,2022_May_05_1022,Partial repeat,2021.2.3,59.79151887584874,
2,6,0,1,2,3,1,1,0,1,0,1,0,0,0,0,139,139,139,0,0,0,0,,,,,,,1021.4251533001661,None,1022.9529550001025,None,1023.85137540102,None,s,1,1.3144761007279158,1023.85137540102,None,None,None,,,,,,,3,19,female,3,2022_May_05_1022,Partial repeat,2021.2.3,59.79151887584874,
2,6,0,1,2,3,1,1,0,1,0,1,0,0,0,0,139,139,139,1,0,1,0,,,,,,,,,1025.1863336004317,None,1026.154812199995,None,l,1,0.7630644999444485,1026.154812199995,None,None,None,,,,,,,3,19,female,3,2022_May_05_1022,Partial repeat,2021.2.3,59.79151887584874,
2,6,0,1,2,3,1,1,0,1,0,1,0,0,0,0,139,139,139,,,,,,,,,,,,,,,,,,,,,,,,,,,,,,3,19,female,3,2022_May_05_1022,Partial repeat,2021.2.3,59.79151887584874,
4,4,0,1,2,2,1,2,0,0,1,0,1,0,0,0,140,140,140,0,0,0,0,,,,,,,1026.942544400692,None,1028.1630771011114,None,1029.0281151998788,None,s,1,0.8017450999468565,1029.0281151998788,None,None,None,,,,,,,3,19,female,3,2022_May_05_1022,Partial repeat,2021.2.3,59.79151887584874,
4,4,0,1,2,2,1,2,0,0,1,0,1,0,0,0,140,140,140,1,0,1,0,,,,,,,,,1029.8522922005504,None,1030.681037100032,None,s,1,0.5488163009285927,1030.681037100032,None,None,None,,,,,,,3,19,female,3,2022_May_05_1022,Partial repeat,2021.2.3,59.79151887584874,
4,4,0,1,2,2,1,2,0,0,1,0,1,0,0,0,140,140,140,,,,,,,,,,,,,,,,,,,,,,,,,,,,,,3,19,female,3,2022_May_05_1022,Partial repeat,2021.2.3,59.79151887584874,
2,4,0,1,3,2,1,1,0,1,0,1,0,0,0,0,141,141,141,0,0,0,0,,,,,,,1031.254849601537,None,1032.0706941001117,None,1032.8855781015009,None,s,1,0.7043200004845858,1032.8855781015009,None,None,None,,,,,,,3,19,female,3,2022_May_05_1022,Partial repeat,2021.2.3,59.79151887584874,
2,4,0,1,3,2,1,1,0,1,0,1,0,0,0,0,141,141,141,1,0,1,0,,,,,,,,,1033.6014308016747,None,1034.5712159015238,None,l,1,0.7546044997870922,1034.5712159015238,None,None,None,,,,,,,3,19,female,3,2022_May_05_1022,Partial repeat,2021.2.3,59.79151887584874,
2,4,0,1,3,2,1,1,0,1,0,1,0,0,0,0,141,141,141,,,,,,,,,,,,,,,,,,,,,,,,,,,,,,3,19,female,3,2022_May_05_1022,Partial repeat,2021.2.3,59.79151887584874,
6,1,0,1,2,3,1,1,1,1,0,1,1,0,0,0,142,142,142,0,0,0,0,,,,,,,1035.3365342002362,None,1036.3456705007702,None,1037.2608056999743,None,l,1,0.6170878000557423,1037.2608056999743,None,None,None,,,,,,,3,19,female,3,2022_May_05_1022,Partial repeat,2021.2.3,59.79151887584874,
6,1,0,1,2,3,1,1,1,1,0,1,1,0,0,0,142,142,142,1,0,1,0,,,,,,,,,1037.8893368002027,None,1038.8131095003337,None,l,1,0.9848481006920338,1038.8131095003337,None,None,None,,,,,,,3,19,female,3,2022_May_05_1022,Partial repeat,2021.2.3,59.79151887584874,
6,1,0,1,2,3,1,1,1,1,0,1,1,0,0,0,142,142,142,,,,,,,,,,,,,,,,,,,,,,,,,,,,,,3,19,female,3,2022_May_05_1022,Partial repeat,2021.2.3,59.79151887584874,
1,4,0,1,3,2,1,2,0,1,0,0,0,0,0,0,143,143,143,0,0,0,0,,,,,,,1039.8108799010515,None,1040.837750600651,None,1041.7863707002252,None,s,1,0.9554810002446175,1041.7863707002252,None,None,None,,,,,,,3,19,female,3,2022_May_05_1022,Partial repeat,2021.2.3,59.79151887584874,
1,4,0,1,3,2,1,2,0,1,0,0,0,0,0,0,143,143,143,1,0,1,0,,,,,,,,,1042.7565657012165,None,1043.723533499986,None,l,1,0.7304494995623827,1043.723533499986,None,None,None,,,,,,,3,19,female,3,2022_May_05_1022,Partial repeat,2021.2.3,59.79151887584874,
1,4,0,1,3,2,1,2,0,1,0,0,0,0,0,0,143,143,143,,,,,,,,,,,,,,,,,,,,,,,,,,,,,,3,19,female,3,2022_May_05_1022,Partial repeat,2021.2.3,59.79151887584874,
7,3,0,1,3,3,2,2,1,1,1,1,1,0,0,0,144,144,144,0,0,0,0,,,,,,,1044.465732300654,None,1045.6637761015445,None,1046.578751301393,None,l,1,0.4672925006598234,1046.578751301393,None,None,None,,,,,,,3,19,female,3,2022_May_05_1022,Partial repeat,2021.2.3,59.79151887584874,
7,3,0,1,3,3,2,2,1,1,1,1,1,0,0,0,144,144,144,1,0,1,0,,,,,,,,,1047.055396201089,None,1048.0316834002733,None,s,0,0.5981490984559059,1048.0316834002733,None,1048.6424510013312,None,,,,,,,3,19,female,3,2022_May_05_1022,Partial repeat,2021.2.3,59.79151887584874,
7,3,0,1,3,3,2,2,1,1,1,1,1,0,0,0,144,144,144,,,,,,,,,,,,,,,,,,,,,,,,,,,,,,3,19,female,3,2022_May_05_1022,Partial repeat,2021.2.3,59.79151887584874,
5,1,0,1,3,3,1,2,1,0,1,0,0,0,0,0,145,145,145,0,0,0,0,,,,,,,1049.154000101611,None,1049.8218930009753,None,1050.7372262012213,None,l,1,0.5166640989482403,1050.7372262012213,None,None,None,,,,,,,3,19,female,3,2022_May_05_1022,Partial repeat,2021.2.3,59.79151887584874,
5,1,0,1,3,3,1,2,1,0,1,0,0,0,0,0,145,145,145,1,0,1,0,,,,,,,,,1051.281591201201,None,1052.1062839999795,None,s,1,0.7315734010189772,1052.1062839999795,None,None,None,,,,,,,3,19,female,3,2022_May_05_1022,Partial repeat,2021.2.3,59.79151887584874,
5,1,0,1,3,3,1,2,1,0,1,0,0,0,0,0,145,145,145,,,,,,,,,,,,,,,,,,,,,,,,,,,,,,3,19,female,3,2022_May_05_1022,Partial repeat,2021.2.3,59.79151887584874,
8,7,0,1,2,3,1,2,1,1,0,0,1,0,0,0,146,146,146,0,0,0,0,,,,,,,1052.867181301117,None,1053.6960643008351,None,1054.6280257012695,None,l,1,0.513832800090313,1054.6280257012695,None,None,None,,,,,,,3,19,female,3,2022_May_05_1022,Partial repeat,2021.2.3,59.79151887584874,
8,7,0,1,2,3,1,2,1,1,0,0,1,0,0,0,146,146,146,1,0,1,0,,,,,,,,,1055.1578591000289,None,1055.9795714002103,None,l,1,0.5302832014858723,1055.9795714002103,None,None,None,,,,,,,3,19,female,3,2022_May_05_1022,Partial repeat,2021.2.3,59.79151887584874,
8,7,0,1,2,3,1,2,1,1,0,0,1,0,0,0,146,146,146,,,,,,,,,,,,,,,,,,,,,,,,,,,,,,3,19,female,3,2022_May_05_1022,Partial repeat,2021.2.3,59.79151887584874,
1,2,0,1,2,3,2,2,1,1,0,1,1,0,0,0,147,147,147,0,0,0,0,,,,,,,1056.526566401124,None,1057.7706714011729,None,1058.6523772999644,None,l,1,0.5294815991073847,1058.6523772999644,None,None,None,,,,,,,3,19,female,3,2022_May_05_1022,Partial repeat,2021.2.3,59.79151887584874,
1,2,0,1,2,3,2,2,1,1,0,1,1,0,0,0,147,147,147,1,0,1,0,,,,,,,,,1059.1979097016156,None,1060.1211854014546,None,l,1,0.572673998773098,1060.1211854014546,None,None,None,,,,,,,3,19,female,3,2022_May_05_1022,Partial repeat,2021.2.3,59.79151887584874,
1,2,0,1,2,3,2,2,1,1,0,1,1,0,0,0,147,147,147,,,,,,,,,,,,,,,,,,,,,,,,,,,,,,3,19,female,3,2022_May_05_1022,Partial repeat,2021.2.3,59.79151887584874,
3,2,0,1,3,3,1,2,1,1,1,0,1,0,0,0,148,148,148,0,0,0,0,,,,,,,1060.7127245999873,None,1061.678314300254,None,1062.6092640012503,None,l,1,0.6365958005189896,1062.6092640012503,None,None,None,,,,,,,3,19,female,3,2022_May_05_1022,Partial repeat,2021.2.3,59.79151887584874,
3,2,0,1,3,3,1,2,1,1,1,0,1,0,0,0,148,148,148,1,0,1,0,,,,,,,,,1063.2585599012673,None,1064.0804198011756,None,l,1,0.6694768015295267,1064.0804198011756,None,None,None,,,,,,,3,19,female,3,2022_May_05_1022,Partial repeat,2021.2.3,59.79151887584874,
3,2,0,1,3,3,1,2,1,1,1,0,1,0,0,0,148,148,148,,,,,,,,,,,,,,,,,,,,,,,,,,,,,,3,19,female,3,2022_May_05_1022,Partial repeat,2021.2.3,59.79151887584874,
8,5,0,1,3,3,2,2,0,1,1,1,0,0,0,0,149,149,149,0,0,0,0,,,,,,,1064.76022840105,None,1066.070135800168,None,1066.9855659008026,None,s,1,0.8843061998486519,1066.9855659008026,None,None,None,,,,,,,3,19,female,3,2022_May_05_1022,Partial repeat,2021.2.3,59.79151887584874,
8,5,0,1,3,3,2,2,0,1,1,1,0,0,0,0,149,149,149,1,0,1,0,,,,,,,,,1067.8930608015507,None,1068.8376509007066,None,l,1,0.6242040004581213,1068.8376509007066,None,None,None,,,,,,,3,19,female,3,2022_May_05_1022,Partial repeat,2021.2.3,59.79151887584874,
8,5,0,1,3,3,2,2,0,1,1,1,0,0,0,0,149,149,149,,,,,,,,,,,,,,,,,,,,,,,,,,,,,,3,19,female,3,2022_May_05_1022,Partial repeat,2021.2.3,59.79151887584874,
8,8,0,1,2,3,2,2,0,0,0,1,1,0,0,0,150,150,150,0,0,0,0,,,,,,,1069.4924302008003,None,1070.5288523007184,None,1071.3937961999327,None,s,1,1.0040539000183344,1071.3937961999327,None,None,None,,,,,,,3,19,female,3,2022_May_05_1022,Partial repeat,2021.2.3,59.79151887584874,
8,8,0,1,2,3,2,2,0,0,0,1,1,0,0,0,150,150,150,1,0,1,0,,,,,,,,,1072.4126038998365,None,1073.180015400052,None,s,1,0.68981690146029,1073.180015400052,None,None,None,,,,,,,3,19,female,3,2022_May_05_1022,Partial repeat,2021.2.3,59.79151887584874,
8,8,0,1,2,3,2,2,0,0,0,1,1,0,0,0,150,150,150,,,,,,,,,,,,,,,,,,,,,,,,,,,,,,3,19,female,3,2022_May_05_1022,Partial repeat,2021.2.3,59.79151887584874,
6,6,0,1,3,2,2,2,0,1,0,1,0,0,0,0,151,151,151,0,0,0,0,,,,,,,1073.8838128000498,None,1075.0042302999645,None,1075.835771901533,None,s,1,0.7541668992489576,1075.835771901533,None,None,None,,,,,,,3,19,female,3,2022_May_05_1022,Partial repeat,2021.2.3,59.79151887584874,
6,6,0,1,3,2,2,2,0,1,0,1,0,0,0,0,151,151,151,1,0,1,0,,,,,,,,,1076.6138863004744,None,1077.421414900571,None,l,1,0.6484331991523504,1077.421414900571,None,None,None,,,,,,,3,19,female,3,2022_May_05_1022,Partial repeat,2021.2.3,59.79151887584874,
6,6,0,1,3,2,2,2,0,1,0,1,0,0,0,0,151,151,151,,,,,,,,,,,,,,,,,,,,,,,,,,,,,,3,19,female,3,2022_May_05_1022,Partial repeat,2021.2.3,59.79151887584874,
2,1,0,1,2,3,1,2,0,0,0,0,1,0,0,0,152,152,152,0,0,0,0,,,,,,,1078.0842468999326,None,1079.1456256005913,None,1079.893711199984,None,s,1,0.6481737997382879,1079.893711199984,None,None,None,,,,,,,3,19,female,3,2022_May_05_1022,Partial repeat,2021.2.3,59.79151887584874,
2,1,0,1,2,3,1,2,0,0,0,0,1,0,0,0,152,152,152,1,0,1,0,,,,,,,,,1080.5649843011051,None,1081.5474256016314,None,s,1,0.7224362008273602,1081.5474256016314,None,None,None,,,,,,,3,19,female,3,2022_May_05_1022,Partial repeat,2021.2.3,59.79151887584874,
