prime_tar_pos,probe_tar_pos,dimension,tar_color,prime_dist_color,probe_dist_color,prime_dist_shape,probe_dist_shape,prime_tar_dot_pos,probe_tar_dot_pos,col_rep,shape_rep,resp_rep,pos_fixed,sparse,MainLoop.thisRepN,MainLoop.thisTrialN,MainLoop.thisN,MainLoop.thisIndex,PrimeProbe.thisRepN,PrimeProbe.thisTrialN,PrimeProbe.thisN,PrimeProbe.thisIndex,Instruction.started,Instruction.stopped,instruction_key.keys,instruction_key.rt,instruction_key.started,instruction_key.stopped,PairStartText.started,PairStartText.stopped,FixCross.started,FixCross.stopped,SearchFixCross.started,SearchFixCross.stopped,key_resp.keys,key_resp.corr,key_resp.rt,key_resp.started,key_resp.stopped,feedback_text.started,feedback_text.stopped,text_finish.started,text_finish.stopped,finish_key.keys,finish_key.rt,finish_key.started,finish_key.stopped,participant,age,gender,group,date,expName,psychopyVersion,frameRate,
,,,,,,,,,,,,,,,,,,,,,,,423.46231889910996,None,space,64.44000129960477,423.46231889910996,None,,,,,,,,,,,,,,,,,,,,4,29,male,4,2022_May_05_1024,Partial repeat,2021.2.3,59.889133173340696,
3,3,0,1,2,2,2,2,0,1,1,1,0,1,0,0,0,0,0,0,0,0,0,,,,,,,488.01378699950874,None,490.7441493999213,None,491.5590489991009,None,s,1,1.3191107995808125,491.5590489991009,None,None,None,,,,,,,4,29,male,4,2022_May_05_1024,Partial repeat,2021.2.3,59.889133173340696,
3,3,0,1,2,2,2,2,0,1,1,1,0,1,0,0,0,0,0,1,0,1,0,,,,,,,,,492.9035794008523,None,493.6790402997285,None,s,0,1.0710025988519192,493.6790402997285,None,494.7789015006274,None,,,,,,,4,29,male,4,2022_May_05_1024,Partial repeat,2021.2.3,59.889133173340696,
3,3,0,1,2,2,2,2,0,1,1,1,0,1,0,0,0,0,0,,,,,,,,,,,,,,,,,,,,,,,,,,,,,,4,29,male,4,2022_May_05_1024,Partial repeat,2021.2.3,59.889133173340696,
3,3,0,1,2,3,1,2,1,1,0,0,1,1,0,0,1,1,1,0,0,0,0,,,,,,,495.2862982004881,None,497.42380530014634,None,498.3212912995368,None,l,1,1.7088721003383398,498.3212912995368,None,None,None,,,,,,,4,29,male,4,2022_May_05_1024,Partial repeat,2021.2.3,59.889133173340696,
3,3,0,1,2,3,1,2,1,1,0,0,1,1,0,0,1,1,1,1,0,1,0,,,,,,,,,500.05423050001264,None,500.9929588008672,None,l,1,0.7492284011095762,500.9929588008672,None,None,None,,,,,,,4,29,male,4,2022_May_05_1024,Partial repeat,2021.2.3,59.889133173340696,
3,3,0,1,2,3,1,2,1,1,0,0,1,1,0,0,1,1,1,,,,,,,,,,,,,,,,,,,,,,,,,,,,,,4,29,male,4,2022_May_05_1024,Partial repeat,2021.2.3,59.889133173340696,
3,3,0,1,3,3,2,2,1,1,1,1,1,1,0,0,2,2,2,0,0,0,0,,,,,,,501.756429400295,None,503.53572140075266,None,504.4663485996425,None,l,1,2.515778901055455,504.4663485996425,None,None,None,,,,,,,4,29,male,4,2022_May_05_1024,Partial repeat,2021.2.3,59.889133173340696,
3,3,0,1,3,3,2,2,1,1,1,1,1,1,0,0,2,2,2,1,0,1,0,,,,,,,,,507.008456800133,None,507.856656499207,None,l,1,0.6214209012687206,507.856656499207,None,None,None,,,,,,,4,29,male,4,2022_May_05_1024,Partial repeat,2021.2.3,59.889133173340696,
3,3,0,1,3,3,2,2,1,1,1,1,1,1,0,0,2,2,2,,,,,,,,,,,,,,,,,,,,,,,,,,,,,,4,29,male,4,2022_May_05_1024,Partial repeat,2021.2.3,59.889133173340696,
3,3,0,1,2,3,2,1,1,0,0,0,0,1,0,0,3,3,3,0,0,0,0,,,,,,,508.4921535998583,None,509.28021210059524,None,510.26127390004694,None,l,1,0.6487964987754822,510.26127390004694,None,None,None,,,,,,,4,29,male,4,2022_May_05_1024,Partial repeat,2021.2.3,59.889133173340696,
3,3,0,1,2,3,2,1,1,0,0,0,0,1,0,0,3,3,3,1,0,1,0,,,,,,,,,510.93028140068054,None,511.76393360085785,None,s,1,0.7942626997828484,511.76393360085785,None,None,None,,,,,,,4,29,male,4,2022_May_05_1024,Partial repeat,2021.2.3,59.889133173340696,
3,3,0,1,2,3,2,1,1,0,0,0,0,1,0,0,3,3,3,,,,,,,,,,,,,,,,,,,,,,,,,,,,,,4,29,male,4,2022_May_05_1024,Partial repeat,2021.2.3,59.889133173340696,
3,3,0,1,2,2,2,1,0,0,1,0,1,1,0,0,4,4,4,0,0,0,0,,,,,,,512.5717666000128,None,512.9707529004663,None,513.7014290001243,None,s,1,0.760758601129055,513.7014290001243,None,None,None,,,,,,,4,29,male,4,2022_May_05_1024,Partial repeat,2021.2.3,59.889133173340696,
3,3,0,1,2,2,2,1,0,0,1,0,1,1,0,0,4,4,4,1,0,1,0,,,,,,,,,514.476440699771,None,515.4713093992323,None,s,1,0.4787581004202366,515.4713093992323,None,None,None,,,,,,,4,29,male,4,2022_May_05_1024,Partial repeat,2021.2.3,59.889133173340696,
3,3,0,1,2,2,2,1,0,0,1,0,1,1,0,0,4,4,4,,,,,,,,,,,,,,,,,,,,,,,,,,,,,,4,29,male,4,2022_May_05_1024,Partial repeat,2021.2.3,59.889133173340696,
3,3,0,1,3,3,2,1,1,1,1,0,1,1,0,0,5,5,5,0,0,0,0,,,,,,,515.971350800246,None,516.4441043008119,None,517.2412443999201,None,l,1,0.6289003007113934,517.2412443999201,None,None,None,,,,,,,4,29,male,4,2022_May_05_1024,Partial repeat,2021.2.3,59.889133173340696,
3,3,0,1,3,3,2,1,1,1,1,0,1,1,0,0,5,5,5,1,0,1,0,,,,,,,,,517.8900683000684,None,518.7608387991786,None,l,1,0.7172621004283428,518.7608387991786,None,None,None,,,,,,,4,29,male,4,2022_May_05_1024,Partial repeat,2021.2.3,59.889133173340696,
3,3,0,1,3,3,2,1,1,1,1,0,1,1,0,0,5,5,5,,,,,,,,,,,,,,,,,,,,,,,,,,,,,,4,29,male,4,2022_May_05_1024,Partial repeat,2021.2.3,59.889133173340696,
3,3,0,1,3,2,2,2,0,1,0,1,0,1,0,0,6,6,6,0,0,0,0,,,,,,,519.4978215992451,None,519.6838096994907,None,520.3974510002881,None,s,1,0.7846208997070789,520.3974510002881,None,None,None,,,,,,,4,29,male,4,2022_May_05_1024,Partial repeat,2021.2.3,59.889133173340696,
3,3,0,1,3,2,2,2,0,1,0,1,0,1,0,0,6,6,6,1,0,1,0,,,,,,,,,521.1952551994473,None,521.934015199542,None,l,1,0.648148600012064,521.934015199542,None,None,None,,,,,,,4,29,male,4,2022_May_05_1024,Partial repeat,2021.2.3,59.889133173340696,
3,3,0,1,3,2,2,2,0,1,0,1,0,1,0,0,6,6,6,,,,,,,,,,,,,,,,,,,,,,,,,,,,,,4,29,male,4,2022_May_05_1024,Partial repeat,2021.2.3,59.889133173340696,
3,3,0,1,3,2,1,1,1,0,0,1,0,1,0,0,7,7,7,0,0,0,0,,,,,,,522.6116371005774,None,522.9567970000207,None,523.8708276990801,None,l,1,0.631181700155139,523.8708276990801,None,None,None,,,,,,,4,29,male,4,2022_May_05_1024,Partial repeat,2021.2.3,59.889133173340696,
3,3,0,1,3,2,1,1,1,0,0,1,0,1,0,0,7,7,7,1,0,1,0,,,,,,,,,524.5165918003768,None,525.3904254995286,None,s,1,0.4717369992285967,525.3904254995286,None,None,None,,,,,,,4,29,male,4,2022_May_05_1024,Partial repeat,2021.2.3,59.889133173340696,
3,3,0,1,3,2,1,1,1,0,0,1,0,1,0,0,7,7,7,,,,,,,,,,,,,,,,,,,,,,,,,,,,,,4,29,male,4,2022_May_05_1024,Partial repeat,2021.2.3,59.889133173340696,
3,3,0,1,2,2,1,1,0,1,1,1,0,1,0,0,8,8,8,0,0,0,0,,,,,,,525.8749531004578,None,526.1797835994512,None,527.1114764008671,None,s,1,0.6865704990923405,527.1114764008671,None,None,None,,,,,,,4,29,male,4,2022_May_05_1024,Partial repeat,2021.2.3,59.889133173340696,
3,3,0,1,2,2,1,1,0,1,1,1,0,1,0,0,8,8,8,1,0,1,0,,,,,,,,,527.8260875996202,None,528.7974766995758,None,l,1,0.6726236008107662,528.7974766995758,None,None,None,,,,,,,4,29,male,4,2022_May_05_1024,Partial repeat,2021.2.3,59.889133173340696,
3,3,0,1,2,2,1,1,0,1,1,1,0,1,0,0,8,8,8,,,,,,,,,,,,,,,,,,,,,,,,,,,,,,4,29,male,4,2022_May_05_1024,Partial repeat,2021.2.3,59.889133173340696,
3,3,0,1,3,3,2,1,0,0,1,0,1,1,0,0,9,9,9,0,0,0,0,,,,,,,529.4938146006316,None,530.1708758007735,None,530.9681212995201,None,l,0,0.5979426000267267,530.9681212995201,None,531.5816974006593,None,,,,,,,4,29,male,4,2022_May_05_1024,Partial repeat,2021.2.3,59.889133173340696,
3,3,0,1,3,3,2,1,0,0,1,0,1,1,0,0,9,9,9,1,0,1,0,,,,,,,,,532.0912808999419,None,532.9550237003714,None,l,0,1.2270707003772259,532.9550237003714,None,534.2014870997518,None,,,,,,,4,29,male,4,2022_May_05_1024,Partial repeat,2021.2.3,59.889133173340696,
3,3,0,1,3,3,2,1,0,0,1,0,1,1,0,0,9,9,9,,,,,,,,,,,,,,,,,,,,,,,,,,,,,,4,29,male,4,2022_May_05_1024,Partial repeat,2021.2.3,59.889133173340696,
3,3,0,1,2,2,1,2,0,0,1,0,1,1,0,0,10,10,10,0,0,0,0,,,,,,,534.7130449991673,None,537.6186947003007,None,538.4997710995376,None,s,1,1.6503241993486881,538.4997710995376,None,None,None,,,,,,,4,29,male,4,2022_May_05_1024,Partial repeat,2021.2.3,59.889133173340696,
3,3,0,1,2,2,1,2,0,0,1,0,1,1,0,0,10,10,10,1,0,1,0,,,,,,,,,540.1626600008458,None,540.9039737991989,None,s,1,0.8780975993722677,540.9039737991989,None,None,None,,,,,,,4,29,male,4,2022_May_05_1024,Partial repeat,2021.2.3,59.889133173340696,
3,3,0,1,2,2,1,2,0,0,1,0,1,1,0,0,10,10,10,,,,,,,,,,,,,,,,,,,,,,,,,,,,,,4,29,male,4,2022_May_05_1024,Partial repeat,2021.2.3,59.889133173340696,
3,3,0,1,2,2,1,1,1,1,1,1,1,1,0,0,11,11,11,0,0,0,0,,,,,,,541.7970550991595,None,542.2777823004872,None,543.2086811996996,None,l,1,0.61340850032866,543.2086811996996,None,None,None,,,,,,,4,29,male,4,2022_May_05_1024,Partial repeat,2021.2.3,59.889133173340696,
3,3,0,1,2,2,1,1,1,1,1,1,1,1,0,0,11,11,11,1,0,1,0,,,,,,,,,543.8360398001969,None,544.7116317003965,None,l,1,0.822486400604248,544.7116317003965,None,None,None,,,,,,,4,29,male,4,2022_May_05_1024,Partial repeat,2021.2.3,59.889133173340696,
3,3,0,1,2,2,1,1,1,1,1,1,1,1,0,0,11,11,11,,,,,,,,,,,,,,,,,,,,,,,,,,,,,,4,29,male,4,2022_May_05_1024,Partial repeat,2021.2.3,59.889133173340696,
3,3,0,1,3,3,2,2,0,0,1,1,1,1,0,0,12,12,12,0,0,0,0,,,,,,,545.5450430996716,None,545.817933799699,None,546.7332866992801,None,s,1,0.7448509000241756,546.7332866992801,None,None,None,,,,,,,4,29,male,4,2022_May_05_1024,Partial repeat,2021.2.3,59.889133173340696,
3,3,0,1,3,3,2,2,0,0,1,1,1,1,0,0,12,12,12,1,0,1,0,,,,,,,,,547.4943381007761,None,548.3017066996545,None,s,1,0.5763454008847475,548.3017066996545,None,None,None,,,,,,,4,29,male,4,2022_May_05_1024,Partial repeat,2021.2.3,59.889133173340696,
3,3,0,1,3,3,2,2,0,0,1,1,1,1,0,0,12,12,12,,,,,,,,,,,,,,,,,,,,,,,,,,,,,,4,29,male,4,2022_May_05_1024,Partial repeat,2021.2.3,59.889133173340696,
3,3,0,1,2,3,2,2,1,1,0,1,1,1,0,0,13,13,13,0,0,0,0,,,,,,,548.8924272004515,None,549.224611999467,None,550.1054574009031,None,l,1,0.6367281004786491,550.1054574009031,None,None,None,,,,,,,4,29,male,4,2022_May_05_1024,Partial repeat,2021.2.3,59.889133173340696,
3,3,0,1,2,3,2,2,1,1,0,1,1,1,0,0,13,13,13,1,0,1,0,,,,,,,,,550.7526711001992,None,551.591559400782,None,l,1,0.5024951007217169,551.591559400782,None,None,None,,,,,,,4,29,male,4,2022_May_05_1024,Partial repeat,2021.2.3,59.889133173340696,
3,3,0,1,2,3,2,2,1,1,0,1,1,1,0,0,13,13,13,,,,,,,,,,,,,,,,,,,,,,,,,,,,,,4,29,male,4,2022_May_05_1024,Partial repeat,2021.2.3,59.889133173340696,
3,3,0,1,2,2,1,2,1,0,1,0,0,1,0,0,14,14,14,0,0,0,0,,,,,,,552.1210382003337,None,552.3473173994571,None,553.1446914002299,None,l,1,0.5573932994157076,553.1446914002299,None,None,None,,,,,,,4,29,male,4,2022_May_05_1024,Partial repeat,2021.2.3,59.889133173340696,
3,3,0,1,2,2,1,2,1,0,1,0,0,1,0,0,14,14,14,1,0,1,0,,,,,,,,,553.7261618990451,None,554.613981500268,None,s,1,0.4721384011209011,554.613981500268,None,None,None,,,,,,,4,29,male,4,2022_May_05_1024,Partial repeat,2021.2.3,59.889133173340696,
3,3,0,1,2,2,1,2,1,0,1,0,0,1,0,0,14,14,14,,,,,,,,,,,,,,,,,,,,,,,,,,,,,,4,29,male,4,2022_May_05_1024,Partial repeat,2021.2.3,59.889133173340696,
3,3,0,1,2,2,1,2,1,1,1,0,1,1,0,0,15,15,15,0,0,0,0,,,,,,,555.0971683003008,None,555.2863586992025,None,556.1001171991229,None,l,1,0.5299319997429848,556.1001171991229,None,None,None,,,,,,,4,29,male,4,2022_May_05_1024,Partial repeat,2021.2.3,59.889133173340696,
3,3,0,1,2,2,1,2,1,1,1,0,1,1,0,0,15,15,15,1,0,1,0,,,,,,,,,556.641489399597,None,557.5529523994774,None,l,1,0.4131292998790741,557.5529523994774,None,None,None,,,,,,,4,29,male,4,2022_May_05_1024,Partial repeat,2021.2.3,59.889133173340696,
3,3,0,1,2,2,1,2,1,1,1,0,1,1,0,0,15,15,15,,,,,,,,,,,,,,,,,,,,,,,,,,,,,,4,29,male,4,2022_May_05_1024,Partial repeat,2021.2.3,59.889133173340696,
3,3,0,1,2,2,2,2,0,0,1,1,1,1,0,0,16,16,16,0,0,0,0,,,,,,,557.9921968001872,None,558.1919954996556,None,559.1564179994166,None,s,1,0.40166670083999634,559.1564179994166,None,None,None,,,,,,,4,29,male,4,2022_May_05_1024,Partial repeat,2021.2.3,59.889133173340696,
3,3,0,1,2,2,2,2,0,0,1,1,1,1,0,0,16,16,16,1,0,1,0,,,,,,,,,559.5866534002125,None,560.3087242990732,None,s,1,0.43335359916090965,560.3087242990732,None,None,None,,,,,,,4,29,male,4,2022_May_05_1024,Partial repeat,2021.2.3,59.889133173340696,
3,3,0,1,2,2,2,2,0,0,1,1,1,1,0,0,16,16,16,,,,,,,,,,,,,,,,,,,,,,,,,,,,,,4,29,male,4,2022_May_05_1024,Partial repeat,2021.2.3,59.889133173340696,
3,3,0,1,3,2,2,1,1,1,0,0,1,1,0,0,17,17,17,0,0,0,0,,,,,,,560.7693247999996,None,560.8973242994398,None,561.64474269934,None,l,1,0.5853828992694616,561.64474269934,None,None,None,,,,,,,4,29,male,4,2022_May_05_1024,Partial repeat,2021.2.3,59.889133173340696,
3,3,0,1,3,2,2,1,1,1,0,0,1,1,0,0,17,17,17,1,0,1,0,,,,,,,,,562.2538057006896,None,563.1808531004936,None,l,1,0.5932310000061989,563.1808531004936,None,None,None,,,,,,,4,29,male,4,2022_May_05_1024,Partial repeat,2021.2.3,59.889133173340696,
3,3,0,1,3,2,2,1,1,1,0,0,1,1,0,0,17,17,17,,,,,,,,,,,,,,,,,,,,,,,,,,,,,,4,29,male,4,2022_May_05_1024,Partial repeat,2021.2.3,59.889133173340696,
3,3,0,1,2,3,1,2,1,0,0,0,0,1,0,0,18,18,18,0,0,0,0,,,,,,,563.7913256008178,None,563.9031489994377,None,564.651195500046,None,l,1,0.43488029949367046,564.651195500046,None,None,None,,,,,,,4,29,male,4,2022_May_05_1024,Partial repeat,2021.2.3,59.889133173340696,
3,3,0,1,2,3,1,2,1,0,0,0,0,1,0,0,18,18,18,1,0,1,0,,,,,,,,,565.1096625998616,None,566.0696086995304,None,s,1,0.3444746993482113,566.0696086995304,None,None,None,,,,,,,4,29,male,4,2022_May_05_1024,Partial repeat,2021.2.3,59.889133173340696,
3,3,0,1,2,3,1,2,1,0,0,0,0,1,0,0,18,18,18,,,,,,,,,,,,,,,,,,,,,,,,,,,,,,4,29,male,4,2022_May_05_1024,Partial repeat,2021.2.3,59.889133173340696,
3,3,0,1,2,3,1,1,0,1,0,1,0,1,0,0,19,19,19,0,0,0,0,,,,,,,566.4243177007884,None,566.5415030997247,None,567.305461699143,None,s,1,0.556726798415184,567.305461699143,None,None,None,,,,,,,4,29,male,4,2022_May_05_1024,Partial repeat,2021.2.3,59.889133173340696,
3,3,0,1,2,3,1,1,0,1,0,1,0,1,0,0,19,19,19,1,0,1,0,,,,,,,,,567.8702610004693,None,568.858634499833,None,l,1,0.48348670080304146,568.858634499833,None,None,None,,,,,,,4,29,male,4,2022_May_05_1024,Partial repeat,2021.2.3,59.889133173340696,
3,3,0,1,2,3,1,1,0,1,0,1,0,1,0,0,19,19,19,,,,,,,,,,,,,,,,,,,,,,,,,,,,,,4,29,male,4,2022_May_05_1024,Partial repeat,2021.2.3,59.889133173340696,
3,3,0,1,3,3,1,2,0,1,1,0,0,1,0,0,20,20,20,0,0,0,0,,,,,,,569.3662653006613,None,569.4637771993876,None,570.244389500469,None,s,1,0.9376490004360676,570.244389500469,None,None,None,,,,,,,4,29,male,4,2022_May_05_1024,Partial repeat,2021.2.3,59.889133173340696,
3,3,0,1,3,3,1,2,0,1,1,0,0,1,0,0,20,20,20,1,0,1,0,,,,,,,,,571.1959242001176,None,572.1824417002499,None,l,1,0.6635723002254963,572.1824417002499,None,None,None,,,,,,,4,29,male,4,2022_May_05_1024,Partial repeat,2021.2.3,59.889133173340696,
3,3,0,1,3,3,1,2,0,1,1,0,0,1,0,0,20,20,20,,,,,,,,,,,,,,,,,,,,,,,,,,,,,,4,29,male,4,2022_May_05_1024,Partial repeat,2021.2.3,59.889133173340696,
3,3,0,1,2,3,2,1,0,1,0,0,0,1,0,0,21,21,21,0,0,0,0,,,,,,,572.8770911991596,None,572.9372207000852,None,573.8185837008059,None,s,1,0.939461600035429,573.8185837008059,None,None,None,,,,,,,4,29,male,4,2022_May_05_1024,Partial repeat,2021.2.3,59.889133173340696,
3,3,0,1,2,3,2,1,0,1,0,0,0,1,0,0,21,21,21,1,0,1,0,,,,,,,,,574.784232199192,None,575.571595100686,None,l,1,0.44248140044510365,575.571595100686,None,None,None,,,,,,,4,29,male,4,2022_May_05_1024,Partial repeat,2021.2.3,59.889133173340696,
3,3,0,1,2,3,2,1,0,1,0,0,0,1,0,0,21,21,21,,,,,,,,,,,,,,,,,,,,,,,,,,,,,,4,29,male,4,2022_May_05_1024,Partial repeat,2021.2.3,59.889133173340696,
3,3,0,1,2,2,2,1,0,1,1,0,0,1,0,0,22,22,22,0,0,0,0,,,,,,,576.03344210051,None,576.1267508007586,None,576.9080663006753,None,s,1,0.562007199972868,576.9080663006753,None,None,None,,,,,,,4,29,male,4,2022_May_05_1024,Partial repeat,2021.2.3,59.889133173340696,
3,3,0,1,2,2,2,1,0,1,1,0,0,1,0,0,22,22,22,1,0,1,0,,,,,,,,,577.4922611992806,None,578.394575400278,None,l,1,0.4354973994195461,578.394575400278,None,None,None,,,,,,,4,29,male,4,2022_May_05_1024,Partial repeat,2021.2.3,59.889133173340696,
3,3,0,1,2,2,2,1,0,1,1,0,0,1,0,0,22,22,22,,,,,,,,,,,,,,,,,,,,,,,,,,,,,,4,29,male,4,2022_May_05_1024,Partial repeat,2021.2.3,59.889133173340696,
3,3,0,1,2,2,2,1,1,1,1,0,1,1,0,0,23,23,23,0,0,0,0,,,,,,,578.8506598006934,None,578.949095999822,None,579.8299030996859,None,l,1,0.7361322995275259,579.8299030996859,None,None,None,,,,,,,4,29,male,4,2022_May_05_1024,Partial repeat,2021.2.3,59.889133173340696,
3,3,0,1,2,2,2,1,1,1,1,0,1,1,0,0,23,23,23,1,0,1,0,,,,,,,,,580.5826200991869,None,581.3003762997687,None,l,1,0.4656601995229721,581.3003762997687,None,None,None,,,,,,,4,29,male,4,2022_May_05_1024,Partial repeat,2021.2.3,59.889133173340696,
3,3,0,1,2,2,2,1,1,1,1,0,1,1,0,0,23,23,23,,,,,,,,,,,,,,,,,,,,,,,,,,,,,,4,29,male,4,2022_May_05_1024,Partial repeat,2021.2.3,59.889133173340696,
3,3,0,1,2,3,2,1,0,0,0,0,1,1,0,0,24,24,24,0,0,0,0,,,,,,,581.7852759007365,None,581.8210662007332,None,582.5682785995305,None,s,1,0.5897898003458977,582.5682785995305,None,None,None,,,,,,,4,29,male,4,2022_May_05_1024,Partial repeat,2021.2.3,59.889133173340696,
3,3,0,1,2,3,2,1,0,0,0,0,1,1,0,0,24,24,24,1,0,1,0,,,,,,,,,583.1731963995844,None,584.1212380994111,None,s,1,0.3808302003890276,584.1212380994111,None,None,None,,,,,,,4,29,male,4,2022_May_05_1024,Partial repeat,2021.2.3,59.889133173340696,
3,3,0,1,2,3,2,1,0,0,0,0,1,1,0,0,24,24,24,,,,,,,,,,,,,,,,,,,,,,,,,,,,,,4,29,male,4,2022_May_05_1024,Partial repeat,2021.2.3,59.889133173340696,
3,3,0,1,3,2,2,2,1,1,0,1,1,1,0,0,25,25,25,0,0,0,0,,,,,,,584.521033000201,None,584.6099456008524,None,585.5744646992534,None,l,1,0.5355418007820845,585.5744646992534,None,None,None,,,,,,,4,29,male,4,2022_May_05_1024,Partial repeat,2021.2.3,59.889133173340696,
3,3,0,1,3,2,2,2,1,1,0,1,1,1,0,0,25,25,25,1,0,1,0,,,,,,,,,586.119204800576,None,586.9100915007293,None,l,1,0.6640293002128601,586.9100915007293,None,None,None,,,,,,,4,29,male,4,2022_May_05_1024,Partial repeat,2021.2.3,59.889133173340696,
3,3,0,1,3,2,2,2,1,1,0,1,1,1,0,0,25,25,25,,,,,,,,,,,,,,,,,,,,,,,,,,,,,,4,29,male,4,2022_May_05_1024,Partial repeat,2021.2.3,59.889133173340696,
3,3,0,1,2,2,1,1,0,0,1,1,1,1,0,0,26,26,26,0,0,0,0,,,,,,,587.5875643007457,None,587.6491991002113,None,588.5810508001596,None,s,1,0.5770280994474888,588.5810508001596,None,None,None,,,,,,,4,29,male,4,2022_May_05_1024,Partial repeat,2021.2.3,59.889133173340696,
3,3,0,1,2,2,1,1,0,0,1,1,1,1,0,0,26,26,26,1,0,1,0,,,,,,,,,589.1873247995973,None,590.1496843993664,None,s,1,0.5683846995234489,590.1496843993664,None,None,None,,,,,,,4,29,male,4,2022_May_05_1024,Partial repeat,2021.2.3,59.889133173340696,
3,3,0,1,2,2,1,1,0,0,1,1,1,1,0,0,26,26,26,,,,,,,,,,,,,,,,,,,,,,,,,,,,,,4,29,male,4,2022_May_05_1024,Partial repeat,2021.2.3,59.889133173340696,
3,3,0,1,2,3,1,1,1,0,0,1,0,1,0,0,27,27,27,0,0,0,0,,,,,,,590.7383115999401,None,590.7885309997946,None,591.6696342993528,None,l,1,0.5843684002757072,591.6696342993528,None,None,None,,,,,,,4,29,male,4,2022_May_05_1024,Partial repeat,2021.2.3,59.889133173340696,
3,3,0,1,2,3,1,1,1,0,0,1,0,1,0,0,27,27,27,1,0,1,0,,,,,,,,,592.2717535998672,None,593.2059518992901,None,s,1,0.4241068009287119,593.2059518992901,None,None,None,,,,,,,4,29,male,4,2022_May_05_1024,Partial repeat,2021.2.3,59.889133173340696,
3,3,0,1,2,3,1,1,1,0,0,1,0,1,0,0,27,27,27,,,,,,,,,,,,,,,,,,,,,,,,,,,,,,4,29,male,4,2022_May_05_1024,Partial repeat,2021.2.3,59.889133173340696,
3,3,0,1,2,3,2,2,1,0,0,1,0,1,0,0,28,28,28,0,0,0,0,,,,,,,593.6462815999985,None,593.7443841006607,None,594.4749832004309,None,l,1,0.6431003995239735,594.4749832004309,None,None,None,,,,,,,4,29,male,4,2022_May_05_1024,Partial repeat,2021.2.3,59.889133173340696,
3,3,0,1,2,3,2,2,1,0,0,1,0,1,0,0,28,28,28,1,0,1,0,,,,,,,,,595.1443648003042,None,595.8946544006467,None,s,1,0.44751649908721447,595.8946544006467,None,None,None,,,,,,,4,29,male,4,2022_May_05_1024,Partial repeat,2021.2.3,59.889133173340696,
3,3,0,1,2,3,2,2,1,0,0,1,0,1,0,0,28,28,28,,,,,,,,,,,,,,,,,,,,,,,,,,,,,,4,29,male,4,2022_May_05_1024,Partial repeat,2021.2.3,59.889133173340696,
3,3,0,1,3,3,2,2,0,1,1,1,0,1,0,0,29,29,29,0,0,0,0,,,,,,,596.3552310001105,None,596.4496340993792,None,597.2479065004736,None,s,1,0.5421199016273022,597.2479065004736,None,None,None,,,,,,,4,29,male,4,2022_May_05_1024,Partial repeat,2021.2.3,59.889133173340696,
3,3,0,1,3,3,2,2,0,1,1,1,0,1,0,0,29,29,29,1,0,1,0,,,,,,,,,597.81327399984,None,598.6167897991836,None,l,1,0.5892440006136894,598.6167897991836,None,None,None,,,,,,,4,29,male,4,2022_May_05_1024,Partial repeat,2021.2.3,59.889133173340696,
3,3,0,1,3,3,2,2,0,1,1,1,0,1,0,0,29,29,29,,,,,,,,,,,,,,,,,,,,,,,,,,,,,,4,29,male,4,2022_May_05_1024,Partial repeat,2021.2.3,59.889133173340696,
3,3,0,1,2,2,1,1,1,0,1,1,0,1,0,0,30,30,30,0,0,0,0,,,,,,,599.2297101002187,None,599.2884761001915,None,600.1370423007756,None,l,1,0.6850761994719505,600.1370423007756,None,None,None,,,,,,,4,29,male,4,2022_May_05_1024,Partial repeat,2021.2.3,59.889133173340696,
3,3,0,1,2,2,1,1,1,0,1,1,0,1,0,0,30,30,30,1,0,1,0,,,,,,,,,600.8510954007506,None,601.6387437991798,None,s,1,0.5032967999577522,601.6387437991798,None,None,None,,,,,,,4,29,male,4,2022_May_05_1024,Partial repeat,2021.2.3,59.889133173340696,
3,3,0,1,2,2,1,1,1,0,1,1,0,1,0,0,30,30,30,,,,,,,,,,,,,,,,,,,,,,,,,,,,,,4,29,male,4,2022_May_05_1024,Partial repeat,2021.2.3,59.889133173340696,
3,3,0,1,3,3,1,1,0,1,1,1,0,1,0,0,31,31,31,0,0,0,0,,,,,,,602.1708898004144,None,602.2609617002308,None,603.1418555006385,None,s,1,0.6642132997512817,603.1418555006385,None,None,None,,,,,,,4,29,male,4,2022_May_05_1024,Partial repeat,2021.2.3,59.889133173340696,
3,3,0,1,3,3,1,1,0,1,1,1,0,1,0,0,31,31,31,1,0,1,0,,,,,,,,,603.8329549003392,None,604.5946754999459,None,l,1,0.4273685999214649,604.5946754999459,None,None,None,,,,,,,4,29,male,4,2022_May_05_1024,Partial repeat,2021.2.3,59.889133173340696,
3,3,0,1,3,3,1,1,0,1,1,1,0,1,0,0,31,31,31,,,,,,,,,,,,,,,,,,,,,,,,,,,,,,4,29,male,4,2022_May_05_1024,Partial repeat,2021.2.3,59.889133173340696,
3,3,0,1,2,3,1,1,1,1,0,1,1,1,0,0,32,32,32,0,0,0,0,,,,,,,605.0335153993219,None,605.1165088992566,None,605.9142936002463,None,l,1,0.6517210006713867,605.9142936002463,None,None,None,,,,,,,4,29,male,4,2022_May_05_1024,Partial repeat,2021.2.3,59.889133173340696,
3,3,0,1,2,3,1,1,1,1,0,1,1,1,0,0,32,32,32,1,0,1,0,,,,,,,,,606.5836136005819,None,607.366835899651,None,l,1,0.487449798732996,607.366835899651,None,None,None,,,,,,,4,29,male,4,2022_May_05_1024,Partial repeat,2021.2.3,59.889133173340696,
3,3,0,1,2,3,1,1,1,1,0,1,1,1,0,0,32,32,32,,,,,,,,,,,,,,,,,,,,,,,,,,,,,,4,29,male,4,2022_May_05_1024,Partial repeat,2021.2.3,59.889133173340696,
3,3,0,1,3,2,2,1,1,0,0,0,0,1,0,0,33,33,33,0,0,0,0,,,,,,,607.8662553001195,None,607.9386593997478,None,608.9534003008157,None,l,1,0.5007012002170086,608.9534003008157,None,None,None,,,,,,,4,29,male,4,2022_May_05_1024,Partial repeat,2021.2.3,59.889133173340696,
3,3,0,1,3,2,2,1,1,0,0,0,0,1,0,0,33,33,33,1,0,1,0,,,,,,,,,609.474768800661,None,610.4059888999909,None,s,1,0.4641084000468254,610.4059888999909,None,None,None,,,,,,,4,29,male,4,2022_May_05_1024,Partial repeat,2021.2.3,59.889133173340696,
3,3,0,1,3,2,2,1,1,0,0,0,0,1,0,0,33,33,33,,,,,,,,,,,,,,,,,,,,,,,,,,,,,,4,29,male,4,2022_May_05_1024,Partial repeat,2021.2.3,59.889133173340696,
3,3,0,1,3,2,2,2,0,0,0,1,1,1,0,0,34,34,34,0,0,0,0,,,,,,,610.8865297008306,None,610.994743200019,None,611.8753549996763,None,s,1,0.46678730100393295,611.8753549996763,None,None,None,,,,,,,4,29,male,4,2022_May_05_1024,Partial repeat,2021.2.3,59.889133173340696,
3,3,0,1,3,2,2,2,0,0,0,1,1,1,0,0,34,34,34,1,0,1,0,,,,,,,,,612.3522739000618,None,613.2614383008331,None,s,1,0.4406137000769377,613.2614383008331,None,None,None,,,,,,,4,29,male,4,2022_May_05_1024,Partial repeat,2021.2.3,59.889133173340696,
3,3,0,1,3,2,2,2,0,0,0,1,1,1,0,0,34,34,34,,,,,,,,,,,,,,,,,,,,,,,,,,,,,,4,29,male,4,2022_May_05_1024,Partial repeat,2021.2.3,59.889133173340696,
3,3,0,1,3,2,1,2,1,1,0,0,1,1,0,0,35,35,35,0,0,0,0,,,,,,,613.7237555999309,None,614.5182381998748,None,615.3326735999435,None,l,1,0.6333379000425339,615.3326735999435,None,None,None,,,,,,,4,29,male,4,2022_May_05_1024,Partial repeat,2021.2.3,59.889133173340696,
3,3,0,1,3,2,1,2,1,1,0,0,1,1,0,0,35,35,35,1,0,1,0,,,,,,,,,615.9800129998475,None,616.9352429006249,None,l,1,0.43089199997484684,616.9352429006249,None,None,None,,,,,,,4,29,male,4,2022_May_05_1024,Partial repeat,2021.2.3,59.889133173340696,
3,3,0,1,3,2,1,2,1,1,0,0,1,1,0,0,35,35,35,,,,,,,,,,,,,,,,,,,,,,,,,,,,,,4,29,male,4,2022_May_05_1024,Partial repeat,2021.2.3,59.889133173340696,
3,3,0,1,2,2,1,2,0,1,1,0,0,1,0,0,36,36,36,0,0,0,0,,,,,,,617.3770518992096,None,617.9082252997905,None,618.9225095007569,None,s,1,0.6355061996728182,618.9225095007569,None,None,None,,,,,,,4,29,male,4,2022_May_05_1024,Partial repeat,2021.2.3,59.889133173340696,
3,3,0,1,2,2,1,2,0,1,1,0,0,1,0,0,36,36,36,1,0,1,0,,,,,,,,,619.5753387995064,None,620.3420953005552,None,l,1,0.5199214015156031,620.3420953005552,None,None,None,,,,,,,4,29,male,4,2022_May_05_1024,Partial repeat,2021.2.3,59.889133173340696,
3,3,0,1,2,2,1,2,0,1,1,0,0,1,0,0,36,36,36,,,,,,,,,,,,,,,,,,,,,,,,,,,,,,4,29,male,4,2022_May_05_1024,Partial repeat,2021.2.3,59.889133173340696,
3,3,0,1,3,2,1,1,1,1,0,1,1,1,0,0,37,37,37,0,0,0,0,,,,,,,620.8886018004268,None,621.0476105008274,None,621.7780568003654,None,l,1,0.5639923010021448,621.7780568003654,None,None,None,,,,,,,4,29,male,4,2022_May_05_1024,Partial repeat,2021.2.3,59.889133173340696,
3,3,0,1,3,2,1,1,1,1,0,1,1,1,0,0,37,37,37,1,0,1,0,,,,,,,,,622.3654525000602,None,623.2644717991352,None,l,1,0.38965299911797047,623.2644717991352,None,None,None,,,,,,,4,29,male,4,2022_May_05_1024,Partial repeat,2021.2.3,59.889133173340696,
3,3,0,1,3,2,1,1,1,1,0,1,1,1,0,0,37,37,37,,,,,,,,,,,,,,,,,,,,,,,,,,,,,,4,29,male,4,2022_May_05_1024,Partial repeat,2021.2.3,59.889133173340696,
3,3,0,1,2,3,2,2,0,1,0,1,0,1,0,0,38,38,38,0,0,0,0,,,,,,,623.6804887000471,None,624.0201051998883,None,624.9846729002893,None,s,1,0.773402800783515,624.9846729002893,None,None,None,,,,,,,4,29,male,4,2022_May_05_1024,Partial repeat,2021.2.3,59.889133173340696,
3,3,0,1,2,3,2,2,0,1,0,1,0,1,0,0,38,38,38,1,0,1,0,,,,,,,,,625.76935910061,None,626.5208746995777,None,l,1,0.5411727000027895,626.5208746995777,None,None,None,,,,,,,4,29,male,4,2022_May_05_1024,Partial repeat,2021.2.3,59.889133173340696,
3,3,0,1,2,3,2,2,0,1,0,1,0,1,0,0,38,38,38,,,,,,,,,,,,,,,,,,,,,,,,,,,,,,4,29,male,4,2022_May_05_1024,Partial repeat,2021.2.3,59.889133173340696,
3,3,0,1,3,3,1,2,1,0,1,0,0,1,0,0,39,39,39,0,0,0,0,,,,,,,627.089306499809,None,629.3303910996765,None,630.1283449996263,None,l,1,0.6218129005283117,630.1283449996263,None,None,None,,,,,,,4,29,male,4,2022_May_05_1024,Partial repeat,2021.2.3,59.889133173340696,
3,3,0,1,3,3,1,2,1,0,1,0,0,1,0,0,39,39,39,1,0,1,0,,,,,,,,,630.7780347000808,None,631.7308546993881,None,s,1,0.5871613994240761,631.7308546993881,None,None,None,,,,,,,4,29,male,4,2022_May_05_1024,Partial repeat,2021.2.3,59.889133173340696,
3,3,0,1,3,3,1,2,1,0,1,0,0,1,0,0,39,39,39,,,,,,,,,,,,,,,,,,,,,,,,,,,,,,4,29,male,4,2022_May_05_1024,Partial repeat,2021.2.3,59.889133173340696,
3,3,0,1,2,3,1,2,0,0,0,0,1,1,0,0,40,40,40,0,0,0,0,,,,,,,632.3440023995936,None,632.469881400466,None,633.3505358994007,None,s,1,0.48749359883368015,633.3505358994007,None,None,None,,,,,,,4,29,male,4,2022_May_05_1024,Partial repeat,2021.2.3,59.889133173340696,
3,3,0,1,2,3,1,2,0,0,0,0,1,1,0,0,40,40,40,1,0,1,0,,,,,,,,,633.8524357993156,None,634.6530956998467,None,s,1,0.36094379983842373,634.6530956998467,None,None,None,,,,,,,4,29,male,4,2022_May_05_1024,Partial repeat,2021.2.3,59.889133173340696,
3,3,0,1,2,3,1,2,0,0,0,0,1,1,0,0,40,40,40,,,,,,,,,,,,,,,,,,,,,,,,,,,,,,4,29,male,4,2022_May_05_1024,Partial repeat,2021.2.3,59.889133173340696,
3,3,0,1,3,2,2,1,0,1,0,0,0,1,0,0,41,41,41,0,0,0,0,,,,,,,635.0290552992374,None,635.6092735994607,None,636.4403233006597,None,s,1,0.42175710014998913,636.4403233006597,None,None,None,,,,,,,4,29,male,4,2022_May_05_1024,Partial repeat,2021.2.3,59.889133173340696,
3,3,0,1,3,2,2,1,0,1,0,0,0,1,0,0,41,41,41,1,0,1,0,,,,,,,,,636.8776491992176,None,637.89275049977,None,l,1,0.4493339005857706,637.89275049977,None,None,None,,,,,,,4,29,male,4,2022_May_05_1024,Partial repeat,2021.2.3,59.889133173340696,
3,3,0,1,3,2,2,1,0,1,0,0,0,1,0,0,41,41,41,,,,,,,,,,,,,,,,,,,,,,,,,,,,,,4,29,male,4,2022_May_05_1024,Partial repeat,2021.2.3,59.889133173340696,
3,3,0,1,3,3,1,1,1,1,1,1,1,1,0,0,42,42,42,0,0,0,0,,,,,,,638.3568239994347,None,638.8655245006084,None,639.6295961998403,None,l,1,0.6884475015103817,639.6295961998403,None,None,None,,,,,,,4,29,male,4,2022_May_05_1024,Partial repeat,2021.2.3,59.889133173340696,
3,3,0,1,3,3,1,1,1,1,1,1,1,1,0,0,42,42,42,1,0,1,0,,,,,,,,,640.3441173993051,None,641.3509982004762,None,l,1,0.5030438005924225,641.3509982004762,None,None,None,,,,,,,4,29,male,4,2022_May_05_1024,Partial repeat,2021.2.3,59.889133173340696,
3,3,0,1,3,3,1,1,1,1,1,1,1,1,0,0,42,42,42,,,,,,,,,,,,,,,,,,,,,,,,,,,,,,4,29,male,4,2022_May_05_1024,Partial repeat,2021.2.3,59.889133173340696,
3,3,0,1,2,3,2,1,1,1,0,0,1,1,0,0,43,43,43,0,0,0,0,,,,,,,641.8742837999016,None,642.0385175999254,None,642.7856632005423,None,l,1,0.5964387003332376,642.7856632005423,None,None,None,,,,,,,4,29,male,4,2022_May_05_1024,Partial repeat,2021.2.3,59.889133173340696,
3,3,0,1,2,3,2,1,1,1,0,0,1,1,0,0,43,43,43,1,0,1,0,,,,,,,,,643.3928516991436,None,644.2716569993645,None,l,1,0.41434730030596256,644.2716569993645,None,None,None,,,,,,,4,29,male,4,2022_May_05_1024,Partial repeat,2021.2.3,59.889133173340696,
3,3,0,1,2,3,2,1,1,1,0,0,1,1,0,0,43,43,43,,,,,,,,,,,,,,,,,,,,,,,,,,,,,,4,29,male,4,2022_May_05_1024,Partial repeat,2021.2.3,59.889133173340696,
3,3,0,1,3,3,2,2,1,0,1,1,0,1,0,0,44,44,44,0,0,0,0,,,,,,,644.7151207998395,None,644.9776259995997,None,645.7744609005749,None,l,1,0.43157630041241646,645.7744609005749,None,None,None,,,,,,,4,29,male,4,2022_May_05_1024,Partial repeat,2021.2.3,59.889133173340696,
3,3,0,1,3,3,2,2,1,0,1,1,0,1,0,0,44,44,44,1,0,1,0,,,,,,,,,646.2296405993402,None,647.227699900046,None,s,1,0.538306700065732,647.227699900046,None,None,None,,,,,,,4,29,male,4,2022_May_05_1024,Partial repeat,2021.2.3,59.889133173340696,
3,3,0,1,3,3,2,2,1,0,1,1,0,1,0,0,44,44,44,,,,,,,,,,,,,,,,,,,,,,,,,,,,,,4,29,male,4,2022_May_05_1024,Partial repeat,2021.2.3,59.889133173340696,
3,3,0,1,3,3,1,1,1,0,1,1,0,1,0,0,45,45,45,0,0,0,0,,,,,,,647.7951691001654,None,647.9165904000401,None,648.8471626993269,None,l,1,0.518885700032115,648.8471626993269,None,None,None,,,,,,,4,29,male,4,2022_May_05_1024,Partial repeat,2021.2.3,59.889133173340696,
3,3,0,1,3,3,1,1,1,0,1,1,0,1,0,0,45,45,45,1,0,1,0,,,,,,,,,649.3846291992813,None,650.2333604004234,None,s,1,0.5166807007044554,650.2333604004234,None,None,None,,,,,,,4,29,male,4,2022_May_05_1024,Partial repeat,2021.2.3,59.889133173340696,
3,3,0,1,3,3,1,1,1,0,1,1,0,1,0,0,45,45,45,,,,,,,,,,,,,,,,,,,,,,,,,,,,,,4,29,male,4,2022_May_05_1024,Partial repeat,2021.2.3,59.889133173340696,
3,3,0,1,2,3,2,2,0,0,0,1,1,1,0,0,46,46,46,0,0,0,0,,,,,,,650.7797736003995,None,650.9057563003153,None,651.7367496993393,None,s,1,0.6134633012115955,651.7367496993393,None,None,None,,,,,,,4,29,male,4,2022_May_05_1024,Partial repeat,2021.2.3,59.889133173340696,
3,3,0,1,2,3,2,2,0,0,0,1,1,1,0,0,46,46,46,1,0,1,0,,,,,,,,,652.379178499803,None,653.206057600677,None,s,1,0.880052799358964,653.206057600677,None,None,None,,,,,,,4,29,male,4,2022_May_05_1024,Partial repeat,2021.2.3,59.889133173340696,
3,3,0,1,2,3,2,2,0,0,0,1,1,1,0,0,46,46,46,,,,,,,,,,,,,,,,,,,,,,,,,,,,,,4,29,male,4,2022_May_05_1024,Partial repeat,2021.2.3,59.889133173340696,
3,3,0,1,2,2,2,2,1,1,1,1,1,1,0,0,47,47,47,0,0,0,0,,,,,,,654.1169835999608,None,654.329020600766,None,655.2433726992458,None,l,1,0.45870940014719963,655.2433726992458,None,None,None,,,,,,,4,29,male,4,2022_May_05_1024,Partial repeat,2021.2.3,59.889133173340696,
3,3,0,1,2,2,2,2,1,1,1,1,1,1,0,0,47,47,47,1,0,1,0,,,,,,,,,655.723745400086,None,656.6974292993546,None,l,1,0.46857150085270405,656.6974292993546,None,None,None,,,,,,,4,29,male,4,2022_May_05_1024,Partial repeat,2021.2.3,59.889133173340696,
3,3,0,1,2,2,2,2,1,1,1,1,1,1,0,0,47,47,47,,,,,,,,,,,,,,,,,,,,,,,,,,,,,,4,29,male,4,2022_May_05_1024,Partial repeat,2021.2.3,59.889133173340696,
3,3,0,1,2,2,2,1,1,0,1,0,0,1,0,0,48,48,48,0,0,0,0,,,,,,,657.1807483993471,None,657.2848046999425,None,658.2328152991831,None,l,1,0.5811928994953632,658.2328152991831,None,None,None,,,,,,,4,29,male,4,2022_May_05_1024,Partial repeat,2021.2.3,59.889133173340696,
3,3,0,1,2,2,2,1,1,0,1,0,0,1,0,0,48,48,48,1,0,1,0,,,,,,,,,658.8392878007144,None,659.7687643002719,None,s,1,0.5012649986892939,659.7687643002719,None,None,None,,,,,,,4,29,male,4,2022_May_05_1024,Partial repeat,2021.2.3,59.889133173340696,
3,3,0,1,2,2,2,1,1,0,1,0,0,1,0,0,48,48,48,,,,,,,,,,,,,,,,,,,,,,,,,,,,,,4,29,male,4,2022_May_05_1024,Partial repeat,2021.2.3,59.889133173340696,
3,3,0,1,2,3,1,1,0,0,0,1,1,1,0,0,49,49,49,0,0,0,0,,,,,,,660.2955384999514,None,660.390691999346,None,661.2549785003066,None,s,1,0.5590487010776997,661.2549785003066,None,None,None,,,,,,,4,29,male,4,2022_May_05_1024,Partial repeat,2021.2.3,59.889133173340696,
3,3,0,1,2,3,1,1,0,0,0,1,1,1,0,0,49,49,49,1,0,1,0,,,,,,,,,661.8400276005268,None,662.80799189955,None,s,1,0.4380326010286808,662.80799189955,None,None,None,,,,,,,4,29,male,4,2022_May_05_1024,Partial repeat,2021.2.3,59.889133173340696,
3,3,0,1,2,3,1,1,0,0,0,1,1,1,0,0,49,49,49,,,,,,,,,,,,,,,,,,,,,,,,,,,,,,4,29,male,4,2022_May_05_1024,Partial repeat,2021.2.3,59.889133173340696,
3,3,0,1,3,2,1,2,0,1,0,0,0,1,0,0,50,50,50,0,0,0,0,,,,,,,663.2710085008293,None,663.4300861991942,None,664.3618377000093,None,s,1,0.42010550014674664,664.3618377000093,None,None,None,,,,,,,4,29,male,4,2022_May_05_1024,Partial repeat,2021.2.3,59.889133173340696,
3,3,0,1,3,2,1,2,0,1,0,0,0,1,0,0,50,50,50,1,0,1,0,,,,,,,,,664.7984964996576,None,665.5464855004102,None,l,1,0.5314943995326757,665.5464855004102,None,None,None,,,,,,,4,29,male,4,2022_May_05_1024,Partial repeat,2021.2.3,59.889133173340696,
3,3,0,1,3,2,1,2,0,1,0,0,0,1,0,0,50,50,50,,,,,,,,,,,,,,,,,,,,,,,,,,,,,,4,29,male,4,2022_May_05_1024,Partial repeat,2021.2.3,59.889133173340696,
3,3,0,1,2,2,2,2,1,0,1,1,0,1,0,0,51,51,51,0,0,0,0,,,,,,,666.0925996005535,None,666.1852922998369,None,667.0997407995164,None,l,1,0.5622908994555473,667.0997407995164,None,None,None,,,,,,,4,29,male,4,2022_May_05_1024,Partial repeat,2021.2.3,59.889133173340696,
3,3,0,1,2,2,2,2,1,0,1,1,0,1,0,0,51,51,51,1,0,1,0,,,,,,,,,667.6849294994026,None,668.5191715992987,None,s,1,0.4148654993623495,668.5191715992987,None,None,None,,,,,,,4,29,male,4,2022_May_05_1024,Partial repeat,2021.2.3,59.889133173340696,
3,3,0,1,2,2,2,2,1,0,1,1,0,1,0,0,51,51,51,,,,,,,,,,,,,,,,,,,,,,,,,,,,,,4,29,male,4,2022_May_05_1024,Partial repeat,2021.2.3,59.889133173340696,
3,3,0,1,3,3,1,2,0,0,1,0,1,1,0,0,52,52,52,0,0,0,0,,,,,,,668.9605691004544,None,669.0743914004415,None,669.888933699578,None,s,1,0.501027898862958,669.888933699578,None,None,None,,,,,,,4,29,male,4,2022_May_05_1024,Partial repeat,2021.2.3,59.889133173340696,
3,3,0,1,3,3,1,2,0,0,1,0,1,1,0,0,52,52,52,1,0,1,0,,,,,,,,,670.4096243008971,None,671.2749154008925,None,s,1,0.347121499478817,671.2749154008925,None,None,None,,,,,,,4,29,male,4,2022_May_05_1024,Partial repeat,2021.2.3,59.889133173340696,
3,3,0,1,3,3,1,2,0,0,1,0,1,1,0,0,52,52,52,,,,,,,,,,,,,,,,,,,,,,,,,,,,,,4,29,male,4,2022_May_05_1024,Partial repeat,2021.2.3,59.889133173340696,
3,3,0,1,3,3,2,1,0,1,1,0,0,1,0,0,53,53,53,0,0,0,0,,,,,,,671.6459433995187,None,672.0468566007912,None,672.861005499959,None,s,1,0.43306090123951435,672.861005499959,None,None,None,,,,,,,4,29,male,4,2022_May_05_1024,Partial repeat,2021.2.3,59.889133173340696,
3,3,0,1,3,3,2,1,0,1,1,0,0,1,0,0,53,53,53,1,0,1,0,,,,,,,,,673.3176250997931,None,674.0963081996888,None,l,1,0.4297615997493267,674.0963081996888,None,None,None,,,,,,,4,29,male,4,2022_May_05_1024,Partial repeat,2021.2.3,59.889133173340696,
3,3,0,1,3,3,2,1,0,1,1,0,0,1,0,0,53,53,53,,,,,,,,,,,,,,,,,,,,,,,,,,,,,,4,29,male,4,2022_May_05_1024,Partial repeat,2021.2.3,59.889133173340696,
3,3,0,1,3,3,2,1,1,0,1,0,0,1,0,0,54,54,54,0,0,0,0,,,,,,,674.5370864998549,None,674.635075500235,None,675.3990412000567,None,l,1,0.438987098634243,675.3990412000567,None,None,None,,,,,,,4,29,male,4,2022_May_05_1024,Partial repeat,2021.2.3,59.889133173340696,
3,3,0,1,3,3,2,1,1,0,1,0,0,1,0,0,54,54,54,1,0,1,0,,,,,,,,,675.8573678992689,None,676.8352856002748,None,s,1,0.5548168998211622,676.8352856002748,None,None,None,,,,,,,4,29,male,4,2022_May_05_1024,Partial repeat,2021.2.3,59.889133173340696,
3,3,0,1,3,3,2,1,1,0,1,0,0,1,0,0,54,54,54,,,,,,,,,,,,,,,,,,,,,,,,,,,,,,4,29,male,4,2022_May_05_1024,Partial repeat,2021.2.3,59.889133173340696,
3,3,0,1,3,3,1,2,1,1,1,0,1,1,0,0,55,55,55,0,0,0,0,,,,,,,677.4054039996117,None,677.524150300771,None,678.355066999793,None,l,1,0.4909180998802185,678.355066999793,None,None,None,,,,,,,4,29,male,4,2022_May_05_1024,Partial repeat,2021.2.3,59.889133173340696,
3,3,0,1,3,3,1,2,1,1,1,0,1,1,0,0,55,55,55,1,0,1,0,,,,,,,,,678.8711941000074,None,679.7751464992762,None,l,1,0.48684010095894337,679.7751464992762,None,None,None,,,,,,,4,29,male,4,2022_May_05_1024,Partial repeat,2021.2.3,59.889133173340696,
3,3,0,1,3,3,1,2,1,1,1,0,1,1,0,0,55,55,55,,,,,,,,,,,,,,,,,,,,,,,,,,,,,,4,29,male,4,2022_May_05_1024,Partial repeat,2021.2.3,59.889133173340696,
3,3,0,1,3,2,1,1,0,1,0,1,0,1,0,0,56,56,56,0,0,0,0,,,,,,,680.2779962997884,None,680.3964013997465,None,681.1612125001848,None,s,1,0.4208770003169775,681.1612125001848,None,None,None,,,,,,,4,29,male,4,2022_May_05_1024,Partial repeat,2021.2.3,59.889133173340696,
3,3,0,1,3,2,1,1,0,1,0,1,0,1,0,0,56,56,56,1,0,1,0,,,,,,,,,681.5958620999008,None,682.329346800223,None,l,1,0.5006409995257854,682.329346800223,None,None,None,,,,,,,4,29,male,4,2022_May_05_1024,Partial repeat,2021.2.3,59.889133173340696,
3,3,0,1,3,2,1,1,0,1,0,1,0,1,0,0,56,56,56,,,,,,,,,,,,,,,,,,,,,,,,,,,,,,4,29,male,4,2022_May_05_1024,Partial repeat,2021.2.3,59.889133173340696,
3,3,0,1,3,3,1,1,0,0,1,1,1,1,0,0,57,57,57,0,0,0,0,,,,,,,682.8536354005337,None,682.901115000248,None,683.8834323007613,None,s,1,0.46658699959516525,683.8834323007613,None,None,None,,,,,,,4,29,male,4,2022_May_05_1024,Partial repeat,2021.2.3,59.889133173340696,
3,3,0,1,3,3,1,1,0,0,1,1,1,1,0,0,57,57,57,1,0,1,0,,,,,,,,,684.3658884000033,None,685.1014520004392,None,s,1,0.3526445999741554,685.1014520004392,None,None,None,,,,,,,4,29,male,4,2022_May_05_1024,Partial repeat,2021.2.3,59.889133173340696,
3,3,0,1,3,3,1,1,0,0,1,1,1,1,0,0,57,57,57,,,,,,,,,,,,,,,,,,,,,,,,,,,,,,4,29,male,4,2022_May_05_1024,Partial repeat,2021.2.3,59.889133173340696,
3,3,0,1,2,3,1,2,0,1,0,0,0,1,0,0,58,58,58,0,0,0,0,,,,,,,685.4780115000904,None,685.7234758995473,None,686.6722369994968,None,s,1,0.4138377998024225,686.6722369994968,None,None,None,,,,,,,4,29,male,4,2022_May_05_1024,Partial repeat,2021.2.3,59.889133173340696,
3,3,0,1,2,3,1,2,0,1,0,0,0,1,0,0,58,58,58,1,0,1,0,,,,,,,,,687.1091195996851,None,688.0903871003538,None,s,0,0.3475952986627817,688.0903871003538,None,688.4646259006113,None,,,,,,,4,29,male,4,2022_May_05_1024,Partial repeat,2021.2.3,59.889133173340696,
3,3,0,1,2,3,1,2,0,1,0,0,0,1,0,0,58,58,58,,,,,,,,,,,,,,,,,,,,,,,,,,,,,,4,29,male,4,2022_May_05_1024,Partial repeat,2021.2.3,59.889133173340696,
3,3,0,1,3,2,1,2,1,0,0,0,0,1,0,0,59,59,59,0,0,0,0,,,,,,,688.9798239991069,None,689.5475884005427,None,690.3948401007801,None,l,1,0.9951779991388321,690.3948401007801,None,None,None,,,,,,,4,29,male,4,2022_May_05_1024,Partial repeat,2021.2.3,59.889133173340696,
3,3,0,1,3,2,1,2,1,0,0,0,0,1,0,0,59,59,59,1,0,1,0,,,,,,,,,691.4069026000798,None,692.3657862991095,None,s,1,0.5282123014330864,692.3657862991095,None,None,None,,,,,,,4,29,male,4,2022_May_05_1024,Partial repeat,2021.2.3,59.889133173340696,
3,3,0,1,3,2,1,2,1,0,0,0,0,1,0,0,59,59,59,,,,,,,,,,,,,,,,,,,,,,,,,,,,,,4,29,male,4,2022_May_05_1024,Partial repeat,2021.2.3,59.889133173340696,
3,3,0,1,3,2,2,1,0,0,0,0,1,1,0,0,60,60,60,0,0,0,0,,,,,,,692.9163425005972,None,693.3716020993888,None,694.2199210003018,None,s,1,0.5780529994517565,694.2199210003018,None,None,None,,,,,,,4,29,male,4,2022_May_05_1024,Partial repeat,2021.2.3,59.889133173340696,
3,3,0,1,3,2,2,1,0,0,0,0,1,1,0,0,60,60,60,1,0,1,0,,,,,,,,,694.8243982996792,None,695.8388797994703,None,s,1,0.6951026991009712,695.8388797994703,None,None,None,,,,,,,4,29,male,4,2022_May_05_1024,Partial repeat,2021.2.3,59.889133173340696,
3,3,0,1,3,2,2,1,0,0,0,0,1,1,0,0,60,60,60,,,,,,,,,,,,,,,,,,,,,,,,,,,,,,4,29,male,4,2022_May_05_1024,Partial repeat,2021.2.3,59.889133173340696,
3,3,0,1,3,2,2,2,1,0,0,1,0,1,0,0,61,61,61,0,0,0,0,,,,,,,696.5615739002824,None,697.0454763993621,None,698.059736000374,None,l,1,0.6182300001382828,698.059736000374,None,None,None,,,,,,,4,29,male,4,2022_May_05_1024,Partial repeat,2021.2.3,59.889133173340696,
3,3,0,1,3,2,2,2,1,0,0,1,0,1,0,0,61,61,61,1,0,1,0,,,,,,,,,698.69018759951,None,699.5138421002775,None,s,1,0.5401329006999731,699.5138421002775,None,None,None,,,,,,,4,29,male,4,2022_May_05_1024,Partial repeat,2021.2.3,59.889133173340696,
3,3,0,1,3,2,2,2,1,0,0,1,0,1,0,0,61,61,61,,,,,,,,,,,,,,,,,,,,,,,,,,,,,,4,29,male,4,2022_May_05_1024,Partial repeat,2021.2.3,59.889133173340696,
3,3,0,1,3,2,1,2,0,0,0,0,1,1,0,0,62,62,62,0,0,0,0,,,,,,,700.0791199002415,None,700.1513839997351,None,701.0491553004831,None,s,1,0.46084379963576794,701.0491553004831,None,None,None,,,,,,,4,29,male,4,2022_May_05_1024,Partial repeat,2021.2.3,59.889133173340696,
3,3,0,1,3,2,1,2,0,0,0,0,1,1,0,0,62,62,62,1,0,1,0,,,,,,,,,701.5230685994029,None,702.5019560996443,None,s,1,0.3360092993825674,702.5019560996443,None,None,None,,,,,,,4,29,male,4,2022_May_05_1024,Partial repeat,2021.2.3,59.889133173340696,
3,3,0,1,3,2,1,2,0,0,0,0,1,1,0,0,62,62,62,,,,,,,,,,,,,,,,,,,,,,,,,,,,,,4,29,male,4,2022_May_05_1024,Partial repeat,2021.2.3,59.889133173340696,
3,3,0,1,3,2,1,1,0,0,0,1,1,1,0,0,63,63,63,0,0,0,0,,,,,,,702.8548390995711,None,703.0237738005817,None,704.0395002998412,None,s,1,0.40653640031814575,704.0395002998412,None,None,None,,,,,,,4,29,male,4,2022_May_05_1024,Partial repeat,2021.2.3,59.889133173340696,
3,3,0,1,3,2,1,1,0,0,0,1,1,1,0,0,63,63,63,1,0,1,0,,,,,,,,,704.4732380006462,None,705.2572453990579,None,s,1,0.5407583005726337,705.2572453990579,None,None,None,,,,,,,4,29,male,4,2022_May_05_1024,Partial repeat,2021.2.3,59.889133173340696,
3,3,0,1,3,2,1,1,0,0,0,1,1,1,0,0,63,63,63,,,,,,,,,,,,,,,,,,,,,,,,,,,,,,4,29,male,4,2022_May_05_1024,Partial repeat,2021.2.3,59.889133173340696,
2,7,0,1,3,3,2,2,1,1,1,1,1,0,0,0,64,64,64,0,0,0,0,,,,,,,705.9410624001175,None,708.2005176004022,None,708.9311864990741,None,l,1,2.5948144998401403,708.9311864990741,None,None,None,,,,,,,4,29,male,4,2022_May_05_1024,Partial repeat,2021.2.3,59.889133173340696,
2,7,0,1,3,3,2,2,1,1,1,1,1,0,0,0,64,64,64,1,0,1,0,,,,,,,,,711.5456268992275,None,712.354467600584,None,l,1,0.8996562007814646,712.354467600584,None,None,None,,,,,,,4,29,male,4,2022_May_05_1024,Partial repeat,2021.2.3,59.889133173340696,
2,7,0,1,3,3,2,2,1,1,1,1,1,0,0,0,64,64,64,,,,,,,,,,,,,,,,,,,,,,,,,,,,,,4,29,male,4,2022_May_05_1024,Partial repeat,2021.2.3,59.889133173340696,
2,8,0,1,3,2,2,1,1,0,0,0,0,0,0,0,65,65,65,0,0,0,0,,,,,,,713.2650947999209,None,713.3604019004852,None,714.3247825000435,None,l,1,0.9691548999398947,714.3247825000435,None,None,None,,,,,,,4,29,male,4,2022_May_05_1024,Partial repeat,2021.2.3,59.889133173340696,
2,8,0,1,3,2,2,1,1,0,0,0,0,0,0,0,65,65,65,1,0,1,0,,,,,,,,,715.3107101004571,None,716.1284759007394,None,s,1,0.7575273998081684,716.1284759007394,None,None,None,,,,,,,4,29,male,4,2022_May_05_1024,Partial repeat,2021.2.3,59.889133173340696,
2,8,0,1,3,2,2,1,1,0,0,0,0,0,0,0,65,65,65,,,,,,,,,,,,,,,,,,,,,,,,,,,,,,4,29,male,4,2022_May_05_1024,Partial repeat,2021.2.3,59.889133173340696,
4,7,0,1,3,3,1,1,1,0,1,1,0,0,0,0,66,66,66,0,0,0,0,,,,,,,716.8967653997242,None,716.967426000163,None,717.9661253001541,None,l,1,0.8318582996726036,717.9661253001541,None,None,None,,,,,,,4,29,male,4,2022_May_05_1024,Partial repeat,2021.2.3,59.889133173340696,
4,7,0,1,3,3,1,1,1,0,1,1,0,0,0,0,66,66,66,1,0,1,0,,,,,,,,,718.811227299273,None,719.7687867004424,None,s,1,0.6531704999506474,719.7687867004424,None,None,None,,,,,,,4,29,male,4,2022_May_05_1024,Partial repeat,2021.2.3,59.889133173340696,
4,7,0,1,3,3,1,1,1,0,1,1,0,0,0,0,66,66,66,,,,,,,,,,,,,,,,,,,,,,,,,,,,,,4,29,male,4,2022_May_05_1024,Partial repeat,2021.2.3,59.889133173340696,
8,4,0,1,2,3,2,1,0,1,0,0,0,0,0,0,67,67,67,0,0,0,0,,,,,,,720.4468090999871,None,720.5076024997979,None,721.2883106991649,None,l,0,0.8216823991388083,721.2883106991649,None,722.1370072998106,None,,,,,,,4,29,male,4,2022_May_05_1024,Partial repeat,2021.2.3,59.889133173340696,
8,4,0,1,2,3,2,1,0,1,0,0,0,0,0,0,67,67,67,1,0,1,0,,,,,,,,,722.6452095992863,None,723.659349700436,None,l,1,2.098693398758769,723.659349700436,None,None,None,,,,,,,4,29,male,4,2022_May_05_1024,Partial repeat,2021.2.3,59.889133173340696,
8,4,0,1,2,3,2,1,0,1,0,0,0,0,0,0,67,67,67,,,,,,,,,,,,,,,,,,,,,,,,,,,,,,4,29,male,4,2022_May_05_1024,Partial repeat,2021.2.3,59.889133173340696,
3,4,0,1,2,2,1,2,0,0,1,0,1,0,0,0,68,68,68,0,0,0,0,,,,,,,725.7774557005614,None,725.8513559997082,None,726.7657018005848,None,s,1,0.8323909007012844,726.7657018005848,None,None,None,,,,,,,4,29,male,4,2022_May_05_1024,Partial repeat,2021.2.3,59.889133173340696,
3,4,0,1,2,2,1,2,0,0,1,0,1,0,0,0,68,68,68,1,0,1,0,,,,,,,,,727.6089162994176,None,728.5860262997448,None,s,1,0.8679580986499786,728.5860262997448,None,None,None,,,,,,,4,29,male,4,2022_May_05_1024,Partial repeat,2021.2.3,59.889133173340696,
3,4,0,1,2,2,1,2,0,0,1,0,1,0,0,0,68,68,68,,,,,,,,,,,,,,,,,,,,,,,,,,,,,,4,29,male,4,2022_May_05_1024,Partial repeat,2021.2.3,59.889133173340696,
8,3,0,1,2,2,1,1,0,1,1,1,0,0,0,0,69,69,69,0,0,0,0,,,,,,,729.4797089006752,None,729.5083528999239,None,730.4227936994284,None,s,1,0.8151654992252588,730.4227936994284,None,None,None,,,,,,,4,29,male,4,2022_May_05_1024,Partial repeat,2021.2.3,59.889133173340696,
8,3,0,1,2,2,1,1,0,1,1,1,0,0,0,0,69,69,69,1,0,1,0,,,,,,,,,731.2657228000462,None,732.1595291998237,None,l,1,0.6463954988867044,732.1595291998237,None,None,None,,,,,,,4,29,male,4,2022_May_05_1024,Partial repeat,2021.2.3,59.889133173340696,
8,3,0,1,2,2,1,1,0,1,1,1,0,0,0,0,69,69,69,,,,,,,,,,,,,,,,,,,,,,,,,,,,,,4,29,male,4,2022_May_05_1024,Partial repeat,2021.2.3,59.889133173340696,
7,2,0,1,3,3,1,2,0,0,1,0,1,0,0,0,70,70,70,0,0,0,0,,,,,,,732.8373731002212,None,733.3660288006067,None,734.3470811005682,None,s,1,0.8349137995392084,734.3470811005682,None,None,None,,,,,,,4,29,male,4,2022_May_05_1024,Partial repeat,2021.2.3,59.889133173340696,
7,2,0,1,3,3,1,2,0,0,1,0,1,0,0,0,70,70,70,1,0,1,0,,,,,,,,,735.2082276996225,None,736.1171744000167,None,s,1,0.792917100712657,736.1171744000167,None,None,None,,,,,,,4,29,male,4,2022_May_05_1024,Partial repeat,2021.2.3,59.889133173340696,
7,2,0,1,3,3,1,2,0,0,1,0,1,0,0,0,70,70,70,,,,,,,,,,,,,,,,,,,,,,,,,,,,,,4,29,male,4,2022_May_05_1024,Partial repeat,2021.2.3,59.889133173340696,
1,5,0,1,2,2,2,2,1,0,1,1,0,0,0,0,71,71,71,0,0,0,0,,,,,,,736.9214922003448,None,736.9896977003664,None,737.7380320001394,None,l,1,0.7159198001027107,737.7380320001394,None,None,None,,,,,,,4,29,male,4,2022_May_05_1024,Partial repeat,2021.2.3,59.889133173340696,
1,5,0,1,2,2,2,2,1,0,1,1,0,0,0,0,71,71,71,1,0,1,0,,,,,,,,,738.4742511007935,None,739.3568906001747,None,s,1,0.7850838992744684,739.3568906001747,None,None,None,,,,,,,4,29,male,4,2022_May_05_1024,Partial repeat,2021.2.3,59.889133173340696,
1,5,0,1,2,2,2,2,1,0,1,1,0,0,0,0,71,71,71,,,,,,,,,,,,,,,,,,,,,,,,,,,,,,4,29,male,4,2022_May_05_1024,Partial repeat,2021.2.3,59.889133173340696,
2,3,0,1,3,3,2,1,0,1,1,0,0,0,0,0,72,72,72,0,0,0,0,,,,,,,740.1629927996546,None,740.2293142005801,None,741.1437714993954,None,s,1,1.0861687995493412,741.1437714993954,None,None,None,,,,,,,4,29,male,4,2022_May_05_1024,Partial repeat,2021.2.3,59.889133173340696,
2,3,0,1,3,3,2,1,0,1,1,0,0,0,0,0,72,72,72,1,0,1,0,,,,,,,,,742.2423988990486,None,743.0314195994288,None,l,1,0.7585546001791954,743.0314195994288,None,None,None,,,,,,,4,29,male,4,2022_May_05_1024,Partial repeat,2021.2.3,59.889133173340696,
2,3,0,1,3,3,2,1,0,1,1,0,0,0,0,0,72,72,72,,,,,,,,,,,,,,,,,,,,,,,,,,,,,,4,29,male,4,2022_May_05_1024,Partial repeat,2021.2.3,59.889133173340696,
8,5,0,1,2,2,2,2,0,1,1,1,0,0,0,0,73,73,73,0,0,0,0,,,,,,,743.8157966006547,None,743.8529465999454,None,744.8340128008276,None,s,1,0.9719590991735458,744.8340128008276,None,None,None,,,,,,,4,29,male,4,2022_May_05_1024,Partial repeat,2021.2.3,59.889133173340696,
8,5,0,1,2,2,2,2,0,1,1,1,0,0,0,0,73,73,73,1,0,1,0,,,,,,,,,745.825402200222,None,746.7221361994743,None,l,1,0.6439635995775461,746.7221361994743,None,None,None,,,,,,,4,29,male,4,2022_May_05_1024,Partial repeat,2021.2.3,59.889133173340696,
8,5,0,1,2,2,2,2,0,1,1,1,0,0,0,0,73,73,73,,,,,,,,,,,,,,,,,,,,,,,,,,,,,,4,29,male,4,2022_May_05_1024,Partial repeat,2021.2.3,59.889133173340696,
7,3,0,1,3,2,2,2,1,1,0,1,1,0,0,0,74,74,74,0,0,0,0,,,,,,,747.379321699962,None,747.4265874996781,None,748.3742667995393,None,s,0,0.6316769011318684,748.3742667995393,None,749.0250514000654,None,,,,,,,4,29,male,4,2022_May_05_1024,Partial repeat,2021.2.3,59.889133173340696,
7,3,0,1,3,2,2,2,1,1,0,1,1,0,0,0,74,74,74,1,0,1,0,,,,,,,,,749.53091429919,None,750.2960879001766,None,l,1,0.8778875004500151,750.2960879001766,None,None,None,,,,,,,4,29,male,4,2022_May_05_1024,Partial repeat,2021.2.3,59.889133173340696,
7,3,0,1,3,2,2,2,1,1,0,1,1,0,0,0,74,74,74,,,,,,,,,,,,,,,,,,,,,,,,,,,,,,4,29,male,4,2022_May_05_1024,Partial repeat,2021.2.3,59.889133173340696,
7,6,0,1,3,2,2,2,1,0,0,1,0,0,0,0,75,75,75,0,0,0,0,,,,,,,751.1970865000039,None,751.2340063005686,None,752.114861400798,None,l,1,0.6751132011413574,752.114861400798,None,None,None,,,,,,,4,29,male,4,2022_May_05_1024,Partial repeat,2021.2.3,59.889133173340696,
7,6,0,1,3,2,2,2,1,0,0,1,0,0,0,0,75,75,75,1,0,1,0,,,,,,,,,752.8070851992816,None,753.7349085994065,None,s,1,0.6550272013992071,753.7349085994065,None,None,None,,,,,,,4,29,male,4,2022_May_05_1024,Partial repeat,2021.2.3,59.889133173340696,
7,6,0,1,3,2,2,2,1,0,0,1,0,0,0,0,75,75,75,,,,,,,,,,,,,,,,,,,,,,,,,,,,,,4,29,male,4,2022_May_05_1024,Partial repeat,2021.2.3,59.889133173340696,
4,8,0,1,3,2,2,1,0,1,0,0,0,0,0,0,76,76,76,0,0,0,0,,,,,,,754.4099845997989,None,754.4904046002775,None,755.4394895005971,None,s,1,0.9824820999056101,755.4394895005971,None,None,None,,,,,,,4,29,male,4,2022_May_05_1024,Partial repeat,2021.2.3,59.889133173340696,
4,8,0,1,3,2,2,1,0,1,0,0,0,0,0,0,76,76,76,1,0,1,0,,,,,,,,,756.4430496990681,None,757.3269800003618,None,l,1,0.7030087001621723,757.3269800003618,None,None,None,,,,,,,4,29,male,4,2022_May_05_1024,Partial repeat,2021.2.3,59.889133173340696,
4,8,0,1,3,2,2,1,0,1,0,0,0,0,0,0,76,76,76,,,,,,,,,,,,,,,,,,,,,,,,,,,,,,4,29,male,4,2022_May_05_1024,Partial repeat,2021.2.3,59.889133173340696,
7,8,0,1,3,2,2,2,0,1,0,1,0,0,0,0,77,77,77,0,0,0,0,,,,,,,758.0478469002992,None,758.0806185994297,None,758.8625399004668,None,s,1,1.0873991008847952,758.8625399004668,None,None,None,,,,,,,4,29,male,4,2022_May_05_1024,Partial repeat,2021.2.3,59.889133173340696,
7,8,0,1,3,2,2,2,0,1,0,1,0,0,0,0,77,77,77,1,0,1,0,,,,,,,,,759.9648123998195,None,760.9487041998655,None,l,1,0.6892891004681587,760.9487041998655,None,None,None,,,,,,,4,29,male,4,2022_May_05_1024,Partial repeat,2021.2.3,59.889133173340696,
7,8,0,1,3,2,2,2,0,1,0,1,0,0,0,0,77,77,77,,,,,,,,,,,,,,,,,,,,,,,,,,,,,,4,29,male,4,2022_May_05_1024,Partial repeat,2021.2.3,59.889133173340696,
3,8,0,1,2,3,1,2,1,1,0,0,1,0,0,0,78,78,78,0,0,0,0,,,,,,,761.6630435008556,None,761.6806076001376,None,762.6363079994917,None,l,1,0.8977364003658295,762.6363079994917,None,None,None,,,,,,,4,29,male,4,2022_May_05_1024,Partial repeat,2021.2.3,59.889133173340696,
3,8,0,1,2,3,1,2,1,1,0,0,1,0,0,0,78,78,78,1,0,1,0,,,,,,,,,763.5508331991732,None,764.2893006000668,None,l,1,0.7965651005506516,764.2893006000668,None,None,None,,,,,,,4,29,male,4,2022_May_05_1024,Partial repeat,2021.2.3,59.889133173340696,
3,8,0,1,2,3,1,2,1,1,0,0,1,0,0,0,78,78,78,,,,,,,,,,,,,,,,,,,,,,,,,,,,,,4,29,male,4,2022_May_05_1024,Partial repeat,2021.2.3,59.889133173340696,
5,5,0,1,2,2,1,1,1,0,1,1,0,0,0,0,79,79,79,0,0,0,0,,,,,,,765.1093620993197,None,765.1946114003658,None,766.0087068993598,None,l,1,0.7332304008305073,766.0087068993598,None,None,None,,,,,,,4,29,male,4,2022_May_05_1024,Partial repeat,2021.2.3,59.889133173340696,
5,5,0,1,2,2,1,1,1,0,1,1,0,0,0,0,79,79,79,1,0,1,0,,,,,,,,,766.7682668995112,None,767.7288016993552,None,s,1,0.8691600989550352,767.7288016993552,None,None,None,,,,,,,4,29,male,4,2022_May_05_1024,Partial repeat,2021.2.3,59.889133173340696,
5,5,0,1,2,2,1,1,1,0,1,1,0,0,0,0,79,79,79,,,,,,,,,,,,,,,,,,,,,,,,,,,,,,4,29,male,4,2022_May_05_1024,Partial repeat,2021.2.3,59.889133173340696,
7,5,0,1,3,3,1,1,1,1,1,1,1,0,0,0,80,80,80,0,0,0,0,,,,,,,768.6212668996304,None,768.7013904992491,None,769.4490639995784,None,l,1,0.660911500453949,769.4490639995784,None,None,None,,,,,,,4,29,male,4,2022_May_05_1024,Partial repeat,2021.2.3,59.889133173340696,
7,5,0,1,3,3,1,1,1,1,1,1,1,0,0,0,80,80,80,1,0,1,0,,,,,,,,,770.1215433999896,None,770.9682890996337,None,l,1,0.6456806994974613,770.9682890996337,None,None,None,,,,,,,4,29,male,4,2022_May_05_1024,Partial repeat,2021.2.3,59.889133173340696,
7,5,0,1,3,3,1,1,1,1,1,1,1,0,0,0,80,80,80,,,,,,,,,,,,,,,,,,,,,,,,,,,,,,4,29,male,4,2022_May_05_1024,Partial repeat,2021.2.3,59.889133173340696,
5,6,0,1,3,2,1,2,0,1,0,0,0,0,0,0,81,81,81,0,0,0,0,,,,,,,771.6435669008642,None,771.7239333000034,None,772.4711278993636,None,s,1,0.7748444005846977,772.4711278993636,None,None,None,,,,,,,4,29,male,4,2022_May_05_1024,Partial repeat,2021.2.3,59.889133173340696,
5,6,0,1,3,2,1,2,0,1,0,0,0,0,0,0,81,81,81,1,0,1,0,,,,,,,,,773.2663997001946,None,774.1577752996236,None,l,1,0.7521262001246214,774.1577752996236,None,None,None,,,,,,,4,29,male,4,2022_May_05_1024,Partial repeat,2021.2.3,59.889133173340696,
5,6,0,1,3,2,1,2,0,1,0,0,0,0,0,0,81,81,81,,,,,,,,,,,,,,,,,,,,,,,,,,,,,,4,29,male,4,2022_May_05_1024,Partial repeat,2021.2.3,59.889133173340696,
5,4,0,1,3,2,1,2,1,1,0,0,1,0,0,0,82,82,82,0,0,0,0,,,,,,,774.9410197008401,None,774.9634728003293,None,775.9278568997979,None,l,1,0.8701039999723434,775.9278568997979,None,None,None,,,,,,,4,29,male,4,2022_May_05_1024,Partial repeat,2021.2.3,59.889133173340696,
5,4,0,1,3,2,1,2,1,1,0,0,1,0,0,0,82,82,82,1,0,1,0,,,,,,,,,776.8222854994237,None,777.5990322008729,None,l,1,0.6309273988008499,777.5990322008729,None,None,None,,,,,,,4,29,male,4,2022_May_05_1024,Partial repeat,2021.2.3,59.889133173340696,
5,4,0,1,3,2,1,2,1,1,0,0,1,0,0,0,82,82,82,,,,,,,,,,,,,,,,,,,,,,,,,,,,,,4,29,male,4,2022_May_05_1024,Partial repeat,2021.2.3,59.889133173340696,
6,4,0,1,2,3,2,2,1,1,0,1,1,0,0,0,83,83,83,0,0,0,0,,,,,,,778.2535568997264,None,779.3221799992025,None,780.2529975995421,None,l,1,0.7690456006675959,780.2529975995421,None,None,None,,,,,,,4,29,male,4,2022_May_05_1024,Partial repeat,2021.2.3,59.889133173340696,
6,4,0,1,2,3,2,2,1,1,0,1,1,0,0,0,83,83,83,1,0,1,0,,,,,,,,,781.0503062997013,None,781.8396127000451,None,l,1,0.726435599848628,781.8396127000451,None,None,None,,,,,,,4,29,male,4,2022_May_05_1024,Partial repeat,2021.2.3,59.889133173340696,
6,4,0,1,2,3,2,2,1,1,0,1,1,0,0,0,83,83,83,,,,,,,,,,,,,,,,,,,,,,,,,,,,,,4,29,male,4,2022_May_05_1024,Partial repeat,2021.2.3,59.889133173340696,
3,1,0,1,3,3,2,1,1,1,1,0,1,0,0,0,84,84,84,0,0,0,0,,,,,,,782.585238000378,None,782.6451979000121,None,783.4434259999543,None,l,1,0.8505811989307404,783.4434259999543,None,None,None,,,,,,,4,29,male,4,2022_May_05_1024,Partial repeat,2021.2.3,59.889133173340696,
3,1,0,1,3,3,2,1,1,1,1,0,1,0,0,0,84,84,84,1,0,1,0,,,,,,,,,784.304744200781,None,785.1124400999397,None,l,1,0.5576392989605665,785.1124400999397,None,None,None,,,,,,,4,29,male,4,2022_May_05_1024,Partial repeat,2021.2.3,59.889133173340696,
3,1,0,1,3,3,2,1,1,1,1,0,1,0,0,0,84,84,84,,,,,,,,,,,,,,,,,,,,,,,,,,,,,,4,29,male,4,2022_May_05_1024,Partial repeat,2021.2.3,59.889133173340696,
2,4,0,1,3,2,1,2,0,0,0,0,1,0,0,0,85,85,85,0,0,0,0,,,,,,,785.681909000501,None,785.8013355992734,None,786.6499851997942,None,l,0,0.6200552005320787,786.6499851997942,None,787.2972362991422,None,,,,,,,4,29,male,4,2022_May_05_1024,Partial repeat,2021.2.3,59.889133173340696,
2,4,0,1,3,2,1,2,0,0,0,0,1,0,0,0,85,85,85,1,0,1,0,,,,,,,,,787.8053658008575,None,788.5855235997587,None,s,1,0.8204960990697145,788.5855235997587,None,None,None,,,,,,,4,29,male,4,2022_May_05_1024,Partial repeat,2021.2.3,59.889133173340696,
2,4,0,1,3,2,1,2,0,0,0,0,1,0,0,0,85,85,85,,,,,,,,,,,,,,,,,,,,,,,,,,,,,,4,29,male,4,2022_May_05_1024,Partial repeat,2021.2.3,59.889133173340696,
3,5,0,1,2,3,2,2,0,1,0,1,0,0,0,0,86,86,86,0,0,0,0,,,,,,,789.4321541003883,None,789.491772800684,None,790.4405237995088,None,s,1,0.7333741001784801,790.4405237995088,None,None,None,,,,,,,4,29,male,4,2022_May_05_1024,Partial repeat,2021.2.3,59.889133173340696,
3,5,0,1,2,3,2,2,0,1,0,1,0,0,0,0,86,86,86,1,0,1,0,,,,,,,,,791.19909190014,None,792.0929339993745,None,s,0,0.864995701238513,792.0929339993745,None,792.984567899257,None,,,,,,,4,29,male,4,2022_May_05_1024,Partial repeat,2021.2.3,59.889133173340696,
3,5,0,1,2,3,2,2,0,1,0,1,0,0,0,0,86,86,86,,,,,,,,,,,,,,,,,,,,,,,,,,,,,,4,29,male,4,2022_May_05_1024,Partial repeat,2021.2.3,59.889133173340696,
6,3,0,1,3,2,1,2,1,0,0,0,0,0,0,0,87,87,87,0,0,0,0,,,,,,,793.4997946992517,None,793.900494499132,None,794.7481159996241,None,l,1,0.905926801264286,794.7481159996241,None,None,None,,,,,,,4,29,male,4,2022_May_05_1024,Partial repeat,2021.2.3,59.889133173340696,
6,3,0,1,3,2,1,2,1,0,0,0,0,0,0,0,87,87,87,1,0,1,0,,,,,,,,,795.6731339003891,None,796.4186048004776,None,s,1,0.7314040996134281,796.4186048004776,None,None,None,,,,,,,4,29,male,4,2022_May_05_1024,Partial repeat,2021.2.3,59.889133173340696,
6,3,0,1,3,2,1,2,1,0,0,0,0,0,0,0,87,87,87,,,,,,,,,,,,,,,,,,,,,,,,,,,,,,4,29,male,4,2022_May_05_1024,Partial repeat,2021.2.3,59.889133173340696,
6,7,0,1,2,3,2,1,1,1,0,0,1,0,0,0,88,88,88,0,0,0,0,,,,,,,797.1609521005303,None,797.2234653998166,None,797.9722451008856,None,l,1,0.7776862010359764,797.9722451008856,None,None,None,,,,,,,4,29,male,4,2022_May_05_1024,Partial repeat,2021.2.3,59.889133173340696,
6,7,0,1,2,3,2,1,1,1,0,0,1,0,0,0,88,88,88,1,0,1,0,,,,,,,,,798.767314100638,None,799.5581225007772,None,l,1,0.5518052000552416,799.5581225007772,None,None,None,,,,,,,4,29,male,4,2022_May_05_1024,Partial repeat,2021.2.3,59.889133173340696,
6,7,0,1,2,3,2,1,1,1,0,0,1,0,0,0,88,88,88,,,,,,,,,,,,,,,,,,,,,,,,,,,,,,4,29,male,4,2022_May_05_1024,Partial repeat,2021.2.3,59.889133173340696,
5,1,0,1,3,3,1,2,1,0,1,0,0,0,0,0,89,89,89,0,0,0,0,,,,,,,800.127410499379,None,800.1960042994469,None,801.1112431008369,None,l,1,0.5747223999351263,801.1112431008369,None,None,None,,,,,,,4,29,male,4,2022_May_05_1024,Partial repeat,2021.2.3,59.889133173340696,
5,1,0,1,3,3,1,2,1,0,1,0,0,0,0,0,89,89,89,1,0,1,0,,,,,,,,,801.7020807992667,None,802.7136244997382,None,s,1,0.916347099468112,802.7136244997382,None,None,None,,,,,,,4,29,male,4,2022_May_05_1024,Partial repeat,2021.2.3,59.889133173340696,
5,1,0,1,3,3,1,2,1,0,1,0,0,0,0,0,89,89,89,,,,,,,,,,,,,,,,,,,,,,,,,,,,,,4,29,male,4,2022_May_05_1024,Partial repeat,2021.2.3,59.889133173340696,
4,1,0,1,3,2,1,1,1,0,0,1,0,0,0,0,90,90,90,0,0,0,0,,,,,,,803.6481069996953,None,803.7027998007834,None,804.617723800242,None,l,1,0.6762048006057739,804.617723800242,None,None,None,,,,,,,4,29,male,4,2022_May_05_1024,Partial repeat,2021.2.3,59.889133173340696,
4,1,0,1,3,2,1,1,1,0,0,1,0,0,0,0,90,90,90,1,0,1,0,,,,,,,,,805.3110920991749,None,806.1704344004393,None,s,1,0.7234860993921757,806.1704344004393,None,None,None,,,,,,,4,29,male,4,2022_May_05_1024,Partial repeat,2021.2.3,59.889133173340696,
4,1,0,1,3,2,1,1,1,0,0,1,0,0,0,0,90,90,90,,,,,,,,,,,,,,,,,,,,,,,,,,,,,,4,29,male,4,2022_May_05_1024,Partial repeat,2021.2.3,59.889133173340696,
3,7,0,1,2,3,2,1,1,0,0,0,0,0,0,0,91,91,91,0,0,0,0,,,,,,,806.9157213997096,None,806.9925580993295,None,807.7901188004762,None,l,1,0.6397895999252796,807.7901188004762,None,None,None,,,,,,,4,29,male,4,2022_May_05_1024,Partial repeat,2021.2.3,59.889133173340696,
3,7,0,1,2,3,2,1,1,0,0,0,0,0,0,0,91,91,91,1,0,1,0,,,,,,,,,808.4382138997316,None,809.3940248005092,None,s,1,0.7479273993521929,809.3940248005092,None,None,None,,,,,,,4,29,male,4,2022_May_05_1024,Partial repeat,2021.2.3,59.889133173340696,
3,7,0,1,2,3,2,1,1,0,0,0,0,0,0,0,91,91,91,,,,,,,,,,,,,,,,,,,,,,,,,,,,,,4,29,male,4,2022_May_05_1024,Partial repeat,2021.2.3,59.889133173340696,
1,1,0,1,2,2,2,1,0,0,1,0,1,0,0,0,92,92,92,0,0,0,0,,,,,,,810.1562150008976,None,810.2154933996499,None,811.1797659993172,None,s,1,0.6261852011084557,811.1797659993172,None,None,None,,,,,,,4,29,male,4,2022_May_05_1024,Partial repeat,2021.2.3,59.889133173340696,
1,1,0,1,2,2,2,1,0,0,1,0,1,0,0,0,92,92,92,1,0,1,0,,,,,,,,,811.8284997008741,None,812.816592099145,None,s,1,0.6133181992918253,812.816592099145,None,None,None,,,,,,,4,29,male,4,2022_May_05_1024,Partial repeat,2021.2.3,59.889133173340696,
1,1,0,1,2,2,2,1,0,0,1,0,1,0,0,0,92,92,92,,,,,,,,,,,,,,,,,,,,,,,,,,,,,,4,29,male,4,2022_May_05_1024,Partial repeat,2021.2.3,59.889133173340696,
8,8,0,1,2,2,2,1,1,1,1,0,1,0,0,0,93,93,93,0,0,0,0,,,,,,,813.4455936998129,None,813.5052023995668,None,814.2690909001976,None,l,1,0.9368262011557817,814.2690909001976,None,None,None,,,,,,,4,29,male,4,2022_May_05_1024,Partial repeat,2021.2.3,59.889133173340696,
8,8,0,1,2,2,2,1,1,1,1,0,1,0,0,0,93,93,93,1,0,1,0,,,,,,,,,815.2207957990468,None,816.0392489992082,None,l,1,0.7026602998375893,816.0392489992082,None,None,None,,,,,,,4,29,male,4,2022_May_05_1024,Partial repeat,2021.2.3,59.889133173340696,
8,8,0,1,2,2,2,1,1,1,1,0,1,0,0,0,93,93,93,,,,,,,,,,,,,,,,,,,,,,,,,,,,,,4,29,male,4,2022_May_05_1024,Partial repeat,2021.2.3,59.889133173340696,
7,1,0,1,2,2,1,2,0,1,1,0,0,0,0,0,94,94,94,0,0,0,0,,,,,,,816.7572974991053,None,816.8450332004577,None,817.8594297003001,None,s,1,0.6265174001455307,817.8594297003001,None,None,None,,,,,,,4,29,male,4,2022_May_05_1024,Partial repeat,2021.2.3,59.889133173340696,
7,1,0,1,2,2,1,2,0,1,1,0,0,0,0,0,94,94,94,1,0,1,0,,,,,,,,,818.508286299184,None,819.4460751004517,None,l,1,0.5598332993686199,819.4460751004517,None,None,None,,,,,,,4,29,male,4,2022_May_05_1024,Partial repeat,2021.2.3,59.889133173340696,
7,1,0,1,2,2,1,2,0,1,1,0,0,0,0,0,94,94,94,,,,,,,,,,,,,,,,,,,,,,,,,,,,,,4,29,male,4,2022_May_05_1024,Partial repeat,2021.2.3,59.889133173340696,
6,1,0,1,2,3,1,2,1,0,0,0,0,0,0,0,95,95,95,0,0,0,0,,,,,,,820.0334419999272,None,820.0678595993668,None,820.7820420004427,None,l,1,0.7119055986404419,820.7820420004427,None,None,None,,,,,,,4,29,male,4,2022_May_05_1024,Partial repeat,2021.2.3,59.889133173340696,
6,1,0,1,2,3,1,2,1,0,0,0,0,0,0,0,95,95,95,1,0,1,0,,,,,,,,,821.5214897003025,None,822.5020109005272,None,s,1,0.7998882010579109,822.5020109005272,None,None,None,,,,,,,4,29,male,4,2022_May_05_1024,Partial repeat,2021.2.3,59.889133173340696,
6,1,0,1,2,3,1,2,1,0,0,0,0,0,0,0,95,95,95,,,,,,,,,,,,,,,,,,,,,,,,,,,,,,4,29,male,4,2022_May_05_1024,Partial repeat,2021.2.3,59.889133173340696,
4,6,0,1,3,3,1,2,1,1,1,0,1,0,0,0,96,96,96,0,0,0,0,,,,,,,823.3294612001628,None,823.3909933995456,None,824.2051122002304,None,l,1,1.1047987006604671,824.2051122002304,None,None,None,,,,,,,4,29,male,4,2022_May_05_1024,Partial repeat,2021.2.3,59.889133173340696,
4,6,0,1,3,3,1,2,1,1,1,0,1,0,0,0,96,96,96,1,0,1,0,,,,,,,,,825.3301100004464,None,826.1422760002315,None,l,1,0.7357144001871347,826.1422760002315,None,None,None,,,,,,,4,29,male,4,2022_May_05_1024,Partial repeat,2021.2.3,59.889133173340696,
4,6,0,1,3,3,1,2,1,1,1,0,1,0,0,0,96,96,96,,,,,,,,,,,,,,,,,,,,,,,,,,,,,,4,29,male,4,2022_May_05_1024,Partial repeat,2021.2.3,59.889133173340696,
5,8,0,1,2,2,1,1,0,0,1,1,1,0,0,0,97,97,97,0,0,0,0,,,,,,,826.9090705998242,None,826.9479149002582,None,827.795609800145,None,s,1,0.6502886991947889,827.795609800145,None,None,None,,,,,,,4,29,male,4,2022_May_05_1024,Partial repeat,2021.2.3,59.889133173340696,
5,8,0,1,2,2,1,1,0,0,1,1,1,0,0,0,97,97,97,1,0,1,0,,,,,,,,,828.4639378003776,None,829.4653795994818,None,s,1,0.7726339008659124,829.4653795994818,None,None,None,,,,,,,4,29,male,4,2022_May_05_1024,Partial repeat,2021.2.3,59.889133173340696,
5,8,0,1,2,2,1,1,0,0,1,1,1,0,0,0,97,97,97,,,,,,,,,,,,,,,,,,,,,,,,,,,,,,4,29,male,4,2022_May_05_1024,Partial repeat,2021.2.3,59.889133173340696,
4,3,0,1,3,2,2,2,0,0,0,1,1,0,0,0,98,98,98,0,0,0,0,,,,,,,830.2510091997683,None,830.3379647005349,None,831.2865802999586,None,s,1,0.7033325992524624,831.2865802999586,None,None,None,,,,,,,4,29,male,4,2022_May_05_1024,Partial repeat,2021.2.3,59.889133173340696,
4,3,0,1,3,2,2,2,0,0,0,1,1,0,0,0,98,98,98,1,0,1,0,,,,,,,,,831.999173399061,None,832.938804699108,None,s,1,0.5791740007698536,832.938804699108,None,None,None,,,,,,,4,29,male,4,2022_May_05_1024,Partial repeat,2021.2.3,59.889133173340696,
4,3,0,1,3,2,2,2,0,0,0,1,1,0,0,0,98,98,98,,,,,,,,,,,,,,,,,,,,,,,,,,,,,,4,29,male,4,2022_May_05_1024,Partial repeat,2021.2.3,59.889133173340696,
4,4,0,1,2,3,2,2,1,0,0,1,0,0,0,0,99,99,99,0,0,0,0,,,,,,,833.5296394005418,None,833.6277018003166,None,834.5422735996544,None,l,1,0.7277323994785547,834.5422735996544,None,None,None,,,,,,,4,29,male,4,2022_May_05_1024,Partial repeat,2021.2.3,59.889133173340696,
4,4,0,1,2,3,2,2,1,0,0,1,0,0,0,0,99,99,99,1,0,1,0,,,,,,,,,835.2980943992734,None,836.245281400159,None,s,1,0.7206247001886368,836.245281400159,None,None,None,,,,,,,4,29,male,4,2022_May_05_1024,Partial repeat,2021.2.3,59.889133173340696,
4,4,0,1,2,3,2,2,1,0,0,1,0,0,0,0,99,99,99,,,,,,,,,,,,,,,,,,,,,,,,,,,,,,4,29,male,4,2022_May_05_1024,Partial repeat,2021.2.3,59.889133173340696,
7,7,0,1,2,2,1,2,1,1,1,0,1,0,0,0,100,100,100,0,0,0,0,,,,,,,836.9867665003985,None,837.0510095991194,None,837.8987802006304,None,l,1,1.0031732004135847,837.8987802006304,None,None,None,,,,,,,4,29,male,4,2022_May_05_1024,Partial repeat,2021.2.3,59.889133173340696,
7,7,0,1,2,2,1,2,1,1,1,0,1,0,0,0,100,100,100,1,0,1,0,,,,,,,,,838.9193750005215,None,839.7856274992228,None,l,1,0.5562828984111547,839.7856274992228,None,None,None,,,,,,,4,29,male,4,2022_May_05_1024,Partial repeat,2021.2.3,59.889133173340696,
7,7,0,1,2,2,1,2,1,1,1,0,1,0,0,0,100,100,100,,,,,,,,,,,,,,,,,,,,,,,,,,,,,,4,29,male,4,2022_May_05_1024,Partial repeat,2021.2.3,59.889133173340696,
5,7,0,1,3,3,2,1,1,0,1,0,0,0,0,0,101,101,101,0,0,0,0,,,,,,,840.3609558995813,None,840.3774922993034,None,841.2382858004421,None,l,1,0.9596084002405405,841.2382858004421,None,None,None,,,,,,,4,29,male,4,2022_May_05_1024,Partial repeat,2021.2.3,59.889133173340696,
5,7,0,1,3,3,2,1,1,0,1,0,0,0,0,0,101,101,101,1,0,1,0,,,,,,,,,842.2109839990735,None,843.058873899281,None,s,1,0.9630621988326311,843.058873899281,None,None,None,,,,,,,4,29,male,4,2022_May_05_1024,Partial repeat,2021.2.3,59.889133173340696,
5,7,0,1,3,3,2,1,1,0,1,0,0,0,0,0,101,101,101,,,,,,,,,,,,,,,,,,,,,,,,,,,,,,4,29,male,4,2022_May_05_1024,Partial repeat,2021.2.3,59.889133173340696,
7,4,0,1,2,2,2,2,1,1,1,1,1,0,0,0,102,102,102,0,0,0,0,,,,,,,844.0429139006883,None,844.1147741992027,None,844.9287292994559,None,l,1,1.0452849995344877,844.9287292994559,None,None,None,,,,,,,4,29,male,4,2022_May_05_1024,Partial repeat,2021.2.3,59.889133173340696,
7,4,0,1,2,2,2,2,1,1,1,1,1,0,0,0,102,102,102,1,0,1,0,,,,,,,,,845.9826427008957,None,846.8160299994051,None,l,1,0.9178964011371136,846.8160299994051,None,None,None,,,,,,,4,29,male,4,2022_May_05_1024,Partial repeat,2021.2.3,59.889133173340696,
7,4,0,1,2,2,2,2,1,1,1,1,1,0,0,0,102,102,102,,,,,,,,,,,,,,,,,,,,,,,,,,,,,,4,29,male,4,2022_May_05_1024,Partial repeat,2021.2.3,59.889133173340696,
2,6,0,1,3,3,2,2,0,0,1,1,1,0,0,0,103,103,103,0,0,0,0,,,,,,,847.7501391991973,None,847.7717330995947,None,848.7532243002206,None,s,1,0.8446727003902197,848.7532243002206,None,None,None,,,,,,,4,29,male,4,2022_May_05_1024,Partial repeat,2021.2.3,59.889133173340696,
2,6,0,1,3,3,2,2,0,0,1,1,1,0,0,0,103,103,103,1,0,1,0,,,,,,,,,849.6175928004086,None,850.4561813995242,None,s,1,0.9738053996115923,850.4561813995242,None,None,None,,,,,,,4,29,male,4,2022_May_05_1024,Partial repeat,2021.2.3,59.889133173340696,
2,6,0,1,3,3,2,2,0,0,1,1,1,0,0,0,103,103,103,,,,,,,,,,,,,,,,,,,,,,,,,,,,,,4,29,male,4,2022_May_05_1024,Partial repeat,2021.2.3,59.889133173340696,
2,1,0,1,3,3,2,2,0,1,1,1,0,0,0,0,104,104,104,0,0,0,0,,,,,,,851.4606957994401,None,851.4789370000362,None,852.4600448999554,None,s,1,0.9778891000896692,852.4600448999554,None,None,None,,,,,,,4,29,male,4,2022_May_05_1024,Partial repeat,2021.2.3,59.889133173340696,
2,1,0,1,3,3,2,2,0,1,1,1,0,0,0,0,104,104,104,1,0,1,0,,,,,,,,,853.4523005001247,None,854.3136410992593,None,l,1,0.7642480004578829,854.3136410992593,None,None,None,,,,,,,4,29,male,4,2022_May_05_1024,Partial repeat,2021.2.3,59.889133173340696,
2,1,0,1,3,3,2,2,0,1,1,1,0,0,0,0,104,104,104,,,,,,,,,,,,,,,,,,,,,,,,,,,,,,4,29,male,4,2022_May_05_1024,Partial repeat,2021.2.3,59.889133173340696,
8,7,0,1,3,2,1,1,0,1,0,1,0,0,0,0,105,105,105,0,0,0,0,,,,,,,855.0954851005226,None,855.1695067994297,None,856.0673814993352,None,s,1,1.7146763987839222,856.0673814993352,None,None,None,,,,,,,4,29,male,4,2022_May_05_1024,Partial repeat,2021.2.3,59.889133173340696,
8,7,0,1,3,2,1,1,0,1,0,1,0,0,0,0,105,105,105,1,0,1,0,,,,,,,,,857.7928401008248,None,858.6223125997931,None,l,1,1.0555636007338762,858.6223125997931,None,None,None,,,,,,,4,29,male,4,2022_May_05_1024,Partial repeat,2021.2.3,59.889133173340696,
8,7,0,1,3,2,1,1,0,1,0,1,0,0,0,0,105,105,105,,,,,,,,,,,,,,,,,,,,,,,,,,,,,,4,29,male,4,2022_May_05_1024,Partial repeat,2021.2.3,59.889133173340696,
1,3,0,1,2,2,2,1,1,0,1,0,0,0,0,0,106,106,106,0,0,0,0,,,,,,,859.6885906998068,None,859.7618793994188,None,860.5093575008214,None,l,1,0.9124833010137081,860.5093575008214,None,None,None,,,,,,,4,29,male,4,2022_May_05_1024,Partial repeat,2021.2.3,59.889133173340696,
1,3,0,1,2,2,2,1,1,0,1,0,0,0,0,0,106,106,106,1,0,1,0,,,,,,,,,861.4334369003773,None,862.2458653002977,None,s,1,0.784061498939991,862.2458653002977,None,None,None,,,,,,,4,29,male,4,2022_May_05_1024,Partial repeat,2021.2.3,59.889133173340696,
1,3,0,1,2,2,2,1,1,0,1,0,0,0,0,0,106,106,106,,,,,,,,,,,,,,,,,,,,,,,,,,,,,,4,29,male,4,2022_May_05_1024,Partial repeat,2021.2.3,59.889133173340696,
6,8,0,1,2,3,1,1,0,0,0,1,1,0,0,0,107,107,107,0,0,0,0,,,,,,,863.0512527991086,None,863.1350928992033,None,864.08266899921,None,s,1,0.7072201985865831,864.08266899921,None,None,None,,,,,,,4,29,male,4,2022_May_05_1024,Partial repeat,2021.2.3,59.889133173340696,
6,8,0,1,2,3,1,1,0,0,0,1,1,0,0,0,107,107,107,1,0,1,0,,,,,,,,,864.8176502007991,None,865.6857706997544,None,s,1,0.5921149998903275,865.6857706997544,None,None,None,,,,,,,4,29,male,4,2022_May_05_1024,Partial repeat,2021.2.3,59.889133173340696,
6,8,0,1,2,3,1,1,0,0,0,1,1,0,0,0,107,107,107,,,,,,,,,,,,,,,,,,,,,,,,,,,,,,4,29,male,4,2022_May_05_1024,Partial repeat,2021.2.3,59.889133173340696,
8,2,0,1,3,2,2,1,1,1,0,0,1,0,0,0,108,108,108,0,0,0,0,,,,,,,866.298322699964,None,866.3412299994379,None,867.1388520002365,None,l,1,0.7151274997740984,867.1388520002365,None,None,None,,,,,,,4,29,male,4,2022_May_05_1024,Partial repeat,2021.2.3,59.889133173340696,
8,2,0,1,3,2,2,1,1,1,0,0,1,0,0,0,108,108,108,1,0,1,0,,,,,,,,,867.8708001002669,None,868.8087737001479,None,l,1,0.661150399595499,868.8087737001479,None,None,None,,,,,,,4,29,male,4,2022_May_05_1024,Partial repeat,2021.2.3,59.889133173340696,
8,2,0,1,3,2,2,1,1,1,0,0,1,0,0,0,108,108,108,,,,,,,,,,,,,,,,,,,,,,,,,,,,,,4,29,male,4,2022_May_05_1024,Partial repeat,2021.2.3,59.889133173340696,
8,1,0,1,2,2,1,2,1,0,1,0,0,0,0,0,109,109,109,0,0,0,0,,,,,,,869.4854070991278,None,869.6145268008113,None,870.4450182002038,None,l,1,0.728889798745513,870.4450182002038,None,None,None,,,,,,,4,29,male,4,2022_May_05_1024,Partial repeat,2021.2.3,59.889133173340696,
8,1,0,1,2,2,1,2,1,0,1,0,0,0,0,0,109,109,109,1,0,1,0,,,,,,,,,871.1937239002436,None,872.1150589995086,None,s,1,0.49082979932427406,872.1150589995086,None,None,None,,,,,,,4,29,male,4,2022_May_05_1024,Partial repeat,2021.2.3,59.889133173340696,
8,1,0,1,2,2,1,2,1,0,1,0,0,0,0,0,109,109,109,,,,,,,,,,,,,,,,,,,,,,,,,,,,,,4,29,male,4,2022_May_05_1024,Partial repeat,2021.2.3,59.889133173340696,
1,6,0,1,2,3,1,1,1,0,0,1,0,0,0,0,110,110,110,0,0,0,0,,,,,,,872.622243899852,None,872.7204091008753,None,873.6846578996629,None,l,1,0.7452668994665146,873.6846578996629,None,None,None,,,,,,,4,29,male,4,2022_May_05_1024,Partial repeat,2021.2.3,59.889133173340696,
1,6,0,1,2,3,1,1,1,0,0,1,0,0,0,0,110,110,110,1,0,1,0,,,,,,,,,874.4395576007664,None,875.2383319996297,None,s,1,0.855587299913168,875.2383319996297,None,None,None,,,,,,,4,29,male,4,2022_May_05_1024,Partial repeat,2021.2.3,59.889133173340696,
1,6,0,1,2,3,1,1,1,0,0,1,0,0,0,0,110,110,110,,,,,,,,,,,,,,,,,,,,,,,,,,,,,,4,29,male,4,2022_May_05_1024,Partial repeat,2021.2.3,59.889133173340696,
6,5,0,1,3,2,1,1,0,0,0,1,1,0,0,0,111,111,111,0,0,0,0,,,,,,,876.1095441002399,None,876.1603165008128,None,877.0748594999313,None,s,1,0.5790945012122393,877.0748594999313,None,None,None,,,,,,,4,29,male,4,2022_May_05_1024,Partial repeat,2021.2.3,59.889133173340696,
6,5,0,1,3,2,1,1,0,0,0,1,1,0,0,0,111,111,111,1,0,1,0,,,,,,,,,877.6822593007237,None,878.4273582994938,None,s,1,0.8265313990414143,878.4273582994938,None,None,None,,,,,,,4,29,male,4,2022_May_05_1024,Partial repeat,2021.2.3,59.889133173340696,
6,5,0,1,3,2,1,1,0,0,0,1,1,0,0,0,111,111,111,,,,,,,,,,,,,,,,,,,,,,,,,,,,,,4,29,male,4,2022_May_05_1024,Partial repeat,2021.2.3,59.889133173340696,
2,2,0,1,3,3,1,2,0,1,1,0,0,0,0,0,112,112,112,0,0,0,0,,,,,,,879.2771530002356,None,879.3332946002483,None,880.1141819991171,None,s,1,0.7717329990118742,880.1141819991171,None,None,None,,,,,,,4,29,male,4,2022_May_05_1024,Partial repeat,2021.2.3,59.889133173340696,
2,2,0,1,3,3,1,2,0,1,1,0,0,0,0,0,112,112,112,1,0,1,0,,,,,,,,,880.9137495998293,None,881.7839602008462,None,l,1,0.5980466995388269,881.7839602008462,None,None,None,,,,,,,4,29,male,4,2022_May_05_1024,Partial repeat,2021.2.3,59.889133173340696,
2,2,0,1,3,3,1,2,0,1,1,0,0,0,0,0,112,112,112,,,,,,,,,,,,,,,,,,,,,,,,,,,,,,4,29,male,4,2022_May_05_1024,Partial repeat,2021.2.3,59.889133173340696,
6,2,0,1,3,3,1,1,0,1,1,1,0,0,0,0,113,113,113,0,0,0,0,,,,,,,882.3932365998626,None,882.4726768005639,None,883.4873399008065,None,s,1,1.6705267000943422,883.4873399008065,None,None,None,,,,,,,4,29,male,4,2022_May_05_1024,Partial repeat,2021.2.3,59.889133173340696,
6,2,0,1,3,3,1,1,0,1,1,1,0,0,0,0,113,113,113,1,0,1,0,,,,,,,,,885.1805374994874,None,885.9085371997207,None,l,1,0.7133396994322538,885.9085371997207,None,None,None,,,,,,,4,29,male,4,2022_May_05_1024,Partial repeat,2021.2.3,59.889133173340696,
6,2,0,1,3,3,1,1,0,1,1,1,0,0,0,0,113,113,113,,,,,,,,,,,,,,,,,,,,,,,,,,,,,,4,29,male,4,2022_May_05_1024,Partial repeat,2021.2.3,59.889133173340696,
5,2,0,1,2,3,2,2,0,0,0,1,1,0,0,0,114,114,114,0,0,0,0,,,,,,,886.6486604996026,None,886.7477106004953,None,887.51185159944,None,l,0,1.3661126010119915,887.51185159944,None,888.8878272995353,None,,,,,,,4,29,male,4,2022_May_05_1024,Partial repeat,2021.2.3,59.889133173340696,
5,2,0,1,2,3,2,2,0,0,0,1,1,0,0,0,114,114,114,1,0,1,0,,,,,,,,,889.4030095990747,None,890.1163938995451,None,s,1,1.0335222017019987,890.1163938995451,None,None,None,,,,,,,4,29,male,4,2022_May_05_1024,Partial repeat,2021.2.3,59.889133173340696,
5,2,0,1,2,3,2,2,0,0,0,1,1,0,0,0,114,114,114,,,,,,,,,,,,,,,,,,,,,,,,,,,,,,4,29,male,4,2022_May_05_1024,Partial repeat,2021.2.3,59.889133173340696,
2,5,0,1,2,3,1,1,0,1,0,1,0,0,0,0,115,115,115,0,0,0,0,,,,,,,891.1814393997192,None,891.2564468998462,None,892.0203508995473,None,s,1,0.6895566992461681,892.0203508995473,None,None,None,,,,,,,4,29,male,4,2022_May_05_1024,Partial repeat,2021.2.3,59.889133173340696,
2,5,0,1,2,3,1,1,0,1,0,1,0,0,0,0,115,115,115,1,0,1,0,,,,,,,,,892.7300861999393,None,893.4731472991407,None,l,1,0.7087363004684448,893.4731472991407,None,None,None,,,,,,,4,29,male,4,2022_May_05_1024,Partial repeat,2021.2.3,59.889133173340696,
2,5,0,1,2,3,1,1,0,1,0,1,0,0,0,0,115,115,115,,,,,,,,,,,,,,,,,,,,,,,,,,,,,,4,29,male,4,2022_May_05_1024,Partial repeat,2021.2.3,59.889133173340696,
1,7,0,1,2,3,1,1,1,1,0,1,1,0,0,0,116,116,116,0,0,0,0,,,,,,,894.1935722008348,None,894.3125692997128,None,895.2266978994012,None,l,1,0.915259599685669,895.2266978994012,None,None,None,,,,,,,4,29,male,4,2022_May_05_1024,Partial repeat,2021.2.3,59.889133173340696,
1,7,0,1,2,3,1,1,1,1,0,1,1,0,0,0,116,116,116,1,0,1,0,,,,,,,,,896.1598322000355,None,896.9800857007504,None,l,1,0.6419648993760347,896.9800857007504,None,None,None,,,,,,,4,29,male,4,2022_May_05_1024,Partial repeat,2021.2.3,59.889133173340696,
1,7,0,1,2,3,1,1,1,1,0,1,1,0,0,0,116,116,116,,,,,,,,,,,,,,,,,,,,,,,,,,,,,,4,29,male,4,2022_May_05_1024,Partial repeat,2021.2.3,59.889133173340696,
1,4,0,1,3,3,1,1,0,0,1,1,1,0,0,0,117,117,117,0,0,0,0,,,,,,,897.6344162002206,None,897.7357938997447,None,898.5506465993822,None,l,0,0.7512031011283398,898.5506465993822,None,899.3308074008673,None,,,,,,,4,29,male,4,2022_May_05_1024,Partial repeat,2021.2.3,59.889133173340696,
1,4,0,1,3,3,1,1,0,0,1,1,1,0,0,0,117,117,117,1,0,1,0,,,,,,,,,899.8399592991918,None,900.6035342998803,None,s,1,1.1943659000098705,900.6035342998803,None,None,None,,,,,,,4,29,male,4,2022_May_05_1024,Partial repeat,2021.2.3,59.889133173340696,
1,4,0,1,3,3,1,1,0,0,1,1,1,0,0,0,117,117,117,,,,,,,,,,,,,,,,,,,,,,,,,,,,,,4,29,male,4,2022_May_05_1024,Partial repeat,2021.2.3,59.889133173340696,
6,6,0,1,2,3,1,2,0,0,0,0,1,0,0,0,118,118,118,0,0,0,0,,,,,,,901.8262575995177,None,901.9105198998004,None,902.6747235003859,None,s,1,0.5871504992246628,902.6747235003859,None,None,None,,,,,,,4,29,male,4,2022_May_05_1024,Partial repeat,2021.2.3,59.889133173340696,
6,6,0,1,2,3,1,2,0,0,0,0,1,0,0,0,118,118,118,1,0,1,0,,,,,,,,,903.2811900991946,None,904.0607165005058,None,s,1,0.6251592002809048,904.0607165005058,None,None,None,,,,,,,4,29,male,4,2022_May_05_1024,Partial repeat,2021.2.3,59.889133173340696,
6,6,0,1,2,3,1,2,0,0,0,0,1,0,0,0,118,118,118,,,,,,,,,,,,,,,,,,,,,,,,,,,,,,4,29,male,4,2022_May_05_1024,Partial repeat,2021.2.3,59.889133173340696,
5,3,0,1,2,2,1,1,1,1,1,1,1,0,0,0,119,119,119,0,0,0,0,,,,,,,904.6973729990423,None,904.7996235005558,None,905.580374000594,None,s,0,0.6255280002951622,905.580374000594,None,906.2324614990503,None,,,,,,,4,29,male,4,2022_May_05_1024,Partial repeat,2021.2.3,59.889133173340696,
5,3,0,1,2,2,1,1,1,1,1,1,1,0,0,0,119,119,119,1,0,1,0,,,,,,,,,906.736741900444,None,907.6006090007722,None,l,1,1.2853133007884026,907.6006090007722,None,None,None,,,,,,,4,29,male,4,2022_May_05_1024,Partial repeat,2021.2.3,59.889133173340696,
5,3,0,1,2,2,1,1,1,1,1,1,1,0,0,0,119,119,119,,,,,,,,,,,,,,,,,,,,,,,,,,,,,,4,29,male,4,2022_May_05_1024,Partial repeat,2021.2.3,59.889133173340696,
1,2,0,1,2,2,2,2,0,0,1,1,1,0,0,0,120,120,120,0,0,0,0,,,,,,,908.8962299004197,None,909.0077082999051,None,909.8721666000783,None,s,1,0.7016697004437447,909.8721666000783,None,None,None,,,,,,,4,29,male,4,2022_May_05_1024,Partial repeat,2021.2.3,59.889133173340696,
1,2,0,1,2,2,2,2,0,0,1,1,1,0,0,0,120,120,120,1,0,1,0,,,,,,,,,910.5860153008252,None,911.375391099602,None,s,1,0.7425053995102644,911.375391099602,None,None,None,,,,,,,4,29,male,4,2022_May_05_1024,Partial repeat,2021.2.3,59.889133173340696,
1,2,0,1,2,2,2,2,0,0,1,1,1,0,0,0,120,120,120,,,,,,,,,,,,,,,,,,,,,,,,,,,,,,4,29,male,4,2022_May_05_1024,Partial repeat,2021.2.3,59.889133173340696,
4,2,0,1,3,3,2,2,1,0,1,1,0,0,0,0,121,121,121,0,0,0,0,,,,,,,912.1340887006372,None,912.1972112003714,None,913.1782463993877,None,l,1,0.6837745010852814,913.1782463993877,None,None,None,,,,,,,4,29,male,4,2022_May_05_1024,Partial repeat,2021.2.3,59.889133173340696,
4,2,0,1,3,3,2,2,1,0,1,1,0,0,0,0,121,121,121,1,0,1,0,,,,,,,,,913.8720903992653,None,914.6647149994969,None,s,1,0.7891946006566286,914.6647149994969,None,None,None,,,,,,,4,29,male,4,2022_May_05_1024,Partial repeat,2021.2.3,59.889133173340696,
4,2,0,1,3,3,2,2,1,0,1,1,0,0,0,0,121,121,121,,,,,,,,,,,,,,,,,,,,,,,,,,,,,,4,29,male,4,2022_May_05_1024,Partial repeat,2021.2.3,59.889133173340696,
3,3,0,1,2,3,1,2,0,1,0,0,0,0,0,0,122,122,122,0,0,0,0,,,,,,,915.4682825002819,None,915.5537457000464,None,916.5180398002267,None,s,1,0.7438420001417398,916.5180398002267,None,None,None,,,,,,,4,29,male,4,2022_May_05_1024,Partial repeat,2021.2.3,59.889133173340696,
3,3,0,1,2,3,1,2,0,1,0,0,0,0,0,0,122,122,122,1,0,1,0,,,,,,,,,917.2764091994613,None,918.1880786996335,None,l,1,0.6258202008903027,918.1880786996335,None,None,None,,,,,,,4,29,male,4,2022_May_05_1024,Partial repeat,2021.2.3,59.889133173340696,
3,3,0,1,2,3,1,2,0,1,0,0,0,0,0,0,122,122,122,,,,,,,,,,,,,,,,,,,,,,,,,,,,,,4,29,male,4,2022_May_05_1024,Partial repeat,2021.2.3,59.889133173340696,
8,6,0,1,2,2,2,1,0,1,1,0,0,0,0,0,123,123,123,0,0,0,0,,,,,,,918.8418570999056,None,918.8935663998127,None,919.62425930053,None,s,1,0.6296057999134064,919.62425930053,None,None,None,,,,,,,4,29,male,4,2022_May_05_1024,Partial repeat,2021.2.3,59.889133173340696,
8,6,0,1,2,2,2,1,0,1,1,0,0,0,0,0,123,123,123,1,0,1,0,,,,,,,,,920.2757609002292,None,921.0268419999629,None,l,1,0.595032200217247,921.0268419999629,None,None,None,,,,,,,4,29,male,4,2022_May_05_1024,Partial repeat,2021.2.3,59.889133173340696,
8,6,0,1,2,2,2,1,0,1,1,0,0,0,0,0,123,123,123,,,,,,,,,,,,,,,,,,,,,,,,,,,,,,4,29,male,4,2022_May_05_1024,Partial repeat,2021.2.3,59.889133173340696,
4,5,0,1,3,2,2,1,0,0,0,0,1,0,0,0,124,124,124,0,0,0,0,,,,,,,921.6369064003229,None,921.6989374998957,None,922.5466105993837,None,s,1,0.9392849002033472,922.5466105993837,None,None,None,,,,,,,4,29,male,4,2022_May_05_1024,Partial repeat,2021.2.3,59.889133173340696,
4,5,0,1,3,2,2,1,0,0,0,0,1,0,0,0,124,124,124,1,0,1,0,,,,,,,,,923.5134551990777,None,924.400276299566,None,s,1,0.613688999786973,924.400276299566,None,None,None,,,,,,,4,29,male,4,2022_May_05_1024,Partial repeat,2021.2.3,59.889133173340696,
4,5,0,1,3,2,2,1,0,0,0,0,1,0,0,0,124,124,124,,,,,,,,,,,,,,,,,,,,,,,,,,,,,,4,29,male,4,2022_May_05_1024,Partial repeat,2021.2.3,59.889133173340696,
3,6,0,1,3,2,1,1,1,1,0,1,1,0,0,0,125,125,125,0,0,0,0,,,,,,,925.0333241000772,None,925.1223466992378,None,925.8861925005913,None,l,1,0.6556657999753952,925.8861925005913,None,None,None,,,,,,,4,29,male,4,2022_May_05_1024,Partial repeat,2021.2.3,59.889133173340696,
3,6,0,1,3,2,1,1,1,1,0,1,1,0,0,0,125,125,125,1,0,1,0,,,,,,,,,926.557327600196,None,927.5563660990447,None,l,1,0.7615840993821621,927.5563660990447,None,None,None,,,,,,,4,29,male,4,2022_May_05_1024,Partial repeat,2021.2.3,59.889133173340696,
3,6,0,1,3,2,1,1,1,1,0,1,1,0,0,0,125,125,125,,,,,,,,,,,,,,,,,,,,,,,,,,,,,,4,29,male,4,2022_May_05_1024,Partial repeat,2021.2.3,59.889133173340696,
3,2,0,1,2,3,2,1,0,0,0,0,1,0,0,0,126,126,126,0,0,0,0,,,,,,,928.3343573994935,None,928.3953837994486,None,929.3272865004838,None,s,1,0.9506482984870672,929.3272865004838,None,None,None,,,,,,,4,29,male,4,2022_May_05_1024,Partial repeat,2021.2.3,59.889133173340696,
3,2,0,1,2,3,2,1,0,0,0,0,1,0,0,0,126,126,126,1,0,1,0,,,,,,,,,930.3011668007821,None,931.1646678000689,None,s,1,0.6572670992463827,931.1646678000689,None,None,None,,,,,,,4,29,male,4,2022_May_05_1024,Partial repeat,2021.2.3,59.889133173340696,
3,2,0,1,2,3,2,1,0,0,0,0,1,0,0,0,126,126,126,,,,,,,,,,,,,,,,,,,,,,,,,,,,,,4,29,male,4,2022_May_05_1024,Partial repeat,2021.2.3,59.889133173340696,
1,8,0,1,3,3,2,1,0,0,1,0,1,0,0,0,127,127,127,0,0,0,0,,,,,,,931.8446478005499,None,931.8620710000396,None,932.8173718992621,None,s,1,0.7084771003574133,932.8173718992621,None,None,None,,,,,,,4,29,male,4,2022_May_05_1024,Partial repeat,2021.2.3,59.889133173340696,
1,8,0,1,3,3,2,1,0,0,1,0,1,0,0,0,127,127,127,1,0,1,0,,,,,,,,,933.5522818006575,None,934.5208116006106,None,s,1,0.6051127016544342,934.5208116006106,None,None,None,,,,,,,4,29,male,4,2022_May_05_1024,Partial repeat,2021.2.3,59.889133173340696,
1,8,0,1,3,3,2,1,0,0,1,0,1,0,0,0,127,127,127,,,,,,,,,,,,,,,,,,,,,,,,,,,,,,4,29,male,4,2022_May_05_1024,Partial repeat,2021.2.3,59.889133173340696,
1,1,0,1,2,2,2,1,1,1,1,0,1,1,0,0,128,128,128,0,0,0,0,,,,,,,935.1805639006197,None,935.7765721008182,None,936.6741861999035,None,l,1,0.5557025000452995,936.6741861999035,None,None,None,,,,,,,4,29,male,4,2022_May_05_1024,Partial repeat,2021.2.3,59.889133173340696,
1,1,0,1,2,2,2,1,1,1,1,0,1,1,0,0,128,128,128,1,0,1,0,,,,,,,,,937.2449961006641,None,938.1271043997258,None,l,1,0.6547506004571915,938.1271043997258,None,None,None,,,,,,,4,29,male,4,2022_May_05_1024,Partial repeat,2021.2.3,59.889133173340696,
1,1,0,1,2,2,2,1,1,1,1,0,1,1,0,0,128,128,128,,,,,,,,,,,,,,,,,,,,,,,,,,,,,,4,29,male,4,2022_May_05_1024,Partial repeat,2021.2.3,59.889133173340696,
1,1,0,1,3,3,2,1,1,1,1,0,1,1,0,0,129,129,129,0,0,0,0,,,,,,,938.8035793993622,None,938.8824444990605,None,939.8812003992498,None,l,1,0.5086521003395319,939.8812003992498,None,None,None,,,,,,,4,29,male,4,2022_May_05_1024,Partial repeat,2021.2.3,59.889133173340696,
1,1,0,1,3,3,2,1,1,1,1,0,1,1,0,0,129,129,129,1,0,1,0,,,,,,,,,940.4032153002918,None,941.2662975005805,None,l,1,0.44358859956264496,941.2662975005805,None,None,None,,,,,,,4,29,male,4,2022_May_05_1024,Partial repeat,2021.2.3,59.889133173340696,
1,1,0,1,3,3,2,1,1,1,1,0,1,1,0,0,129,129,129,,,,,,,,,,,,,,,,,,,,,,,,,,,,,,4,29,male,4,2022_May_05_1024,Partial repeat,2021.2.3,59.889133173340696,
1,1,0,1,3,2,1,1,0,1,0,1,0,1,0,0,130,130,130,0,0,0,0,,,,,,,941.7272011004388,None,941.7880096007138,None,942.6865734998137,None,s,1,0.6232699006795883,942.6865734998137,None,None,None,,,,,,,4,29,male,4,2022_May_05_1024,Partial repeat,2021.2.3,59.889133173340696,
1,1,0,1,3,2,1,1,0,1,0,1,0,1,0,0,130,130,130,1,0,1,0,,,,,,,,,943.3250633999705,None,944.3225487004966,None,l,1,0.6273040007799864,944.3225487004966,None,None,None,,,,,,,4,29,male,4,2022_May_05_1024,Partial repeat,2021.2.3,59.889133173340696,
1,1,0,1,3,2,1,1,0,1,0,1,0,1,0,0,130,130,130,,,,,,,,,,,,,,,,,,,,,,,,,,,,,,4,29,male,4,2022_May_05_1024,Partial repeat,2021.2.3,59.889133173340696,
1,1,0,1,2,3,2,2,0,0,0,1,1,1,0,0,131,131,131,0,0,0,0,,,,,,,944.9785319995135,None,945.0276302993298,None,945.7754797004163,None,s,1,0.6944006010890007,945.7754797004163,None,None,None,,,,,,,4,29,male,4,2022_May_05_1024,Partial repeat,2021.2.3,59.889133173340696,
1,1,0,1,2,3,2,2,0,0,0,1,1,1,0,0,131,131,131,1,0,1,0,,,,,,,,,946.4875106997788,None,947.2611561007798,None,s,1,0.5047267004847527,947.2611561007798,None,None,None,,,,,,,4,29,male,4,2022_May_05_1024,Partial repeat,2021.2.3,59.889133173340696,
1,1,0,1,2,3,2,2,0,0,0,1,1,1,0,0,131,131,131,,,,,,,,,,,,,,,,,,,,,,,,,,,,,,4,29,male,4,2022_May_05_1024,Partial repeat,2021.2.3,59.889133173340696,
1,1,0,1,3,2,1,2,1,1,0,0,1,1,0,0,132,132,132,0,0,0,0,,,,,,,947.7836231999099,None,948.1839719004929,None,948.9653782006353,None,l,1,0.6325033996254206,948.9653782006353,None,None,None,,,,,,,4,29,male,4,2022_May_05_1024,Partial repeat,2021.2.3,59.889133173340696,
1,1,0,1,3,2,1,2,1,1,0,0,1,1,0,0,132,132,132,1,0,1,0,,,,,,,,,949.6117387991399,None,950.3671611994505,None,l,1,0.5427207984030247,950.3671611994505,None,None,None,,,,,,,4,29,male,4,2022_May_05_1024,Partial repeat,2021.2.3,59.889133173340696,
1,1,0,1,3,2,1,2,1,1,0,0,1,1,0,0,132,132,132,,,,,,,,,,,,,,,,,,,,,,,,,,,,,,4,29,male,4,2022_May_05_1024,Partial repeat,2021.2.3,59.889133173340696,
1,1,0,1,2,2,2,2,1,1,1,1,1,1,0,0,133,133,133,0,0,0,0,,,,,,,950.9350345991552,None,951.0227502007037,None,951.7533059995621,None,l,1,0.5405372008681297,951.7533059995621,None,None,None,,,,,,,4,29,male,4,2022_May_05_1024,Partial repeat,2021.2.3,59.889133173340696,
1,1,0,1,2,2,2,2,1,1,1,1,1,1,0,0,133,133,133,1,0,1,0,,,,,,,,,952.3161488994956,None,953.1392854005098,None,l,1,0.4426157008856535,953.1392854005098,None,None,None,,,,,,,4,29,male,4,2022_May_05_1024,Partial repeat,2021.2.3,59.889133173340696,
1,1,0,1,2,2,2,2,1,1,1,1,1,1,0,0,133,133,133,,,,,,,,,,,,,,,,,,,,,,,,,,,,,,4,29,male,4,2022_May_05_1024,Partial repeat,2021.2.3,59.889133173340696,
1,1,0,1,2,3,2,1,1,0,0,0,0,1,0,0,134,134,134,0,0,0,0,,,,,,,953.6044261995703,None,953.6945938002318,None,954.4920668005943,None,l,1,0.5057441014796495,954.4920668005943,None,None,None,,,,,,,4,29,male,4,2022_May_05_1024,Partial repeat,2021.2.3,59.889133173340696,
1,1,0,1,2,3,2,1,1,0,0,0,0,1,0,0,134,134,134,1,0,1,0,,,,,,,,,955.0139812007546,None,955.7443240992725,None,s,1,0.5095201004296541,955.7443240992725,None,None,None,,,,,,,4,29,male,4,2022_May_05_1024,Partial repeat,2021.2.3,59.889133173340696,
1,1,0,1,2,3,2,1,1,0,0,0,0,1,0,0,134,134,134,,,,,,,,,,,,,,,,,,,,,,,,,,,,,,4,29,male,4,2022_May_05_1024,Partial repeat,2021.2.3,59.889133173340696,
1,1,0,1,3,2,2,1,1,1,0,0,1,1,0,0,135,135,135,0,0,0,0,,,,,,,956.2700228001922,None,956.3664708994329,None,957.3810591008514,None,l,1,0.7688330002129078,957.3810591008514,None,None,None,,,,,,,4,29,male,4,2022_May_05_1024,Partial repeat,2021.2.3,59.889133173340696,
1,1,0,1,3,2,2,1,1,1,0,0,1,1,0,0,135,135,135,1,0,1,0,,,,,,,,,958.1587362997234,None,959.13450229913,None,l,1,0.48742800019681454,959.13450229913,None,None,None,,,,,,,4,29,male,4,2022_May_05_1024,Partial repeat,2021.2.3,59.889133173340696,
1,1,0,1,3,2,2,1,1,1,0,0,1,1,0,0,135,135,135,,,,,,,,,,,,,,,,,,,,,,,,,,,,,,4,29,male,4,2022_May_05_1024,Partial repeat,2021.2.3,59.889133173340696,
1,1,0,1,3,2,2,2,1,1,0,1,1,1,0,0,136,136,136,0,0,0,0,,,,,,,959.6392606999725,None,960.2072921004146,None,961.1048833001405,None,l,1,0.6689931005239487,961.1048833001405,None,None,None,,,,,,,4,29,male,4,2022_May_05_1024,Partial repeat,2021.2.3,59.889133173340696,
1,1,0,1,3,2,2,2,1,1,0,1,1,1,0,0,136,136,136,1,0,1,0,,,,,,,,,961.7975389994681,None,962.808547500521,None,l,1,0.5973646007478237,962.808547500521,None,None,None,,,,,,,4,29,male,4,2022_May_05_1024,Partial repeat,2021.2.3,59.889133173340696,
1,1,0,1,3,2,2,2,1,1,0,1,1,1,0,0,136,136,136,,,,,,,,,,,,,,,,,,,,,,,,,,,,,,4,29,male,4,2022_May_05_1024,Partial repeat,2021.2.3,59.889133173340696,
1,1,0,1,2,3,2,2,1,1,0,1,1,1,0,0,137,137,137,0,0,0,0,,,,,,,963.4178541004658,None,963.5639685001224,None,964.3445346001536,None,l,1,0.4213423989713192,964.3445346001536,None,None,None,,,,,,,4,29,male,4,2022_May_05_1024,Partial repeat,2021.2.3,59.889133173340696,
1,1,0,1,2,3,2,2,1,1,0,1,1,1,0,0,137,137,137,1,0,1,0,,,,,,,,,964.7861787006259,None,965.5480326004326,None,l,1,0.4258000999689102,965.5480326004326,None,None,None,,,,,,,4,29,male,4,2022_May_05_1024,Partial repeat,2021.2.3,59.889133173340696,
1,1,0,1,2,3,2,2,1,1,0,1,1,1,0,0,137,137,137,,,,,,,,,,,,,,,,,,,,,,,,,,,,,,4,29,male,4,2022_May_05_1024,Partial repeat,2021.2.3,59.889133173340696,
1,1,0,1,2,2,1,1,0,1,1,1,0,1,0,0,138,138,138,0,0,0,0,,,,,,,965.9879106003791,None,966.1523180007935,None,967.0831917002797,None,s,1,0.5066786985844374,967.0831917002797,None,None,None,,,,,,,4,29,male,4,2022_May_05_1024,Partial repeat,2021.2.3,59.889133173340696,
1,1,0,1,2,2,1,1,0,1,1,1,0,1,0,0,138,138,138,1,0,1,0,,,,,,,,,967.6054133996367,None,968.5858989004046,None,l,1,0.4759397003799677,968.5858989004046,None,None,None,,,,,,,4,29,male,4,2022_May_05_1024,Partial repeat,2021.2.3,59.889133173340696,
1,1,0,1,2,2,1,1,0,1,1,1,0,1,0,0,138,138,138,,,,,,,,,,,,,,,,,,,,,,,,,,,,,,4,29,male,4,2022_May_05_1024,Partial repeat,2021.2.3,59.889133173340696,
1,1,0,1,2,3,2,2,1,0,0,1,0,1,0,0,139,139,139,0,0,0,0,,,,,,,969.0892600994557,None,969.2416747007519,None,970.0891047008336,None,l,1,0.5328327994793653,970.0891047008336,None,None,None,,,,,,,4,29,male,4,2022_May_05_1024,Partial repeat,2021.2.3,59.889133173340696,
1,1,0,1,2,3,2,2,1,0,0,1,0,1,0,0,139,139,139,1,0,1,0,,,,,,,,,970.6328267008066,None,971.5087624993175,None,s,1,0.5050935000181198,971.5087624993175,None,None,None,,,,,,,4,29,male,4,2022_May_05_1024,Partial repeat,2021.2.3,59.889133173340696,
1,1,0,1,2,3,2,2,1,0,0,1,0,1,0,0,139,139,139,,,,,,,,,,,,,,,,,,,,,,,,,,,,,,4,29,male,4,2022_May_05_1024,Partial repeat,2021.2.3,59.889133173340696,
1,1,0,1,3,3,1,2,1,1,1,0,1,1,0,0,140,140,140,0,0,0,0,,,,,,,972.0350813008845,None,972.1974200997502,None,972.9948053006083,None,l,1,0.42714389972388744,972.9948053006083,None,None,None,,,,,,,4,29,male,4,2022_May_05_1024,Partial repeat,2021.2.3,59.889133173340696,
1,1,0,1,3,3,1,2,1,1,1,0,1,1,0,0,140,140,140,1,0,1,0,,,,,,,,,973.4325425997376,None,974.1810861993581,None,l,1,0.48078070022165775,974.1810861993581,None,None,None,,,,,,,4,29,male,4,2022_May_05_1024,Partial repeat,2021.2.3,59.889133173340696,
1,1,0,1,3,3,1,2,1,1,1,0,1,1,0,0,140,140,140,,,,,,,,,,,,,,,,,,,,,,,,,,,,,,4,29,male,4,2022_May_05_1024,Partial repeat,2021.2.3,59.889133173340696,
1,1,0,1,3,3,2,2,1,0,1,1,0,1,0,0,141,141,141,0,0,0,0,,,,,,,974.6863182000816,None,974.8692281004041,None,975.8336073998362,None,l,1,0.4602460004389286,975.8336073998362,None,None,None,,,,,,,4,29,male,4,2022_May_05_1024,Partial repeat,2021.2.3,59.889133173340696,
1,1,0,1,3,3,2,2,1,0,1,1,0,1,0,0,141,141,141,1,0,1,0,,,,,,,,,976.3126685991883,None,977.2865878995508,None,s,1,0.42325859889388084,977.2865878995508,None,None,None,,,,,,,4,29,male,4,2022_May_05_1024,Partial repeat,2021.2.3,59.889133173340696,
1,1,0,1,3,3,2,2,1,0,1,1,0,1,0,0,141,141,141,,,,,,,,,,,,,,,,,,,,,,,,,,,,,,4,29,male,4,2022_May_05_1024,Partial repeat,2021.2.3,59.889133173340696,
1,1,0,1,3,2,2,1,0,0,0,0,1,1,0,0,142,142,142,0,0,0,0,,,,,,,977.7262606006116,None,977.8583860993385,None,978.7058141995221,None,s,1,0.580052899196744,978.7058141995221,None,None,None,,,,,,,4,29,male,4,2022_May_05_1024,Partial repeat,2021.2.3,59.889133173340696,
1,1,0,1,3,2,2,1,0,0,0,0,1,1,0,0,142,142,142,1,0,1,0,,,,,,,,,979.307327799499,None,980.1249994002283,None,s,1,0.8888196013867855,980.1249994002283,None,None,None,,,,,,,4,29,male,4,2022_May_05_1024,Partial repeat,2021.2.3,59.889133173340696,
1,1,0,1,3,2,2,1,0,0,0,0,1,1,0,0,142,142,142,,,,,,,,,,,,,,,,,,,,,,,,,,,,,,4,29,male,4,2022_May_05_1024,Partial repeat,2021.2.3,59.889133173340696,
1,1,0,1,3,2,1,1,0,0,0,1,1,1,0,0,143,143,143,0,0,0,0,,,,,,,981.0376158002764,None,981.2315541002899,None,982.0959536004812,None,s,1,0.43794829957187176,982.0959536004812,None,None,None,,,,,,,4,29,male,4,2022_May_05_1024,Partial repeat,2021.2.3,59.889133173340696,
1,1,0,1,3,2,1,1,0,0,0,1,1,1,0,0,143,143,143,1,0,1,0,,,,,,,,,982.5529906004667,None,983.3319441005588,None,s,1,0.5698886997997761,983.3319441005588,None,None,None,,,,,,,4,29,male,4,2022_May_05_1024,Partial repeat,2021.2.3,59.889133173340696,
1,1,0,1,3,2,1,1,0,0,0,1,1,1,0,0,143,143,143,,,,,,,,,,,,,,,,,,,,,,,,,,,,,,4,29,male,4,2022_May_05_1024,Partial repeat,2021.2.3,59.889133173340696,
1,1,0,1,2,3,2,2,0,1,0,1,0,1,0,0,144,144,144,0,0,0,0,,,,,,,983.9255360998213,None,984.6716737002134,None,985.520176300779,None,s,1,0.5256881006062031,985.520176300779,None,None,None,,,,,,,4,29,male,4,2022_May_05_1024,Partial repeat,2021.2.3,59.889133173340696,
1,1,0,1,2,3,2,2,0,1,0,1,0,1,0,0,144,144,144,1,0,1,0,,,,,,,,,986.0647991001606,None,986.9552705008537,None,l,1,0.46672149933874607,986.9552705008537,None,None,None,,,,,,,4,29,male,4,2022_May_05_1024,Partial repeat,2021.2.3,59.889133173340696,
1,1,0,1,2,3,2,2,0,1,0,1,0,1,0,0,144,144,144,,,,,,,,,,,,,,,,,,,,,,,,,,,,,,4,29,male,4,2022_May_05_1024,Partial repeat,2021.2.3,59.889133173340696,
1,1,0,1,2,3,1,2,0,1,0,0,0,1,0,0,145,145,145,0,0,0,0,,,,,,,987.436234800145,None,987.5604794006795,None,988.54145709984,None,s,1,0.504406001418829,988.54145709984,None,None,None,,,,,,,4,29,male,4,2022_May_05_1024,Partial repeat,2021.2.3,59.889133173340696,
1,1,0,1,2,3,1,2,0,1,0,0,0,1,0,0,145,145,145,1,0,1,0,,,,,,,,,989.0602935999632,None,990.0443852003664,None,l,1,0.47341169975697994,990.0443852003664,None,None,None,,,,,,,4,29,male,4,2022_May_05_1024,Partial repeat,2021.2.3,59.889133173340696,
1,1,0,1,2,3,1,2,0,1,0,0,0,1,0,0,145,145,145,,,,,,,,,,,,,,,,,,,,,,,,,,,,,,4,29,male,4,2022_May_05_1024,Partial repeat,2021.2.3,59.889133173340696,
1,1,0,1,2,2,2,1,1,0,1,0,0,1,0,0,146,146,146,0,0,0,0,,,,,,,990.5285419002175,None,990.6332841999829,None,991.5808300990611,None,l,1,0.4569690991193056,991.5808300990611,None,None,None,,,,,,,4,29,male,4,2022_May_05_1024,Partial repeat,2021.2.3,59.889133173340696,
1,1,0,1,2,2,2,1,1,0,1,0,0,1,0,0,146,146,146,1,0,1,0,,,,,,,,,992.05904440023,None,992.916879100725,None,s,1,0.4729480016976595,992.916879100725,None,None,None,,,,,,,4,29,male,4,2022_May_05_1024,Partial repeat,2021.2.3,59.889133173340696,
1,1,0,1,2,2,2,1,1,0,1,0,0,1,0,0,146,146,146,,,,,,,,,,,,,,,,,,,,,,,,,,,,,,4,29,male,4,2022_May_05_1024,Partial repeat,2021.2.3,59.889133173340696,
1,1,0,1,3,3,1,2,1,0,1,0,0,1,0,0,147,147,147,0,0,0,0,,,,,,,993.4212205000222,None,993.522058300674,None,994.4198662992567,None,l,1,0.5620811004191637,994.4198662992567,None,None,None,,,,,,,4,29,male,4,2022_May_05_1024,Partial repeat,2021.2.3,59.889133173340696,
1,1,0,1,3,3,1,2,1,0,1,0,0,1,0,0,147,147,147,1,0,1,0,,,,,,,,,995.0087758991867,None,996.0227090995759,None,s,1,0.4630904011428356,996.0227090995759,None,None,None,,,,,,,4,29,male,4,2022_May_05_1024,Partial repeat,2021.2.3,59.889133173340696,
1,1,0,1,3,3,1,2,1,0,1,0,0,1,0,0,147,147,147,,,,,,,,,,,,,,,,,,,,,,,,,,,,,,4,29,male,4,2022_May_05_1024,Partial repeat,2021.2.3,59.889133173340696,
1,1,0,1,3,3,1,1,0,0,1,1,1,1,0,0,148,148,148,0,0,0,0,,,,,,,996.4995450004935,None,996.6616772990674,None,997.4921806007624,None,s,1,0.48156620003283024,997.4921806007624,None,None,None,,,,,,,4,29,male,4,2022_May_05_1024,Partial repeat,2021.2.3,59.889133173340696,
1,1,0,1,3,3,1,1,0,0,1,1,1,1,0,0,148,148,148,1,0,1,0,,,,,,,,,997.991857599467,None,998.9116079993546,None,s,1,0.43021530099213123,998.9116079993546,None,None,None,,,,,,,4,29,male,4,2022_May_05_1024,Partial repeat,2021.2.3,59.889133173340696,
1,1,0,1,3,3,1,1,0,0,1,1,1,1,0,0,148,148,148,,,,,,,,,,,,,,,,,,,,,,,,,,,,,,4,29,male,4,2022_May_05_1024,Partial repeat,2021.2.3,59.889133173340696,
1,1,0,1,2,2,2,1,0,0,1,0,1,1,0,0,149,149,149,0,0,0,0,,,,,,,999.370731299743,None,999.6173884999007,None,1000.5146551001817,None,s,1,0.43519069999456406,1000.5146551001817,None,None,None,,,,,,,4,29,male,4,2022_May_05_1024,Partial repeat,2021.2.3,59.889133173340696,
1,1,0,1,2,2,2,1,0,0,1,0,1,1,0,0,149,149,149,1,0,1,0,,,,,,,,,1000.9779898002744,None,1001.7173775006086,None,s,1,0.43248819932341576,1001.7173775006086,None,None,None,,,,,,,4,29,male,4,2022_May_05_1024,Partial repeat,2021.2.3,59.889133173340696,
1,1,0,1,2,2,2,1,0,0,1,0,1,1,0,0,149,149,149,,,,,,,,,,,,,,,,,,,,,,,,,,,,,,4,29,male,4,2022_May_05_1024,Partial repeat,2021.2.3,59.889133173340696,
1,1,0,1,2,3,1,2,1,1,0,0,1,1,0,0,150,150,150,0,0,0,0,,,,,,,1002.1772684007883,None,1002.3894814997911,None,1003.1702040005475,None,l,1,0.46765139885246754,1003.1702040005475,None,None,None,,,,,,,4,29,male,4,2022_May_05_1024,Partial repeat,2021.2.3,59.889133173340696,
1,1,0,1,2,3,1,2,1,1,0,0,1,1,0,0,150,150,150,1,0,1,0,,,,,,,,,1003.6468570008874,None,1004.60606119968,None,l,1,0.5837805010378361,1004.60606119968,None,None,None,,,,,,,4,29,male,4,2022_May_05_1024,Partial repeat,2021.2.3,59.889133173340696,
1,1,0,1,2,3,1,2,1,1,0,0,1,1,0,0,150,150,150,,,,,,,,,,,,,,,,,,,,,,,,,,,,,,4,29,male,4,2022_May_05_1024,Partial repeat,2021.2.3,59.889133173340696,
1,1,0,1,3,2,1,2,1,0,0,0,0,1,0,0,151,151,151,0,0,0,0,,,,,,,1005.2154147997499,None,1005.3283649999648,None,1006.1603264994919,None,l,1,0.5894900001585484,1006.1603264994919,None,None,None,,,,,,,4,29,male,4,2022_May_05_1024,Partial repeat,2021.2.3,59.889133173340696,
1,1,0,1,3,2,1,2,1,0,0,0,0,1,0,0,151,151,151,1,0,1,0,,,,,,,,,1006.7664033006877,None,1007.728735499084,None,s,1,0.437024200335145,1007.728735499084,None,None,None,,,,,,,4,29,male,4,2022_May_05_1024,Partial repeat,2021.2.3,59.889133173340696,
1,1,0,1,3,2,1,2,1,0,0,0,0,1,0,0,151,151,151,,,,,,,,,,,,,,,,,,,,,,,,,,,,,,4,29,male,4,2022_May_05_1024,Partial repeat,2021.2.3,59.889133173340696,
1,1,0,1,2,2,2,2,1,0,1,1,0,1,0,0,152,152,152,0,0,0,0,,,,,,,1008.1952941007912,None,1008.3343726992607,None,1009.3485423997045,None,l,1,0.5054894983768463,1009.3485423997045,None,None,None,,,,,,,4,29,male,4,2022_May_05_1024,Partial repeat,2021.2.3,59.889133173340696,
1,1,0,1,2,2,2,2,1,0,1,1,0,1,0,0,152,152,152,1,0,1,0,,,,,,,,,1009.8634089007974,None,1010.8682372998446,None,s,1,0.4735457990318537,1010.8682372998446,None,None,None,,,,,,,4,29,male,4,2022_May_05_1024,Partial repeat,2021.2.3,59.889133173340696,
1,1,0,1,2,2,2,2,1,0,1,1,0,1,0,0,152,152,152,,,,,,,,,,,,,,,,,,,,,,,,,,,,,,4,29,male,4,2022_May_05_1024,Partial repeat,2021.2.3,59.889133173340696,
1,1,0,1,2,3,2,1,1,1,0,0,1,1,0,0,153,153,153,0,0,0,0,,,,,,,1011.3720500990748,None,1011.4904334004968,None,1012.4383904002607,None,l,1,0.42354859970510006,1012.4383904002607,None,None,None,,,,,,,4,29,male,4,2022_May_05_1024,Partial repeat,2021.2.3,59.889133173340696,
1,1,0,1,2,3,2,1,1,1,0,0,1,1,0,0,153,153,153,1,0,1,0,,,,,,,,,1012.8728045001626,None,1013.8075945004821,None,l,1,0.4222961999475956,1013.8075945004821,None,None,None,,,,,,,4,29,male,4,2022_May_05_1024,Partial repeat,2021.2.3,59.889133173340696,
