prime_tar_pos,probe_tar_pos,dimension,tar_color,prime_dist_color,probe_dist_color,prime_dist_shape,probe_dist_shape,prime_tar_dot_pos,probe_tar_dot_pos,col_rep,shape_rep,resp_rep,pos_fixed,sparse,MainLoop.thisRepN,MainLoop.thisTrialN,MainLoop.thisN,MainLoop.thisIndex,PrimeProbe.thisRepN,PrimeProbe.thisTrialN,PrimeProbe.thisN,PrimeProbe.thisIndex,Instruction.started,Instruction.stopped,instruction_key.keys,instruction_key.rt,instruction_key.started,instruction_key.stopped,PairStartText.started,PairStartText.stopped,FixCross.started,FixCross.stopped,SearchFixCross.started,SearchFixCross.stopped,key_resp.keys,key_resp.corr,key_resp.rt,key_resp.started,key_resp.stopped,feedback_text.started,feedback_text.stopped,text_finish.started,text_finish.stopped,finish_key.keys,finish_key.rt,finish_key.started,finish_key.stopped,participant,age,gender,group,date,expName,psychopyVersion,frameRate,
,,,,,,,,,,,,,,,,,,,,,,,517.0010147001594,None,space,55.160733200609684,517.0010147001594,None,,,,,,,,,,,,,,,,,,,,5,24,female,5,2022_May_05_1137,Partial repeat,2021.2.3,59.89042459301672,
2,6,0,1,2,2,1,1,0,1,1,1,0,0,0,0,0,0,0,0,0,0,0,,,,,,,572.2776609994471,None,575.640412999317,None,576.4379124008119,None,l,1,1.163587100803852,576.4379124008119,None,None,None,,,,,,,5,24,female,5,2022_May_05_1137,Partial repeat,2021.2.3,59.89042459301672,
2,6,0,1,2,2,1,1,0,1,1,1,0,0,0,0,0,0,0,1,0,1,0,,,,,,,,,577.6180518008769,None,578.4426217004657,None,l,0,0.6469445005059242,578.4426217004657,None,579.112445499748,None,,,,,,,5,24,female,5,2022_May_05_1137,Partial repeat,2021.2.3,59.89042459301672,
2,6,0,1,2,2,1,1,0,1,1,1,0,0,0,0,0,0,0,,,,,,,,,,,,,,,,,,,,,,,,,,,,,,5,24,female,5,2022_May_05_1137,Partial repeat,2021.2.3,59.89042459301672,
1,3,0,1,2,3,2,1,0,0,0,0,1,0,0,0,1,1,1,0,0,0,0,,,,,,,579.6148137003183,None,580.9339359998703,None,581.8824122007936,None,l,1,0.9270323012024164,581.8824122007936,None,None,None,,,,,,,5,24,female,5,2022_May_05_1137,Partial repeat,2021.2.3,59.89042459301672,
1,3,0,1,2,3,2,1,0,0,0,0,1,0,0,0,1,1,1,1,0,1,0,,,,,,,,,582.837013700977,None,583.736302299425,None,l,1,0.8572533000260592,583.736302299425,None,None,None,,,,,,,5,24,female,5,2022_May_05_1137,Partial repeat,2021.2.3,59.89042459301672,
1,3,0,1,2,3,2,1,0,0,0,0,1,0,0,0,1,1,1,,,,,,,,,,,,,,,,,,,,,,,,,,,,,,5,24,female,5,2022_May_05_1137,Partial repeat,2021.2.3,59.89042459301672,
7,7,0,1,3,3,2,1,1,1,1,0,1,0,0,0,2,2,2,0,0,0,0,,,,,,,584.6067392006516,None,585.2591526005417,None,586.023745700717,None,s,1,0.6338158994913101,586.023745700717,None,None,None,,,,,,,5,24,female,5,2022_May_05_1137,Partial repeat,2021.2.3,59.89042459301672,
7,7,0,1,3,3,2,1,1,1,1,0,1,0,0,0,2,2,2,1,0,1,0,,,,,,,,,586.6693047992885,None,587.442752899602,None,s,1,0.43873729929327965,587.442752899602,None,None,None,,,,,,,5,24,female,5,2022_May_05_1137,Partial repeat,2021.2.3,59.89042459301672,
7,7,0,1,3,3,2,1,1,1,1,0,1,0,0,0,2,2,2,,,,,,,,,,,,,,,,,,,,,,,,,,,,,,5,24,female,5,2022_May_05_1137,Partial repeat,2021.2.3,59.89042459301672,
7,2,0,1,3,2,2,1,0,1,0,0,0,0,0,0,3,3,3,0,0,0,0,,,,,,,587.9059423003346,None,588.532196700573,None,589.2971411999315,None,l,1,0.5603795014321804,589.2971411999315,None,None,None,,,,,,,5,24,female,5,2022_May_05_1137,Partial repeat,2021.2.3,59.89042459301672,
7,2,0,1,3,2,2,1,0,1,0,0,0,0,0,0,3,3,3,1,0,1,0,,,,,,,,,589.8805470000952,None,590.6483411993831,None,s,1,0.6731836013495922,590.6483411993831,None,None,None,,,,,,,5,24,female,5,2022_May_05_1137,Partial repeat,2021.2.3,59.89042459301672,
7,2,0,1,3,2,2,1,0,1,0,0,0,0,0,0,3,3,3,,,,,,,,,,,,,,,,,,,,,,,,,,,,,,5,24,female,5,2022_May_05_1137,Partial repeat,2021.2.3,59.89042459301672,
2,5,0,1,2,3,1,2,1,0,0,0,0,0,0,0,4,4,4,0,0,0,0,,,,,,,591.3317980002612,None,591.9053250998259,None,592.7193291001022,None,s,1,0.7061446011066437,592.7193291001022,None,None,None,,,,,,,5,24,female,5,2022_May_05_1137,Partial repeat,2021.2.3,59.89042459301672,
2,5,0,1,2,3,1,2,1,0,0,0,0,0,0,0,4,4,4,1,0,1,0,,,,,,,,,593.4531276002526,None,594.4558720998466,None,l,1,0.5216540992259979,594.4558720998466,None,None,None,,,,,,,5,24,female,5,2022_May_05_1137,Partial repeat,2021.2.3,59.89042459301672,
2,5,0,1,2,3,1,2,1,0,0,0,0,0,0,0,4,4,4,,,,,,,,,,,,,,,,,,,,,,,,,,,,,,5,24,female,5,2022_May_05_1137,Partial repeat,2021.2.3,59.89042459301672,
7,8,0,1,2,3,2,1,0,1,0,0,0,0,0,0,5,5,5,0,0,0,0,,,,,,,595.0029106996953,None,595.3955128993839,None,596.1937052998692,None,l,1,0.5678202006965876,596.1937052998692,None,None,None,,,,,,,5,24,female,5,2022_May_05_1137,Partial repeat,2021.2.3,59.89042459301672,
7,8,0,1,2,3,2,1,0,1,0,0,0,0,0,0,5,5,5,1,0,1,0,,,,,,,,,596.7748790998012,None,597.5789906997234,None,s,1,0.5745403990149498,597.5789906997234,None,None,None,,,,,,,5,24,female,5,2022_May_05_1137,Partial repeat,2021.2.3,59.89042459301672,
7,8,0,1,2,3,2,1,0,1,0,0,0,0,0,0,5,5,5,,,,,,,,,,,,,,,,,,,,,,,,,,,,,,5,24,female,5,2022_May_05_1137,Partial repeat,2021.2.3,59.89042459301672,
7,1,0,1,3,3,1,1,0,1,1,1,0,0,0,0,6,6,6,0,0,0,0,,,,,,,598.1655113995075,None,598.6017503999174,None,599.4492320995778,None,l,1,0.5523273013532162,599.4492320995778,None,None,None,,,,,,,5,24,female,5,2022_May_05_1137,Partial repeat,2021.2.3,59.89042459301672,
7,1,0,1,3,3,1,1,0,1,1,1,0,0,0,0,6,6,6,1,0,1,0,,,,,,,,,600.0133561007679,None,600.8848266005516,None,s,1,0.5406047999858856,600.8848266005516,None,None,None,,,,,,,5,24,female,5,2022_May_05_1137,Partial repeat,2021.2.3,59.89042459301672,
7,1,0,1,3,3,1,1,0,1,1,1,0,0,0,0,6,6,6,,,,,,,,,,,,,,,,,,,,,,,,,,,,,,5,24,female,5,2022_May_05_1137,Partial repeat,2021.2.3,59.89042459301672,
8,4,0,1,2,3,2,2,1,1,0,1,1,0,0,0,7,7,7,0,0,0,0,,,,,,,601.4444341994822,None,601.8580821994692,None,602.6052355002612,None,s,1,0.5482490006834269,602.6052355002612,None,None,None,,,,,,,5,24,female,5,2022_May_05_1137,Partial repeat,2021.2.3,59.89042459301672,
8,4,0,1,2,3,2,2,1,1,0,1,1,0,0,0,7,7,7,1,0,1,0,,,,,,,,,603.1718339007348,None,604.1083399001509,None,s,1,0.6451822016388178,604.1083399001509,None,None,None,,,,,,,5,24,female,5,2022_May_05_1137,Partial repeat,2021.2.3,59.89042459301672,
8,4,0,1,2,3,2,2,1,1,0,1,1,0,0,0,7,7,7,,,,,,,,,,,,,,,,,,,,,,,,,,,,,,5,24,female,5,2022_May_05_1137,Partial repeat,2021.2.3,59.89042459301672,
8,1,0,1,2,2,1,1,1,0,1,1,0,0,0,0,8,8,8,0,0,0,0,,,,,,,604.7819932997227,None,605.1645576003939,None,606.1625200994313,None,s,1,0.5350267998874187,606.1625200994313,None,None,None,,,,,,,5,24,female,5,2022_May_05_1137,Partial repeat,2021.2.3,59.89042459301672,
8,1,0,1,2,2,1,1,1,0,1,1,0,0,0,0,8,8,8,1,0,1,0,,,,,,,,,606.7070617992431,None,607.6316883005202,None,l,1,0.6898531001061201,607.6316883005202,None,None,None,,,,,,,5,24,female,5,2022_May_05_1137,Partial repeat,2021.2.3,59.89042459301672,
8,1,0,1,2,2,1,1,1,0,1,1,0,0,0,0,8,8,8,,,,,,,,,,,,,,,,,,,,,,,,,,,,,,5,24,female,5,2022_May_05_1137,Partial repeat,2021.2.3,59.89042459301672,
6,5,0,1,3,2,2,1,1,1,0,0,1,0,0,0,9,9,9,0,0,0,0,,,,,,,608.3459092006087,None,608.9051664005965,None,609.7035140004009,None,s,1,0.4740132000297308,609.7035140004009,None,None,None,,,,,,,5,24,female,5,2022_May_05_1137,Partial repeat,2021.2.3,59.89042459301672,
6,5,0,1,3,2,2,1,1,1,0,0,1,0,0,0,9,9,9,1,0,1,0,,,,,,,,,610.2007385008037,None,610.9715653993189,None,s,1,0.5660005006939173,610.9715653993189,None,None,None,,,,,,,5,24,female,5,2022_May_05_1137,Partial repeat,2021.2.3,59.89042459301672,
6,5,0,1,3,2,2,1,1,1,0,0,1,0,0,0,9,9,9,,,,,,,,,,,,,,,,,,,,,,,,,,,,,,5,24,female,5,2022_May_05_1137,Partial repeat,2021.2.3,59.89042459301672,
6,7,0,1,2,3,1,1,1,0,0,1,0,0,0,0,10,10,10,0,0,0,0,,,,,,,611.5657867006958,None,611.9944455996156,None,612.7254505995661,None,s,1,0.5880169998854399,612.7254505995661,None,None,None,,,,,,,5,24,female,5,2022_May_05_1137,Partial repeat,2021.2.3,59.89042459301672,
6,7,0,1,2,3,1,1,1,0,0,1,0,0,0,0,10,10,10,1,0,1,0,,,,,,,,,613.3371290992945,None,614.1276379004121,None,l,1,0.6978648994117975,614.1276379004121,None,None,None,,,,,,,5,24,female,5,2022_May_05_1137,Partial repeat,2021.2.3,59.89042459301672,
6,7,0,1,2,3,1,1,1,0,0,1,0,0,0,0,10,10,10,,,,,,,,,,,,,,,,,,,,,,,,,,,,,,5,24,female,5,2022_May_05_1137,Partial repeat,2021.2.3,59.89042459301672,
8,2,0,1,2,3,2,2,0,0,0,1,1,0,0,0,11,11,11,0,0,0,0,,,,,,,614.846692699939,None,615.3009583000094,None,616.1483469996601,None,l,1,0.5812113005667925,616.1483469996601,None,None,None,,,,,,,5,24,female,5,2022_May_05_1137,Partial repeat,2021.2.3,59.89042459301672,
8,2,0,1,2,3,2,2,0,0,0,1,1,0,0,0,11,11,11,1,0,1,0,,,,,,,,,616.7519284002483,None,617.5681072007865,None,l,1,0.5614093989133835,617.5681072007865,None,None,None,,,,,,,5,24,female,5,2022_May_05_1137,Partial repeat,2021.2.3,59.89042459301672,
8,2,0,1,2,3,2,2,0,0,0,1,1,0,0,0,11,11,11,,,,,,,,,,,,,,,,,,,,,,,,,,,,,,5,24,female,5,2022_May_05_1137,Partial repeat,2021.2.3,59.89042459301672,
2,8,0,1,2,3,1,2,1,1,0,0,1,0,0,0,12,12,12,0,0,0,0,,,,,,,618.1544091999531,None,618.4236932005733,None,619.2563140001148,None,s,1,0.5772019010037184,619.2563140001148,None,None,None,,,,,,,5,24,female,5,2022_May_05_1137,Partial repeat,2021.2.3,59.89042459301672,
2,8,0,1,2,3,1,2,1,1,0,0,1,0,0,0,12,12,12,1,0,1,0,,,,,,,,,619.8457019999623,None,620.6069670002908,None,s,1,0.5625132992863655,620.6069670002908,None,None,None,,,,,,,5,24,female,5,2022_May_05_1137,Partial repeat,2021.2.3,59.89042459301672,
2,8,0,1,2,3,1,2,1,1,0,0,1,0,0,0,12,12,12,,,,,,,,,,,,,,,,,,,,,,,,,,,,,,5,24,female,5,2022_May_05_1137,Partial repeat,2021.2.3,59.89042459301672,
5,3,0,1,2,3,1,2,0,0,0,0,1,0,0,0,13,13,13,0,0,0,0,,,,,,,621.1911519002169,None,621.4963074997067,None,622.2436315007508,None,l,1,0.4858462009578943,622.2436315007508,None,None,None,,,,,,,5,24,female,5,2022_May_05_1137,Partial repeat,2021.2.3,59.89042459301672,
5,3,0,1,2,3,1,2,0,0,0,0,1,0,0,0,13,13,13,1,0,1,0,,,,,,,,,622.737820500508,None,623.647404499352,None,l,1,0.5301169995218515,623.647404499352,None,None,None,,,,,,,5,24,female,5,2022_May_05_1137,Partial repeat,2021.2.3,59.89042459301672,
5,3,0,1,2,3,1,2,0,0,0,0,1,0,0,0,13,13,13,,,,,,,,,,,,,,,,,,,,,,,,,,,,,,5,24,female,5,2022_May_05_1137,Partial repeat,2021.2.3,59.89042459301672,
1,2,0,1,3,3,1,1,1,1,1,1,1,0,0,0,14,14,14,0,0,0,0,,,,,,,624.197594800964,None,624.4854367002845,None,625.2491983994842,None,s,1,0.5603109002113342,625.2491983994842,None,None,None,,,,,,,5,24,female,5,2022_May_05_1137,Partial repeat,2021.2.3,59.89042459301672,
1,2,0,1,3,3,1,1,1,1,1,1,1,0,0,0,14,14,14,1,0,1,0,,,,,,,,,625.8347737994045,None,626.8022170998156,None,s,1,0.567357299849391,626.8022170998156,None,None,None,,,,,,,5,24,female,5,2022_May_05_1137,Partial repeat,2021.2.3,59.89042459301672,
1,2,0,1,3,3,1,1,1,1,1,1,1,0,0,0,14,14,14,,,,,,,,,,,,,,,,,,,,,,,,,,,,,,5,24,female,5,2022_May_05_1137,Partial repeat,2021.2.3,59.89042459301672,
6,1,0,1,3,2,2,2,1,0,0,1,0,0,0,0,15,15,15,0,0,0,0,,,,,,,627.3953645005822,None,627.7084564007819,None,628.6226438004524,None,s,1,0.5948779005557299,628.6226438004524,None,None,None,,,,,,,5,24,female,5,2022_May_05_1137,Partial repeat,2021.2.3,59.89042459301672,
6,1,0,1,3,2,2,2,1,0,0,1,0,0,0,0,15,15,15,1,0,1,0,,,,,,,,,629.2309578005224,None,630.1600831001997,None,l,1,0.5534185990691185,630.1600831001997,None,None,None,,,,,,,5,24,female,5,2022_May_05_1137,Partial repeat,2021.2.3,59.89042459301672,
6,1,0,1,3,2,2,2,1,0,0,1,0,0,0,0,15,15,15,,,,,,,,,,,,,,,,,,,,,,,,,,,,,,5,24,female,5,2022_May_05_1137,Partial repeat,2021.2.3,59.89042459301672,
1,1,0,1,3,3,1,1,0,0,1,1,1,0,0,0,16,16,16,0,0,0,0,,,,,,,630.7251768000424,None,631.0983163006604,None,631.8957511000335,None,l,1,0.6257716007530689,631.8957511000335,None,None,None,,,,,,,5,24,female,5,2022_May_05_1137,Partial repeat,2021.2.3,59.89042459301672,
1,1,0,1,3,3,1,1,0,0,1,1,1,0,0,0,16,16,16,1,0,1,0,,,,,,,,,632.5463613998145,None,633.4818747993559,None,l,1,0.45560660026967525,633.4818747993559,None,None,None,,,,,,,5,24,female,5,2022_May_05_1137,Partial repeat,2021.2.3,59.89042459301672,
1,1,0,1,3,3,1,1,0,0,1,1,1,0,0,0,16,16,16,,,,,,,,,,,,,,,,,,,,,,,,,,,,,,5,24,female,5,2022_May_05_1137,Partial repeat,2021.2.3,59.89042459301672,
3,8,0,1,2,3,2,2,1,0,0,1,0,0,0,0,17,17,17,0,0,0,0,,,,,,,633.963581500575,None,634.3212595004588,None,635.3358410000801,None,s,1,0.5217597987502813,635.3358410000801,None,None,None,,,,,,,5,24,female,5,2022_May_05_1137,Partial repeat,2021.2.3,59.89042459301672,
3,8,0,1,2,3,2,2,1,0,0,1,0,0,0,0,17,17,17,1,0,1,0,,,,,,,,,635.8762628994882,None,636.8059366997331,None,l,1,0.45153150148689747,636.8059366997331,None,None,None,,,,,,,5,24,female,5,2022_May_05_1137,Partial repeat,2021.2.3,59.89042459301672,
3,8,0,1,2,3,2,2,1,0,0,1,0,0,0,0,17,17,17,,,,,,,,,,,,,,,,,,,,,,,,,,,,,,5,24,female,5,2022_May_05_1137,Partial repeat,2021.2.3,59.89042459301672,
8,6,0,1,3,3,2,1,0,0,1,0,1,0,0,0,18,18,18,0,0,0,0,,,,,,,637.2878983002156,None,637.5775831993669,None,638.5753374006599,None,l,1,0.6181717999279499,638.5753374006599,None,None,None,,,,,,,5,24,female,5,2022_May_05_1137,Partial repeat,2021.2.3,59.89042459301672,
8,6,0,1,3,3,2,1,0,0,1,0,1,0,0,0,18,18,18,1,0,1,0,,,,,,,,,639.2176709007472,None,639.994676599279,None,l,1,0.5507989004254341,639.994676599279,None,None,None,,,,,,,5,24,female,5,2022_May_05_1137,Partial repeat,2021.2.3,59.89042459301672,
8,6,0,1,3,3,2,1,0,0,1,0,1,0,0,0,18,18,18,,,,,,,,,,,,,,,,,,,,,,,,,,,,,,5,24,female,5,2022_May_05_1137,Partial repeat,2021.2.3,59.89042459301672,
4,5,0,1,3,3,2,2,1,0,1,1,0,0,0,0,19,19,19,0,0,0,0,,,,,,,640.5644825994968,None,640.8673142995685,None,641.6320025008172,None,s,1,0.5454817991703749,641.6320025008172,None,None,None,,,,,,,5,24,female,5,2022_May_05_1137,Partial repeat,2021.2.3,59.89042459301672,
4,5,0,1,3,3,2,2,1,0,1,1,0,0,0,0,19,19,19,1,0,1,0,,,,,,,,,642.1980233006179,None,643.001176899299,None,l,1,0.5923333987593651,643.001176899299,None,None,None,,,,,,,5,24,female,5,2022_May_05_1137,Partial repeat,2021.2.3,59.89042459301672,
4,5,0,1,3,3,2,2,1,0,1,1,0,0,0,0,19,19,19,,,,,,,,,,,,,,,,,,,,,,,,,,,,,,5,24,female,5,2022_May_05_1137,Partial repeat,2021.2.3,59.89042459301672,
2,1,0,1,2,3,1,1,0,0,0,1,1,0,0,0,20,20,20,0,0,0,0,,,,,,,643.6167009007186,None,643.990065600723,None,644.8379142004997,None,l,1,0.4995760004967451,644.8379142004997,None,None,None,,,,,,,5,24,female,5,2022_May_05_1137,Partial repeat,2021.2.3,59.89042459301672,
2,1,0,1,2,3,1,1,0,0,0,1,1,0,0,0,20,20,20,1,0,1,0,,,,,,,,,645.3595464006066,None,646.089978300035,None,l,1,0.47153189964592457,646.089978300035,None,None,None,,,,,,,5,24,female,5,2022_May_05_1137,Partial repeat,2021.2.3,59.89042459301672,
2,1,0,1,2,3,1,1,0,0,0,1,1,0,0,0,20,20,20,,,,,,,,,,,,,,,,,,,,,,,,,,,,,,5,24,female,5,2022_May_05_1137,Partial repeat,2021.2.3,59.89042459301672,
2,3,0,1,3,3,2,2,1,1,1,1,1,0,0,0,21,21,21,0,0,0,0,,,,,,,646.5766797009856,None,646.9124704003334,None,647.7597068995237,None,s,1,0.7458100002259016,647.7597068995237,None,None,None,,,,,,,5,24,female,5,2022_May_05_1137,Partial repeat,2021.2.3,59.89042459301672,
2,3,0,1,3,3,2,2,1,1,1,1,1,0,0,0,21,21,21,1,0,1,0,,,,,,,,,648.5213059000671,None,649.447375100106,None,l,0,0.5300809983164072,649.447375100106,None,649.992718199268,None,,,,,,,5,24,female,5,2022_May_05_1137,Partial repeat,2021.2.3,59.89042459301672,
2,3,0,1,3,3,2,2,1,1,1,1,1,0,0,0,21,21,21,,,,,,,,,,,,,,,,,,,,,,,,,,,,,,5,24,female,5,2022_May_05_1137,Partial repeat,2021.2.3,59.89042459301672,
1,4,0,1,3,2,1,1,0,0,0,1,1,0,0,0,22,22,22,0,0,0,0,,,,,,,650.5027842000127,None,650.6363169010729,None,651.4175132997334,None,l,1,0.5359725002199411,651.4175132997334,None,None,None,,,,,,,5,24,female,5,2022_May_05_1137,Partial repeat,2021.2.3,59.89042459301672,
1,4,0,1,3,2,1,1,0,0,0,1,1,0,0,0,22,22,22,1,0,1,0,,,,,,,,,651.9820342008024,None,652.9364979993552,None,l,1,0.6730157993733883,652.9364979993552,None,None,None,,,,,,,5,24,female,5,2022_May_05_1137,Partial repeat,2021.2.3,59.89042459301672,
1,4,0,1,3,2,1,1,0,0,0,1,1,0,0,0,22,22,22,,,,,,,,,,,,,,,,,,,,,,,,,,,,,,5,24,female,5,2022_May_05_1137,Partial repeat,2021.2.3,59.89042459301672,
1,8,0,1,3,2,1,1,1,1,0,1,1,0,0,0,23,23,23,0,0,0,0,,,,,,,653.6316222008318,None,654.4270271006972,None,655.3411385007203,None,s,1,0.5964909009635448,655.3411385007203,None,None,None,,,,,,,5,24,female,5,2022_May_05_1137,Partial repeat,2021.2.3,59.89042459301672,
1,8,0,1,3,2,1,1,1,1,0,1,1,0,0,0,23,23,23,1,0,1,0,,,,,,,,,655.9481333997101,None,656.6786573007703,None,s,1,0.762813501060009,656.6786573007703,None,None,None,,,,,,,5,24,female,5,2022_May_05_1137,Partial repeat,2021.2.3,59.89042459301672,
1,8,0,1,3,2,1,1,1,1,0,1,1,0,0,0,23,23,23,,,,,,,,,,,,,,,,,,,,,,,,,,,,,,5,24,female,5,2022_May_05_1137,Partial repeat,2021.2.3,59.89042459301672,
3,3,0,1,2,2,2,1,0,1,1,0,0,0,0,0,24,24,24,0,0,0,0,,,,,,,657.4673359002918,None,657.8503507003188,None,658.7479618992656,None,l,1,0.509527400135994,658.7479618992656,None,None,None,,,,,,,5,24,female,5,2022_May_05_1137,Partial repeat,2021.2.3,59.89042459301672,
3,3,0,1,2,2,2,1,0,1,1,0,0,0,0,0,24,24,24,1,0,1,0,,,,,,,,,659.2670208010823,None,660.017033400014,None,s,1,0.5524785984307528,660.017033400014,None,None,None,,,,,,,5,24,female,5,2022_May_05_1137,Partial repeat,2021.2.3,59.89042459301672,
3,3,0,1,2,2,2,1,0,1,1,0,0,0,0,0,24,24,24,,,,,,,,,,,,,,,,,,,,,,,,,,,,,,5,24,female,5,2022_May_05_1137,Partial repeat,2021.2.3,59.89042459301672,
4,6,0,1,3,2,2,2,0,1,0,1,0,0,0,0,25,25,25,0,0,0,0,,,,,,,660.5849486999214,None,661.0731480009854,None,662.0382928010076,None,l,1,0.5792689993977547,662.0382928010076,None,None,None,,,,,,,5,24,female,5,2022_May_05_1137,Partial repeat,2021.2.3,59.89042459301672,
4,6,0,1,3,2,2,2,0,1,0,1,0,0,0,0,25,25,25,1,0,1,0,,,,,,,,,662.6419703997672,None,663.4572656005621,None,l,0,0.5282485987991095,663.4572656005621,None,664.0046219993383,None,,,,,,,5,24,female,5,2022_May_05_1137,Partial repeat,2021.2.3,59.89042459301672,
4,6,0,1,3,2,2,2,0,1,0,1,0,0,0,0,25,25,25,,,,,,,,,,,,,,,,,,,,,,,,,,,,,,5,24,female,5,2022_May_05_1137,Partial repeat,2021.2.3,59.89042459301672,
5,6,0,1,3,2,1,2,0,0,0,0,1,0,0,0,26,26,26,0,0,0,0,,,,,,,664.5134139005095,None,664.8974465001374,None,665.7624335996807,None,l,1,0.5831154994666576,665.7624335996807,None,None,None,,,,,,,5,24,female,5,2022_May_05_1137,Partial repeat,2021.2.3,59.89042459301672,
5,6,0,1,3,2,1,2,0,0,0,0,1,0,0,0,26,26,26,1,0,1,0,,,,,,,,,666.3669505994767,None,667.2142977993935,None,l,1,0.6271520983427763,667.2142977993935,None,None,None,,,,,,,5,24,female,5,2022_May_05_1137,Partial repeat,2021.2.3,59.89042459301672,
5,6,0,1,3,2,1,2,0,0,0,0,1,0,0,0,26,26,26,,,,,,,,,,,,,,,,,,,,,,,,,,,,,,5,24,female,5,2022_May_05_1137,Partial repeat,2021.2.3,59.89042459301672,
6,8,0,1,3,2,1,1,0,1,0,1,0,0,0,0,27,27,27,0,0,0,0,,,,,,,667.8697644006461,None,668.2373200003058,None,669.0186669006944,None,l,1,0.5428477004170418,669.0186669006944,None,None,None,,,,,,,5,24,female,5,2022_May_05_1137,Partial repeat,2021.2.3,59.89042459301672,
6,8,0,1,3,2,1,1,0,1,0,1,0,0,0,0,27,27,27,1,0,1,0,,,,,,,,,669.5816530007869,None,670.4203735999763,None,s,1,0.6291701011359692,670.4203735999763,None,None,None,,,,,,,5,24,female,5,2022_May_05_1137,Partial repeat,2021.2.3,59.89042459301672,
6,8,0,1,3,2,1,1,0,1,0,1,0,0,0,0,27,27,27,,,,,,,,,,,,,,,,,,,,,,,,,,,,,,5,24,female,5,2022_May_05_1137,Partial repeat,2021.2.3,59.89042459301672,
1,7,0,1,2,2,2,2,0,1,1,1,0,0,0,0,28,28,28,0,0,0,0,,,,,,,671.0765295997262,None,671.493601700291,None,672.3411014005542,None,l,1,0.6684293001890182,672.3411014005542,None,None,None,,,,,,,5,24,female,5,2022_May_05_1137,Partial repeat,2021.2.3,59.89042459301672,
1,7,0,1,2,2,2,2,0,1,1,1,0,0,0,0,28,28,28,1,0,1,0,,,,,,,,,673.0338572002947,None,674.0278066005558,None,s,1,0.5496984012424946,674.0278066005558,None,None,None,,,,,,,5,24,female,5,2022_May_05_1137,Partial repeat,2021.2.3,59.89042459301672,
1,7,0,1,2,2,2,2,0,1,1,1,0,0,0,0,28,28,28,,,,,,,,,,,,,,,,,,,,,,,,,,,,,,5,24,female,5,2022_May_05_1137,Partial repeat,2021.2.3,59.89042459301672,
5,7,0,1,2,3,2,1,1,0,0,0,0,0,0,0,29,29,29,0,0,0,0,,,,,,,674.5943912994117,None,675.0004246998578,None,675.8979473002255,None,s,1,0.7595047987997532,675.8979473002255,None,None,None,,,,,,,5,24,female,5,2022_May_05_1137,Partial repeat,2021.2.3,59.89042459301672,
5,7,0,1,2,3,2,1,1,0,0,0,0,0,0,0,29,29,29,1,0,1,0,,,,,,,,,676.6786249000579,None,677.5341491997242,None,l,1,0.523319598287344,677.5341491997242,None,None,None,,,,,,,5,24,female,5,2022_May_05_1137,Partial repeat,2021.2.3,59.89042459301672,
5,7,0,1,2,3,2,1,1,0,0,0,0,0,0,0,29,29,29,,,,,,,,,,,,,,,,,,,,,,,,,,,,,,5,24,female,5,2022_May_05_1137,Partial repeat,2021.2.3,59.89042459301672,
7,5,0,1,2,2,1,2,1,0,1,0,0,0,0,0,30,30,30,0,0,0,0,,,,,,,678.0823254007846,None,678.5239602010697,None,679.5384842995554,None,s,1,0.47104869969189167,679.5384842995554,None,None,None,,,,,,,5,24,female,5,2022_May_05_1137,Partial repeat,2021.2.3,59.89042459301672,
7,5,0,1,2,2,1,2,1,0,1,0,0,0,0,0,30,30,30,1,0,1,0,,,,,,,,,680.0176516007632,None,680.7405430004001,None,l,1,0.5409685000777245,680.7405430004001,None,None,None,,,,,,,5,24,female,5,2022_May_05_1137,Partial repeat,2021.2.3,59.89042459301672,
7,5,0,1,2,2,1,2,1,0,1,0,0,0,0,0,30,30,30,,,,,,,,,,,,,,,,,,,,,,,,,,,,,,5,24,female,5,2022_May_05_1137,Partial repeat,2021.2.3,59.89042459301672,
6,3,0,1,2,3,2,2,0,1,0,1,0,0,0,0,31,31,31,0,0,0,0,,,,,,,681.2930280007422,None,681.713230099529,None,682.5105163007975,None,l,1,0.5149942003190517,682.5105163007975,None,None,None,,,,,,,5,24,female,5,2022_May_05_1137,Partial repeat,2021.2.3,59.89042459301672,
6,3,0,1,2,3,2,2,0,1,0,1,0,0,0,0,31,31,31,1,0,1,0,,,,,,,,,683.052554000169,None,683.780448500067,None,s,1,0.6610336992889643,683.780448500067,None,None,None,,,,,,,5,24,female,5,2022_May_05_1137,Partial repeat,2021.2.3,59.89042459301672,
6,3,0,1,2,3,2,2,0,1,0,1,0,0,0,0,31,31,31,,,,,,,,,,,,,,,,,,,,,,,,,,,,,,5,24,female,5,2022_May_05_1137,Partial repeat,2021.2.3,59.89042459301672,
8,3,0,1,3,3,2,2,0,0,1,1,1,0,0,0,32,32,32,0,0,0,0,,,,,,,684.4582260008901,None,684.9030473008752,None,685.900497701019,None,l,1,0.549014501273632,685.900497701019,None,None,None,,,,,,,5,24,female,5,2022_May_05_1137,Partial repeat,2021.2.3,59.89042459301672,
8,3,0,1,3,3,2,2,0,0,1,1,1,0,0,0,32,32,32,1,0,1,0,,,,,,,,,686.4648364000022,None,687.4535106997937,None,l,1,0.5400919988751411,687.4535106997937,None,None,None,,,,,,,5,24,female,5,2022_May_05_1137,Partial repeat,2021.2.3,59.89042459301672,
8,3,0,1,3,3,2,2,0,0,1,1,1,0,0,0,32,32,32,,,,,,,,,,,,,,,,,,,,,,,,,,,,,,5,24,female,5,2022_May_05_1137,Partial repeat,2021.2.3,59.89042459301672,
2,4,0,1,2,3,1,1,0,1,0,1,0,0,0,0,33,33,33,0,0,0,0,,,,,,,688.0233594998717,None,688.4431092999876,None,689.3414070997387,None,l,1,0.7960653994232416,689.3414070997387,None,None,None,,,,,,,5,24,female,5,2022_May_05_1137,Partial repeat,2021.2.3,59.89042459301672,
2,4,0,1,2,3,1,1,0,1,0,1,0,0,0,0,33,33,33,1,0,1,0,,,,,,,,,690.1584156006575,None,691.1276258006692,None,s,1,0.5539560001343489,691.1276258006692,None,None,None,,,,,,,5,24,female,5,2022_May_05_1137,Partial repeat,2021.2.3,59.89042459301672,
2,4,0,1,2,3,1,1,0,1,0,1,0,0,0,0,33,33,33,,,,,,,,,,,,,,,,,,,,,,,,,,,,,,5,24,female,5,2022_May_05_1137,Partial repeat,2021.2.3,59.89042459301672,
2,2,0,1,3,3,2,1,0,1,1,0,0,0,0,0,34,34,34,0,0,0,0,,,,,,,691.6950029004365,None,692.1671214997768,None,692.9478984996676,None,l,1,0.5337115004658699,692.9478984996676,None,None,None,,,,,,,5,24,female,5,2022_May_05_1137,Partial repeat,2021.2.3,59.89042459301672,
2,2,0,1,3,3,2,1,0,1,1,0,0,0,0,0,34,34,34,1,0,1,0,,,,,,,,,693.4914766997099,None,694.351226599887,None,s,1,0.546279801055789,694.351226599887,None,None,None,,,,,,,5,24,female,5,2022_May_05_1137,Partial repeat,2021.2.3,59.89042459301672,
2,2,0,1,3,3,2,1,0,1,1,0,0,0,0,0,34,34,34,,,,,,,,,,,,,,,,,,,,,,,,,,,,,,5,24,female,5,2022_May_05_1137,Partial repeat,2021.2.3,59.89042459301672,
7,4,0,1,3,3,2,2,0,1,1,1,0,0,0,0,35,35,35,0,0,0,0,,,,,,,694.9228437002748,None,695.4568473994732,None,696.2711737006903,None,l,1,0.5623773001134396,696.2711737006903,None,None,None,,,,,,,5,24,female,5,2022_May_05_1137,Partial repeat,2021.2.3,59.89042459301672,
7,4,0,1,3,3,2,2,0,1,1,1,0,0,0,0,35,35,35,1,0,1,0,,,,,,,,,696.8576676994562,None,697.6739345006645,None,s,1,0.6636682003736496,697.6739345006645,None,None,None,,,,,,,5,24,female,5,2022_May_05_1137,Partial repeat,2021.2.3,59.89042459301672,
7,4,0,1,3,3,2,2,0,1,1,1,0,0,0,0,35,35,35,,,,,,,,,,,,,,,,,,,,,,,,,,,,,,5,24,female,5,2022_May_05_1137,Partial repeat,2021.2.3,59.89042459301672,
8,8,0,1,2,2,1,1,0,0,1,1,1,0,0,0,36,36,36,0,0,0,0,,,,,,,698.3509657997638,None,698.7465963996947,None,699.695004299283,None,s,0,0.7464757990092039,699.695004299283,None,700.4559697005898,None,,,,,,,5,24,female,5,2022_May_05_1137,Partial repeat,2021.2.3,59.89042459301672,
8,8,0,1,2,2,1,1,0,0,1,1,1,0,0,0,36,36,36,1,0,1,0,,,,,,,,,700.9676278997213,None,701.6989827994257,None,l,1,0.5985288992524147,701.6989827994257,None,None,None,,,,,,,5,24,female,5,2022_May_05_1137,Partial repeat,2021.2.3,59.89042459301672,
8,8,0,1,2,2,1,1,0,0,1,1,1,0,0,0,36,36,36,,,,,,,,,,,,,,,,,,,,,,,,,,,,,,5,24,female,5,2022_May_05_1137,Partial repeat,2021.2.3,59.89042459301672,
6,2,0,1,2,3,1,2,0,1,0,0,0,0,0,0,37,37,37,0,0,0,0,,,,,,,702.3116583004594,None,702.8546356000006,None,703.8188569005579,None,l,1,0.5506523996591568,703.8188569005579,None,None,None,,,,,,,5,24,female,5,2022_May_05_1137,Partial repeat,2021.2.3,59.89042459301672,
6,2,0,1,2,3,1,2,0,1,0,0,0,0,0,0,37,37,37,1,0,1,0,,,,,,,,,704.3815650995821,None,705.3565260004252,None,s,1,1.084978999570012,705.3565260004252,None,None,None,,,,,,,5,24,female,5,2022_May_05_1137,Partial repeat,2021.2.3,59.89042459301672,
6,2,0,1,2,3,1,2,0,1,0,0,0,0,0,0,37,37,37,,,,,,,,,,,,,,,,,,,,,,,,,,,,,,5,24,female,5,2022_May_05_1137,Partial repeat,2021.2.3,59.89042459301672,
4,3,0,1,3,2,1,2,1,1,0,0,1,0,0,0,38,38,38,0,0,0,0,,,,,,,706.461145600304,None,706.9626259002835,None,707.8440361004323,None,s,1,0.5335587002336979,707.8440361004323,None,None,None,,,,,,,5,24,female,5,2022_May_05_1137,Partial repeat,2021.2.3,59.89042459301672,
4,3,0,1,3,2,1,2,1,1,0,0,1,0,0,0,38,38,38,1,0,1,0,,,,,,,,,708.3870705999434,None,709.2462745010853,None,s,1,0.61123569868505,709.2462745010853,None,None,None,,,,,,,5,24,female,5,2022_May_05_1137,Partial repeat,2021.2.3,59.89042459301672,
4,3,0,1,3,2,1,2,1,1,0,0,1,0,0,0,38,38,38,,,,,,,,,,,,,,,,,,,,,,,,,,,,,,5,24,female,5,2022_May_05_1137,Partial repeat,2021.2.3,59.89042459301672,
3,2,0,1,2,2,2,2,1,1,1,1,1,0,0,0,39,39,39,0,0,0,0,,,,,,,709.8829573001713,None,710.3023818004876,None,711.0665627010167,None,s,1,0.6149176005274057,711.0665627010167,None,None,None,,,,,,,5,24,female,5,2022_May_05_1137,Partial repeat,2021.2.3,59.89042459301672,
3,2,0,1,2,2,2,2,1,1,1,1,1,0,0,0,39,39,39,1,0,1,0,,,,,,,,,711.6991160996258,None,712.602499499917,None,s,1,0.5430057998746634,712.602499499917,None,None,None,,,,,,,5,24,female,5,2022_May_05_1137,Partial repeat,2021.2.3,59.89042459301672,
3,2,0,1,2,2,2,2,1,1,1,1,1,0,0,0,39,39,39,,,,,,,,,,,,,,,,,,,,,,,,,,,,,,5,24,female,5,2022_May_05_1137,Partial repeat,2021.2.3,59.89042459301672,
3,1,0,1,3,2,2,1,0,0,0,0,1,0,0,0,40,40,40,0,0,0,0,,,,,,,713.1694626994431,None,713.8760441001505,None,714.756804600358,None,s,0,0.6366787999868393,714.756804600358,None,715.4099061004817,None,,,,,,,5,24,female,5,2022_May_05_1137,Partial repeat,2021.2.3,59.89042459301672,
3,1,0,1,3,2,2,1,0,0,0,0,1,0,0,0,40,40,40,1,0,1,0,,,,,,,,,715.9133470002562,None,716.8605771008879,None,l,1,0.7250033002346754,716.8605771008879,None,None,None,,,,,,,5,24,female,5,2022_May_05_1137,Partial repeat,2021.2.3,59.89042459301672,
3,1,0,1,3,2,2,1,0,0,0,0,1,0,0,0,40,40,40,,,,,,,,,,,,,,,,,,,,,,,,,,,,,,5,24,female,5,2022_May_05_1137,Partial repeat,2021.2.3,59.89042459301672,
5,5,0,1,2,2,2,2,0,0,1,1,1,0,0,0,41,41,41,0,0,0,0,,,,,,,717.5975695010275,None,718.0842634998262,None,718.9315351992846,None,l,1,0.7739103008061647,718.9315351992846,None,None,None,,,,,,,5,24,female,5,2022_May_05_1137,Partial repeat,2021.2.3,59.89042459301672,
5,5,0,1,2,2,2,2,0,0,1,1,1,0,0,0,41,41,41,1,0,1,0,,,,,,,,,719.7292937003076,None,720.7184813003987,None,l,1,0.6030122004449368,720.7184813003987,None,None,None,,,,,,,5,24,female,5,2022_May_05_1137,Partial repeat,2021.2.3,59.89042459301672,
5,5,0,1,2,2,2,2,0,0,1,1,1,0,0,0,41,41,41,,,,,,,,,,,,,,,,,,,,,,,,,,,,,,5,24,female,5,2022_May_05_1137,Partial repeat,2021.2.3,59.89042459301672,
1,6,0,1,3,2,1,2,0,1,0,0,0,0,0,0,42,42,42,0,0,0,0,,,,,,,721.3464892003685,None,721.8081775996834,None,722.7054220009595,None,l,1,0.7360461000353098,722.7054220009595,None,None,None,,,,,,,5,24,female,5,2022_May_05_1137,Partial repeat,2021.2.3,59.89042459301672,
1,6,0,1,3,2,1,2,0,1,0,0,0,0,0,0,42,42,42,1,0,1,0,,,,,,,,,723.4585903994739,None,724.2917874008417,None,s,1,0.7656261995434761,724.2917874008417,None,None,None,,,,,,,5,24,female,5,2022_May_05_1137,Partial repeat,2021.2.3,59.89042459301672,
1,6,0,1,3,2,1,2,0,1,0,0,0,0,0,0,42,42,42,,,,,,,,,,,,,,,,,,,,,,,,,,,,,,5,24,female,5,2022_May_05_1137,Partial repeat,2021.2.3,59.89042459301672,
6,6,0,1,2,2,1,1,1,1,1,1,1,0,0,0,43,43,43,0,0,0,0,,,,,,,725.0733515005559,None,725.4652236010879,None,726.2291532997042,None,s,1,0.4603618998080492,726.2291532997042,None,None,None,,,,,,,5,24,female,5,2022_May_05_1137,Partial repeat,2021.2.3,59.89042459301672,
6,6,0,1,2,2,1,1,1,1,1,1,1,0,0,0,43,43,43,1,0,1,0,,,,,,,,,726.7017442006618,None,727.4827951993793,None,s,1,0.4947079997509718,727.4827951993793,None,None,None,,,,,,,5,24,female,5,2022_May_05_1137,Partial repeat,2021.2.3,59.89042459301672,
6,6,0,1,2,2,1,1,1,1,1,1,1,0,0,0,43,43,43,,,,,,,,,,,,,,,,,,,,,,,,,,,,,,5,24,female,5,2022_May_05_1137,Partial repeat,2021.2.3,59.89042459301672,
3,4,0,1,2,2,2,1,0,0,1,0,1,0,0,0,44,44,44,0,0,0,0,,,,,,,728.0027914009988,None,728.6715123001486,None,729.4020013995469,None,l,1,0.591550599783659,729.4020013995469,None,None,None,,,,,,,5,24,female,5,2022_May_05_1137,Partial repeat,2021.2.3,59.89042459301672,
3,4,0,1,2,2,2,1,0,0,1,0,1,0,0,0,44,44,44,1,0,1,0,,,,,,,,,730.0091987997293,None,730.9047107994556,None,l,1,0.560860600322485,730.9047107994556,None,None,None,,,,,,,5,24,female,5,2022_May_05_1137,Partial repeat,2021.2.3,59.89042459301672,
3,4,0,1,2,2,2,1,0,0,1,0,1,0,0,0,44,44,44,,,,,,,,,,,,,,,,,,,,,,,,,,,,,,5,24,female,5,2022_May_05_1137,Partial repeat,2021.2.3,59.89042459301672,
5,4,0,1,3,3,1,2,0,1,1,0,0,0,0,0,45,45,45,0,0,0,0,,,,,,,731.4962578006089,None,731.8944816999137,None,732.6581330001354,None,l,1,0.5033461004495621,732.6581330001354,None,None,None,,,,,,,5,24,female,5,2022_May_05_1137,Partial repeat,2021.2.3,59.89042459301672,
5,4,0,1,3,3,1,2,0,1,1,0,0,0,0,0,45,45,45,1,0,1,0,,,,,,,,,733.1809145994484,None,734.0948265008628,None,s,1,0.5786719005554914,734.0948265008628,None,None,None,,,,,,,5,24,female,5,2022_May_05_1137,Partial repeat,2021.2.3,59.89042459301672,
5,4,0,1,3,3,1,2,0,1,1,0,0,0,0,0,45,45,45,,,,,,,,,,,,,,,,,,,,,,,,,,,,,,5,24,female,5,2022_May_05_1137,Partial repeat,2021.2.3,59.89042459301672,
4,7,0,1,3,2,1,1,1,0,0,1,0,0,0,0,46,46,46,0,0,0,0,,,,,,,734.6894386000931,None,735.0673326998949,None,735.9820945002139,None,s,1,0.6593045014888048,735.9820945002139,None,None,None,,,,,,,5,24,female,5,2022_May_05_1137,Partial repeat,2021.2.3,59.89042459301672,
4,7,0,1,3,2,1,1,1,0,0,1,0,0,0,0,46,46,46,1,0,1,0,,,,,,,,,736.6680696997792,None,737.6682021003217,None,l,1,0.5173227991908789,737.6682021003217,None,None,None,,,,,,,5,24,female,5,2022_May_05_1137,Partial repeat,2021.2.3,59.89042459301672,
4,7,0,1,3,2,1,1,1,0,0,1,0,0,0,0,46,46,46,,,,,,,,,,,,,,,,,,,,,,,,,,,,,,5,24,female,5,2022_May_05_1137,Partial repeat,2021.2.3,59.89042459301672,
5,2,0,1,3,2,1,2,1,0,0,0,0,0,0,0,47,47,47,0,0,0,0,,,,,,,738.1998551003635,None,738.6575933005661,None,739.5897314008325,None,s,1,0.5638308990746737,739.5897314008325,None,None,None,,,,,,,5,24,female,5,2022_May_05_1137,Partial repeat,2021.2.3,59.89042459301672,
5,2,0,1,3,2,1,2,1,0,0,0,0,0,0,0,47,47,47,1,0,1,0,,,,,,,,,740.1735184006393,None,741.1747837997973,None,l,1,0.578676600009203,741.1747837997973,None,None,None,,,,,,,5,24,female,5,2022_May_05_1137,Partial repeat,2021.2.3,59.89042459301672,
5,2,0,1,3,2,1,2,1,0,0,0,0,0,0,0,47,47,47,,,,,,,,,,,,,,,,,,,,,,,,,,,,,,5,24,female,5,2022_May_05_1137,Partial repeat,2021.2.3,59.89042459301672,
5,8,0,1,3,3,1,2,1,0,1,0,0,0,0,0,48,48,48,0,0,0,0,,,,,,,741.7716592997313,None,742.2312583997846,None,743.078696699813,None,s,1,0.5228080004453659,743.078696699813,None,None,None,,,,,,,5,24,female,5,2022_May_05_1137,Partial repeat,2021.2.3,59.89042459301672,
5,8,0,1,3,3,1,2,1,0,1,0,0,0,0,0,48,48,48,1,0,1,0,,,,,,,,,743.6241781003773,None,744.3646888006479,None,l,1,0.5488148983567953,744.3646888006479,None,None,None,,,,,,,5,24,female,5,2022_May_05_1137,Partial repeat,2021.2.3,59.89042459301672,
5,8,0,1,3,3,1,2,1,0,1,0,0,0,0,0,48,48,48,,,,,,,,,,,,,,,,,,,,,,,,,,,,,,5,24,female,5,2022_May_05_1137,Partial repeat,2021.2.3,59.89042459301672,
4,8,0,1,2,3,2,1,1,1,0,0,1,0,0,0,49,49,49,0,0,0,0,,,,,,,744.9341579005122,None,745.4541599992663,None,746.4528214000165,None,s,1,0.5808137990534306,746.4528214000165,None,None,None,,,,,,,5,24,female,5,2022_May_05_1137,Partial repeat,2021.2.3,59.89042459301672,
4,8,0,1,2,3,2,1,1,1,0,0,1,0,0,0,49,49,49,1,0,1,0,,,,,,,,,747.061604199931,None,747.8042971994728,None,s,1,0.717264499515295,747.8042971994728,None,None,None,,,,,,,5,24,female,5,2022_May_05_1137,Partial repeat,2021.2.3,59.89042459301672,
4,8,0,1,2,3,2,1,1,1,0,0,1,0,0,0,49,49,49,,,,,,,,,,,,,,,,,,,,,,,,,,,,,,5,24,female,5,2022_May_05_1137,Partial repeat,2021.2.3,59.89042459301672,
6,4,0,1,3,2,2,1,1,0,0,0,0,0,0,0,50,50,50,0,0,0,0,,,,,,,748.5454267002642,None,749.0278050992638,None,749.7752637006342,None,s,1,0.4422375001013279,749.7752637006342,None,None,None,,,,,,,5,24,female,5,2022_May_05_1137,Partial repeat,2021.2.3,59.89042459301672,
6,4,0,1,3,2,2,1,1,0,0,0,0,0,0,0,50,50,50,1,0,1,0,,,,,,,,,750.2320288997144,None,751.1110254004598,None,s,0,0.5544910002499819,751.1110254004598,None,751.6778496000916,None,,,,,,,5,24,female,5,2022_May_05_1137,Partial repeat,2021.2.3,59.89042459301672,
6,4,0,1,3,2,2,1,1,0,0,0,0,0,0,0,50,50,50,,,,,,,,,,,,,,,,,,,,,,,,,,,,,,5,24,female,5,2022_May_05_1137,Partial repeat,2021.2.3,59.89042459301672,
4,4,0,1,3,3,1,1,1,0,1,1,0,0,0,0,51,51,51,0,0,0,0,,,,,,,752.1839819997549,None,752.5179162994027,None,753.4488757010549,None,s,1,0.5205879006534815,753.4488757010549,None,None,None,,,,,,,5,24,female,5,2022_May_05_1137,Partial repeat,2021.2.3,59.89042459301672,
4,4,0,1,3,3,1,1,1,0,1,1,0,0,0,0,51,51,51,1,0,1,0,,,,,,,,,753.9947062004358,None,754.7359005007893,None,l,1,0.5935174003243446,754.7359005007893,None,None,None,,,,,,,5,24,female,5,2022_May_05_1137,Partial repeat,2021.2.3,59.89042459301672,
4,4,0,1,3,3,1,1,1,0,1,1,0,0,0,0,51,51,51,,,,,,,,,,,,,,,,,,,,,,,,,,,,,,5,24,female,5,2022_May_05_1137,Partial repeat,2021.2.3,59.89042459301672,
4,2,0,1,2,2,2,1,1,1,1,0,1,0,0,0,52,52,52,0,0,0,0,,,,,,,755.34471450001,None,755.7575614992529,None,756.4878927003592,None,s,1,0.6975404005497694,756.4878927003592,None,None,None,,,,,,,5,24,female,5,2022_May_05_1137,Partial repeat,2021.2.3,59.89042459301672,
4,2,0,1,2,2,2,1,1,1,1,0,1,0,0,0,52,52,52,1,0,1,0,,,,,,,,,757.2083359006792,None,757.9743281994015,None,s,1,0.5871667005121708,757.9743281994015,None,None,None,,,,,,,5,24,female,5,2022_May_05_1137,Partial repeat,2021.2.3,59.89042459301672,
4,2,0,1,2,2,2,1,1,1,1,0,1,0,0,0,52,52,52,,,,,,,,,,,,,,,,,,,,,,,,,,,,,,5,24,female,5,2022_May_05_1137,Partial repeat,2021.2.3,59.89042459301672,
4,1,0,1,3,2,2,2,0,0,0,1,1,0,0,0,53,53,53,0,0,0,0,,,,,,,758.5837485995144,None,759.0139065999538,None,759.7451290003955,None,l,1,0.5603730008006096,759.7451290003955,None,None,None,,,,,,,5,24,female,5,2022_May_05_1137,Partial repeat,2021.2.3,59.89042459301672,
4,1,0,1,3,2,2,2,0,0,0,1,1,0,0,0,53,53,53,1,0,1,0,,,,,,,,,760.3299148008227,None,761.1313582006842,None,l,1,0.7741064000874758,761.1313582006842,None,None,None,,,,,,,5,24,female,5,2022_May_05_1137,Partial repeat,2021.2.3,59.89042459301672,
4,1,0,1,3,2,2,2,0,0,0,1,1,0,0,0,53,53,53,,,,,,,,,,,,,,,,,,,,,,,,,,,,,,5,24,female,5,2022_May_05_1137,Partial repeat,2021.2.3,59.89042459301672,
1,5,0,1,2,3,1,1,1,1,0,1,1,0,0,0,54,54,54,0,0,0,0,,,,,,,761.9335382003337,None,762.3370401002467,None,763.1174724008888,None,s,1,0.5719908010214567,763.1174724008888,None,None,None,,,,,,,5,24,female,5,2022_May_05_1137,Partial repeat,2021.2.3,59.89042459301672,
1,5,0,1,2,3,1,1,1,1,0,1,1,0,0,0,54,54,54,1,0,1,0,,,,,,,,,763.7134622000158,None,764.6378739010543,None,s,1,0.6516702007502317,764.6378739010543,None,None,None,,,,,,,5,24,female,5,2022_May_05_1137,Partial repeat,2021.2.3,59.89042459301672,
1,5,0,1,2,3,1,1,1,1,0,1,1,0,0,0,54,54,54,,,,,,,,,,,,,,,,,,,,,,,,,,,,,,5,24,female,5,2022_May_05_1137,Partial repeat,2021.2.3,59.89042459301672,
7,3,0,1,2,2,2,2,1,0,1,1,0,0,0,0,55,55,55,0,0,0,0,,,,,,,765.3122672010213,None,765.7269732002169,None,766.6077800001949,None,s,1,0.5857616011053324,766.6077800001949,None,None,None,,,,,,,5,24,female,5,2022_May_05_1137,Partial repeat,2021.2.3,59.89042459301672,
7,3,0,1,2,2,2,2,1,0,1,1,0,0,0,0,55,55,55,1,0,1,0,,,,,,,,,767.2179550006986,None,768.1104303002357,None,l,1,0.5710256993770599,768.1104303002357,None,None,None,,,,,,,5,24,female,5,2022_May_05_1137,Partial repeat,2021.2.3,59.89042459301672,
7,3,0,1,2,2,2,2,1,0,1,1,0,0,0,0,55,55,55,,,,,,,,,,,,,,,,,,,,,,,,,,,,,,5,24,female,5,2022_May_05_1137,Partial repeat,2021.2.3,59.89042459301672,
7,6,0,1,3,3,1,2,0,0,1,0,1,0,0,0,56,56,56,0,0,0,0,,,,,,,768.7012441009283,None,769.1502815000713,None,770.0325748007745,None,l,1,0.680926600471139,770.0325748007745,None,None,None,,,,,,,5,24,female,5,2022_May_05_1137,Partial repeat,2021.2.3,59.89042459301672,
7,6,0,1,3,3,1,2,0,0,1,0,1,0,0,0,56,56,56,1,0,1,0,,,,,,,,,770.7264553010464,None,771.7175267003477,None,l,1,0.5559119991958141,771.7175267003477,None,None,None,,,,,,,5,24,female,5,2022_May_05_1137,Partial repeat,2021.2.3,59.89042459301672,
7,6,0,1,3,3,1,2,0,0,1,0,1,0,0,0,56,56,56,,,,,,,,,,,,,,,,,,,,,,,,,,,,,,5,24,female,5,2022_May_05_1137,Partial repeat,2021.2.3,59.89042459301672,
8,5,0,1,3,2,2,2,1,1,0,1,1,0,0,0,57,57,57,0,0,0,0,,,,,,,772.2904493995011,None,772.7740103993565,None,773.7382392007858,None,s,1,0.5032297000288963,773.7382392007858,None,None,None,,,,,,,5,24,female,5,2022_May_05_1137,Partial repeat,2021.2.3,59.89042459301672,
8,5,0,1,3,2,2,2,1,1,0,1,1,0,0,0,57,57,57,1,0,1,0,,,,,,,,,774.2640962004662,None,775.0075106006116,None,s,1,0.6500649992376566,775.0075106006116,None,None,None,,,,,,,5,24,female,5,2022_May_05_1137,Partial repeat,2021.2.3,59.89042459301672,
8,5,0,1,3,2,2,2,1,1,0,1,1,0,0,0,57,57,57,,,,,,,,,,,,,,,,,,,,,,,,,,,,,,5,24,female,5,2022_May_05_1137,Partial repeat,2021.2.3,59.89042459301672,
2,7,0,1,3,3,2,1,1,0,1,0,0,0,0,0,58,58,58,0,0,0,0,,,,,,,775.6884592995048,None,776.2808276005089,None,777.161612700671,None,s,1,0.6398374997079372,777.161612700671,None,None,None,,,,,,,5,24,female,5,2022_May_05_1137,Partial repeat,2021.2.3,59.89042459301672,
2,7,0,1,3,3,2,1,1,0,1,0,0,0,0,0,58,58,58,1,0,1,0,,,,,,,,,777.8140392992646,None,778.6314035002142,None,l,1,0.5700959991663694,778.6314035002142,None,None,None,,,,,,,5,24,female,5,2022_May_05_1137,Partial repeat,2021.2.3,59.89042459301672,
2,7,0,1,3,3,2,1,1,0,1,0,0,0,0,0,58,58,58,,,,,,,,,,,,,,,,,,,,,,,,,,,,,,5,24,female,5,2022_May_05_1137,Partial repeat,2021.2.3,59.89042459301672,
3,7,0,1,2,2,2,1,1,0,1,0,0,0,0,0,59,59,59,0,0,0,0,,,,,,,779.222845999524,None,779.6874580997974,None,780.5184585005045,None,s,1,0.610979599878192,780.5184585005045,None,None,None,,,,,,,5,24,female,5,2022_May_05_1137,Partial repeat,2021.2.3,59.89042459301672,
3,7,0,1,2,2,2,1,1,0,1,0,0,0,0,0,59,59,59,1,0,1,0,,,,,,,,,781.148684700951,None,781.9218511004001,None,l,1,0.575629198923707,781.9218511004001,None,None,None,,,,,,,5,24,female,5,2022_May_05_1137,Partial repeat,2021.2.3,59.89042459301672,
3,7,0,1,2,2,2,1,1,0,1,0,0,0,0,0,59,59,59,,,,,,,,,,,,,,,,,,,,,,,,,,,,,,5,24,female,5,2022_May_05_1137,Partial repeat,2021.2.3,59.89042459301672,
5,1,0,1,2,2,1,2,0,1,1,0,0,0,0,0,60,60,60,0,0,0,0,,,,,,,782.5128220003098,None,782.9437917992473,None,783.7408240009099,None,l,1,0.5566505994647741,783.7408240009099,None,None,None,,,,,,,5,24,female,5,2022_May_05_1137,Partial repeat,2021.2.3,59.89042459301672,
5,1,0,1,2,2,1,2,0,1,1,0,0,0,0,0,60,60,60,1,0,1,0,,,,,,,,,784.3057358004153,None,785.1939573995769,None,s,1,0.5355008002370596,785.1939573995769,None,None,None,,,,,,,5,24,female,5,2022_May_05_1137,Partial repeat,2021.2.3,59.89042459301672,
5,1,0,1,2,2,1,2,0,1,1,0,0,0,0,0,60,60,60,,,,,,,,,,,,,,,,,,,,,,,,,,,,,,5,24,female,5,2022_May_05_1137,Partial repeat,2021.2.3,59.89042459301672,
8,7,0,1,2,2,1,2,1,1,1,0,1,0,0,0,61,61,61,0,0,0,0,,,,,,,785.740747699514,None,786.1834247000515,None,786.947671500966,None,s,1,0.7737952992320061,786.947671500966,None,None,None,,,,,,,5,24,female,5,2022_May_05_1137,Partial repeat,2021.2.3,59.89042459301672,
8,7,0,1,2,2,1,2,1,1,1,0,1,0,0,0,61,61,61,1,0,1,0,,,,,,,,,787.7451981008053,None,788.685087300837,None,s,1,0.628405200317502,788.685087300837,None,None,None,,,,,,,5,24,female,5,2022_May_05_1137,Partial repeat,2021.2.3,59.89042459301672,
8,7,0,1,2,2,1,2,1,1,1,0,1,0,0,0,61,61,61,,,,,,,,,,,,,,,,,,,,,,,,,,,,,,5,24,female,5,2022_May_05_1137,Partial repeat,2021.2.3,59.89042459301672,
3,6,0,1,2,2,1,2,0,0,1,0,1,0,0,0,62,62,62,0,0,0,0,,,,,,,789.3403022009879,None,789.7902483996004,None,790.6218602005392,None,l,1,0.5716401990503073,790.6218602005392,None,None,None,,,,,,,5,24,female,5,2022_May_05_1137,Partial repeat,2021.2.3,59.89042459301672,
3,6,0,1,2,2,1,2,0,0,1,0,1,0,0,0,62,62,62,1,0,1,0,,,,,,,,,791.2115313000977,None,792.0406347010285,None,l,1,0.5688797011971474,792.0406347010285,None,None,None,,,,,,,5,24,female,5,2022_May_05_1137,Partial repeat,2021.2.3,59.89042459301672,
3,6,0,1,2,2,1,2,0,0,1,0,1,0,0,0,62,62,62,,,,,,,,,,,,,,,,,,,,,,,,,,,,,,5,24,female,5,2022_May_05_1137,Partial repeat,2021.2.3,59.89042459301672,
3,5,0,1,3,3,1,2,1,1,1,0,1,0,0,0,63,63,63,0,0,0,0,,,,,,,792.6300710998476,None,793.1135591007769,None,793.8943585995585,None,l,0,0.5552878994494677,793.8943585995585,None,794.4759736005217,None,,,,,,,5,24,female,5,2022_May_05_1137,Partial repeat,2021.2.3,59.89042459301672,
3,5,0,1,3,3,1,2,1,1,1,0,1,0,0,0,63,63,63,1,0,1,0,,,,,,,,,794.9838392008096,None,795.698506699875,None,s,1,0.5509249996393919,795.698506699875,None,None,None,,,,,,,5,24,female,5,2022_May_05_1137,Partial repeat,2021.2.3,59.89042459301672,
3,5,0,1,3,3,1,2,1,1,1,0,1,0,0,0,63,63,63,,,,,,,,,,,,,,,,,,,,,,,,,,,,,,5,24,female,5,2022_May_05_1137,Partial repeat,2021.2.3,59.89042459301672,
6,6,0,1,3,2,1,2,1,1,0,0,1,1,0,0,64,64,64,0,0,0,0,,,,,,,798.4416058007628,None,799.3422950003296,None,800.1232455000281,None,s,1,0.6542089004069567,800.1232455000281,None,None,None,,,,,,,5,24,female,5,2022_May_05_1137,Partial repeat,2021.2.3,59.89042459301672,
6,6,0,1,3,2,1,2,1,1,0,0,1,1,0,0,64,64,64,1,0,1,0,,,,,,,,,800.8029526993632,None,801.6937482003123,None,s,1,0.5077491998672485,801.6937482003123,None,None,None,,,,,,,5,24,female,5,2022_May_05_1137,Partial repeat,2021.2.3,59.89042459301672,
6,6,0,1,3,2,1,2,1,1,0,0,1,1,0,0,64,64,64,,,,,,,,,,,,,,,,,,,,,,,,,,,,,,5,24,female,5,2022_May_05_1137,Partial repeat,2021.2.3,59.89042459301672,
6,6,0,1,2,3,1,2,0,1,0,0,0,1,0,0,65,65,65,0,0,0,0,,,,,,,802.220519900322,None,802.6153694000095,None,803.4462049994618,None,l,1,0.5392901990562677,803.4462049994618,None,None,None,,,,,,,5,24,female,5,2022_May_05_1137,Partial repeat,2021.2.3,59.89042459301672,
6,6,0,1,2,3,1,2,0,1,0,0,0,1,0,0,65,65,65,1,0,1,0,,,,,,,,,804.0141690000892,None,804.9489935003221,None,s,1,0.49244049936532974,804.9489935003221,None,None,None,,,,,,,5,24,female,5,2022_May_05_1137,Partial repeat,2021.2.3,59.89042459301672,
6,6,0,1,2,3,1,2,0,1,0,0,0,1,0,0,65,65,65,,,,,,,,,,,,,,,,,,,,,,,,,,,,,,5,24,female,5,2022_May_05_1137,Partial repeat,2021.2.3,59.89042459301672,
6,6,0,1,2,3,2,1,1,0,0,0,0,1,0,0,66,66,66,0,0,0,0,,,,,,,805.4580074008554,None,805.8216482009739,None,806.7356464993209,None,s,1,0.43397120013833046,806.7356464993209,None,None,None,,,,,,,5,24,female,5,2022_May_05_1137,Partial repeat,2021.2.3,59.89042459301672,
6,6,0,1,2,3,2,1,1,0,0,0,0,1,0,0,66,66,66,1,0,1,0,,,,,,,,,807.1959693003446,None,808.0882917996496,None,s,0,0.48924339935183525,808.0882917996496,None,808.5951090995222,None,,,,,,,5,24,female,5,2022_May_05_1137,Partial repeat,2021.2.3,59.89042459301672,
6,6,0,1,2,3,2,1,1,0,0,0,0,1,0,0,66,66,66,,,,,,,,,,,,,,,,,,,,,,,,,,,,,,5,24,female,5,2022_May_05_1137,Partial repeat,2021.2.3,59.89042459301672,
6,6,0,1,2,3,2,1,1,1,0,0,1,1,0,0,67,67,67,0,0,0,0,,,,,,,809.0946754999459,None,810.5808885004371,None,811.4447681996971,None,s,1,0.4927408993244171,811.4447681996971,None,None,None,,,,,,,5,24,female,5,2022_May_05_1137,Partial repeat,2021.2.3,59.89042459301672,
6,6,0,1,2,3,2,1,1,1,0,0,1,1,0,0,67,67,67,1,0,1,0,,,,,,,,,811.9665552992374,None,812.8641765005887,None,s,1,0.48931510001420975,812.8641765005887,None,None,None,,,,,,,5,24,female,5,2022_May_05_1137,Partial repeat,2021.2.3,59.89042459301672,
6,6,0,1,2,3,2,1,1,1,0,0,1,1,0,0,67,67,67,,,,,,,,,,,,,,,,,,,,,,,,,,,,,,5,24,female,5,2022_May_05_1137,Partial repeat,2021.2.3,59.89042459301672,
6,6,0,1,2,2,1,2,1,0,1,0,0,1,0,0,68,68,68,0,0,0,0,,,,,,,813.3730440996587,None,813.8872408010066,None,814.7515869997442,None,s,1,0.4500331003218889,814.7515869997442,None,None,None,,,,,,,5,24,female,5,2022_May_05_1137,Partial repeat,2021.2.3,59.89042459301672,
6,6,0,1,2,2,1,2,1,0,1,0,0,1,0,0,68,68,68,1,0,1,0,,,,,,,,,815.230312300846,None,816.0882660001516,None,l,1,0.5852528996765614,816.0882660001516,None,None,None,,,,,,,5,24,female,5,2022_May_05_1137,Partial repeat,2021.2.3,59.89042459301672,
6,6,0,1,2,2,1,2,1,0,1,0,0,1,0,0,68,68,68,,,,,,,,,,,,,,,,,,,,,,,,,,,,,,5,24,female,5,2022_May_05_1137,Partial repeat,2021.2.3,59.89042459301672,
6,6,0,1,2,2,1,2,0,1,1,0,0,1,0,0,69,69,69,0,0,0,0,,,,,,,816.6981873009354,None,817.1269544009119,None,818.0421222001314,None,l,1,0.5673850998282433,818.0421222001314,None,None,None,,,,,,,5,24,female,5,2022_May_05_1137,Partial repeat,2021.2.3,59.89042459301672,
6,6,0,1,2,2,1,2,0,1,1,0,0,1,0,0,69,69,69,1,0,1,0,,,,,,,,,818.6290202997625,None,819.427172999829,None,s,1,0.5582925993949175,819.427172999829,None,None,None,,,,,,,5,24,female,5,2022_May_05_1137,Partial repeat,2021.2.3,59.89042459301672,
6,6,0,1,2,2,1,2,0,1,1,0,0,1,0,0,69,69,69,,,,,,,,,,,,,,,,,,,,,,,,,,,,,,5,24,female,5,2022_May_05_1137,Partial repeat,2021.2.3,59.89042459301672,
6,6,0,1,3,3,2,2,0,1,1,1,0,1,0,0,70,70,70,0,0,0,0,,,,,,,820.0155926998705,None,820.4167052004486,None,821.4145350996405,None,l,1,0.5070086997002363,821.4145350996405,None,None,None,,,,,,,5,24,female,5,2022_May_05_1137,Partial repeat,2021.2.3,59.89042459301672,
6,6,0,1,3,3,2,2,0,1,1,1,0,1,0,0,70,70,70,1,0,1,0,,,,,,,,,821.9333539009094,None,822.7511356007308,None,s,1,0.5223219003528357,822.7511356007308,None,None,None,,,,,,,5,24,female,5,2022_May_05_1137,Partial repeat,2021.2.3,59.89042459301672,
6,6,0,1,3,3,2,2,0,1,1,1,0,1,0,0,70,70,70,,,,,,,,,,,,,,,,,,,,,,,,,,,,,,5,24,female,5,2022_May_05_1137,Partial repeat,2021.2.3,59.89042459301672,
6,6,0,1,2,2,1,2,1,1,1,0,1,1,0,0,71,71,71,0,0,0,0,,,,,,,823.2937029004097,None,823.7398393005133,None,824.5705241002142,None,s,1,0.4790268000215292,824.5705241002142,None,None,None,,,,,,,5,24,female,5,2022_May_05_1137,Partial repeat,2021.2.3,59.89042459301672,
6,6,0,1,2,2,1,2,1,1,1,0,1,1,0,0,71,71,71,1,0,1,0,,,,,,,,,825.0732489004731,None,826.0070511009544,None,s,1,0.4664385002106428,826.0070511009544,None,None,None,,,,,,,5,24,female,5,2022_May_05_1137,Partial repeat,2021.2.3,59.89042459301672,
6,6,0,1,2,2,1,2,1,1,1,0,1,1,0,0,71,71,71,,,,,,,,,,,,,,,,,,,,,,,,,,,,,,5,24,female,5,2022_May_05_1137,Partial repeat,2021.2.3,59.89042459301672,
6,6,0,1,2,3,1,2,0,0,0,0,1,1,0,0,72,72,72,0,0,0,0,,,,,,,826.4913526009768,None,826.9126246999949,None,827.7599189002067,None,l,1,0.4575274996459484,827.7599189002067,None,None,None,,,,,,,5,24,female,5,2022_May_05_1137,Partial repeat,2021.2.3,59.89042459301672,
6,6,0,1,2,3,1,2,0,0,0,0,1,1,0,0,72,72,72,1,0,1,0,,,,,,,,,828.2427457999438,None,829.1793039999902,None,l,1,0.4381606001406908,829.1793039999902,None,None,None,,,,,,,5,24,female,5,2022_May_05_1137,Partial repeat,2021.2.3,59.89042459301672,
6,6,0,1,2,3,1,2,0,0,0,0,1,1,0,0,72,72,72,,,,,,,,,,,,,,,,,,,,,,,,,,,,,,5,24,female,5,2022_May_05_1137,Partial repeat,2021.2.3,59.89042459301672,
6,6,0,1,2,2,2,2,0,0,1,1,1,1,0,0,73,73,73,0,0,0,0,,,,,,,829.6386977992952,None,830.1022327002138,None,830.9674216005951,None,l,1,0.5381595995277166,830.9674216005951,None,None,None,,,,,,,5,24,female,5,2022_May_05_1137,Partial repeat,2021.2.3,59.89042459301672,
6,6,0,1,2,2,2,2,0,0,1,1,1,1,0,0,73,73,73,1,0,1,0,,,,,,,,,831.5275336001068,None,832.2692054007202,None,l,1,0.4282446000725031,832.2692054007202,None,None,None,,,,,,,5,24,female,5,2022_May_05_1137,Partial repeat,2021.2.3,59.89042459301672,
6,6,0,1,2,2,2,2,0,0,1,1,1,1,0,0,73,73,73,,,,,,,,,,,,,,,,,,,,,,,,,,,,,,5,24,female,5,2022_May_05_1137,Partial repeat,2021.2.3,59.89042459301672,
6,6,0,1,3,3,1,2,0,0,1,0,1,1,0,0,74,74,74,0,0,0,0,,,,,,,832.708248199895,None,833.2416622992605,None,834.0887819994241,None,l,1,0.4487966001033783,834.0887819994241,None,None,None,,,,,,,5,24,female,5,2022_May_05_1137,Partial repeat,2021.2.3,59.89042459301672,
6,6,0,1,3,3,1,2,0,0,1,0,1,1,0,0,74,74,74,1,0,1,0,,,,,,,,,834.5470291003585,None,835.3926391005516,None,l,1,0.4408136010169983,835.3926391005516,None,None,None,,,,,,,5,24,female,5,2022_May_05_1137,Partial repeat,2021.2.3,59.89042459301672,
6,6,0,1,3,3,1,2,0,0,1,0,1,1,0,0,74,74,74,,,,,,,,,,,,,,,,,,,,,,,,,,,,,,5,24,female,5,2022_May_05_1137,Partial repeat,2021.2.3,59.89042459301672,
6,6,0,1,2,2,2,2,1,1,1,1,1,1,0,0,75,75,75,0,0,0,0,,,,,,,835.8532519992441,None,836.3142942003906,None,837.2285000998527,None,s,1,0.47699129953980446,837.2285000998527,None,None,None,,,,,,,5,24,female,5,2022_May_05_1137,Partial repeat,2021.2.3,59.89042459301672,
6,6,0,1,2,2,2,2,1,1,1,1,1,1,0,0,75,75,75,1,0,1,0,,,,,,,,,837.7251865006983,None,838.4474589992315,None,s,1,0.4820943009108305,838.4474589992315,None,None,None,,,,,,,5,24,female,5,2022_May_05_1137,Partial repeat,2021.2.3,59.89042459301672,
6,6,0,1,2,2,2,2,1,1,1,1,1,1,0,0,75,75,75,,,,,,,,,,,,,,,,,,,,,,,,,,,,,,5,24,female,5,2022_May_05_1137,Partial repeat,2021.2.3,59.89042459301672,
6,6,0,1,2,3,2,1,0,0,0,0,1,1,0,0,76,76,76,0,0,0,0,,,,,,,838.9575618002564,None,839.3366886004806,None,840.1011079996824,None,l,1,0.3963862992823124,840.1011079996824,None,None,None,,,,,,,5,24,female,5,2022_May_05_1137,Partial repeat,2021.2.3,59.89042459301672,
6,6,0,1,2,3,2,1,0,0,0,0,1,1,0,0,76,76,76,1,0,1,0,,,,,,,,,840.5183012001216,None,841.5370346009731,None,l,1,0.41640250012278557,841.5370346009731,None,None,None,,,,,,,5,24,female,5,2022_May_05_1137,Partial repeat,2021.2.3,59.89042459301672,
6,6,0,1,2,3,2,1,0,0,0,0,1,1,0,0,76,76,76,,,,,,,,,,,,,,,,,,,,,,,,,,,,,,5,24,female,5,2022_May_05_1137,Partial repeat,2021.2.3,59.89042459301672,
6,6,0,1,3,2,1,1,0,1,0,1,0,1,0,0,77,77,77,0,0,0,0,,,,,,,841.9760493002832,None,842.3928095009178,None,843.3744010999799,None,l,1,0.4190605003386736,843.3744010999799,None,None,None,,,,,,,5,24,female,5,2022_May_05_1137,Partial repeat,2021.2.3,59.89042459301672,
6,6,0,1,3,2,1,1,0,1,0,1,0,1,0,0,77,77,77,1,0,1,0,,,,,,,,,843.8102882001549,None,844.8275898005813,None,s,1,0.5098697990179062,844.8275898005813,None,None,None,,,,,,,5,24,female,5,2022_May_05_1137,Partial repeat,2021.2.3,59.89042459301672,
6,6,0,1,3,2,1,1,0,1,0,1,0,1,0,0,77,77,77,,,,,,,,,,,,,,,,,,,,,,,,,,,,,,5,24,female,5,2022_May_05_1137,Partial repeat,2021.2.3,59.89042459301672,
6,6,0,1,2,2,1,1,0,0,1,1,1,1,0,0,78,78,78,0,0,0,0,,,,,,,845.3549677003175,None,845.8662224002182,None,846.763776499778,None,l,1,0.49368599988520145,846.763776499778,None,None,None,,,,,,,5,24,female,5,2022_May_05_1137,Partial repeat,2021.2.3,59.89042459301672,
6,6,0,1,2,2,1,1,0,0,1,1,1,1,0,0,78,78,78,1,0,1,0,,,,,,,,,847.28262880072,None,848.0159341003746,None,l,1,0.43354859948158264,848.0159341003746,None,None,None,,,,,,,5,24,female,5,2022_May_05_1137,Partial repeat,2021.2.3,59.89042459301672,
6,6,0,1,2,2,1,1,0,0,1,1,1,1,0,0,78,78,78,,,,,,,,,,,,,,,,,,,,,,,,,,,,,,5,24,female,5,2022_May_05_1137,Partial repeat,2021.2.3,59.89042459301672,
6,6,0,1,3,2,1,1,0,0,0,1,1,1,0,0,79,79,79,0,0,0,0,,,,,,,848.4602156002074,None,848.8887709006667,None,849.7367947008461,None,l,1,0.3926946986466646,849.7367947008461,None,None,None,,,,,,,5,24,female,5,2022_May_05_1137,Partial repeat,2021.2.3,59.89042459301672,
6,6,0,1,3,2,1,1,0,0,0,1,1,1,0,0,79,79,79,1,0,1,0,,,,,,,,,850.1524053998291,None,850.888450101018,None,l,1,0.4890376999974251,850.888450101018,None,None,None,,,,,,,5,24,female,5,2022_May_05_1137,Partial repeat,2021.2.3,59.89042459301672,
6,6,0,1,3,2,1,1,0,0,0,1,1,1,0,0,79,79,79,,,,,,,,,,,,,,,,,,,,,,,,,,,,,,5,24,female,5,2022_May_05_1137,Partial repeat,2021.2.3,59.89042459301672,
6,6,0,1,3,2,2,2,1,0,0,1,0,1,0,0,80,80,80,0,0,0,0,,,,,,,851.3923611007631,None,851.8278074003756,None,852.6251685004681,None,s,1,0.4003238994628191,852.6251685004681,None,None,None,,,,,,,5,24,female,5,2022_May_05_1137,Partial repeat,2021.2.3,59.89042459301672,
6,6,0,1,3,2,2,2,1,0,0,1,0,1,0,0,80,80,80,1,0,1,0,,,,,,,,,853.0413442999125,None,854.0447544008493,None,l,1,0.44469739869236946,854.0447544008493,None,None,None,,,,,,,5,24,female,5,2022_May_05_1137,Partial repeat,2021.2.3,59.89042459301672,
6,6,0,1,3,2,2,2,1,0,0,1,0,1,0,0,80,80,80,,,,,,,,,,,,,,,,,,,,,,,,,,,,,,5,24,female,5,2022_May_05_1137,Partial repeat,2021.2.3,59.89042459301672,
6,6,0,1,2,3,2,2,1,0,0,1,0,1,0,0,81,81,81,0,0,0,0,,,,,,,854.5095323007554,None,854.9171626996249,None,855.7981388997287,None,s,1,0.42728810012340546,855.7981388997287,None,None,None,,,,,,,5,24,female,5,2022_May_05_1137,Partial repeat,2021.2.3,59.89042459301672,
6,6,0,1,2,3,2,2,1,0,0,1,0,1,0,0,81,81,81,1,0,1,0,,,,,,,,,856.2405258007348,None,856.966648099944,None,l,1,0.6108392998576164,856.966648099944,None,None,None,,,,,,,5,24,female,5,2022_May_05_1137,Partial repeat,2021.2.3,59.89042459301672,
6,6,0,1,2,3,2,2,1,0,0,1,0,1,0,0,81,81,81,,,,,,,,,,,,,,,,,,,,,,,,,,,,,,5,24,female,5,2022_May_05_1137,Partial repeat,2021.2.3,59.89042459301672,
6,6,0,1,2,2,1,1,1,1,1,1,1,1,0,0,82,82,82,0,0,0,0,,,,,,,857.6025286000222,None,858.0232138000429,None,858.9045717008412,None,s,1,0.4729150999337435,858.9045717008412,None,None,None,,,,,,,5,24,female,5,2022_May_05_1137,Partial repeat,2021.2.3,59.89042459301672,
6,6,0,1,2,2,1,1,1,1,1,1,1,1,0,0,82,82,82,1,0,1,0,,,,,,,,,859.3966400008649,None,860.2563406992704,None,s,1,0.4491031002253294,860.2563406992704,None,None,None,,,,,,,5,24,female,5,2022_May_05_1137,Partial repeat,2021.2.3,59.89042459301672,
6,6,0,1,2,2,1,1,1,1,1,1,1,1,0,0,82,82,82,,,,,,,,,,,,,,,,,,,,,,,,,,,,,,5,24,female,5,2022_May_05_1137,Partial repeat,2021.2.3,59.89042459301672,
6,6,0,1,2,2,2,2,0,1,1,1,0,1,0,0,83,83,83,0,0,0,0,,,,,,,860.7173028010875,None,861.1292209997773,None,861.9765406996012,None,l,1,0.39293190091848373,861.9765406996012,None,None,None,,,,,,,5,24,female,5,2022_May_05_1137,Partial repeat,2021.2.3,59.89042459301672,
6,6,0,1,2,2,2,2,0,1,1,1,0,1,0,0,83,83,83,1,0,1,0,,,,,,,,,862.3951063007116,None,863.2794356998056,None,s,1,0.5940519999712706,863.2794356998056,None,None,None,,,,,,,5,24,female,5,2022_May_05_1137,Partial repeat,2021.2.3,59.89042459301672,
6,6,0,1,2,2,2,2,0,1,1,1,0,1,0,0,83,83,83,,,,,,,,,,,,,,,,,,,,,,,,,,,,,,5,24,female,5,2022_May_05_1137,Partial repeat,2021.2.3,59.89042459301672,
6,6,0,1,2,3,2,2,1,1,0,1,1,1,0,0,84,84,84,0,0,0,0,,,,,,,863.8927219007164,None,864.3353160005063,None,865.2002773005515,None,s,1,0.5451806001365185,865.2002773005515,None,None,None,,,,,,,5,24,female,5,2022_May_05_1137,Partial repeat,2021.2.3,59.89042459301672,
6,6,0,1,2,3,2,2,1,1,0,1,1,1,0,0,84,84,84,1,0,1,0,,,,,,,,,865.7682253997773,None,866.7202969994396,None,s,1,0.4811615999788046,866.7202969994396,None,None,None,,,,,,,5,24,female,5,2022_May_05_1137,Partial repeat,2021.2.3,59.89042459301672,
6,6,0,1,2,3,2,2,1,1,0,1,1,1,0,0,84,84,84,,,,,,,,,,,,,,,,,,,,,,,,,,,,,,5,24,female,5,2022_May_05_1137,Partial repeat,2021.2.3,59.89042459301672,
6,6,0,1,3,3,2,1,1,1,1,0,1,1,0,0,85,85,85,0,0,0,0,,,,,,,867.222061900422,None,867.6252267006785,None,868.44101030007,None,s,1,0.4244842007756233,868.44101030007,None,None,None,,,,,,,5,24,female,5,2022_May_05_1137,Partial repeat,2021.2.3,59.89042459301672,
6,6,0,1,3,3,2,1,1,1,1,0,1,1,0,0,85,85,85,1,0,1,0,,,,,,,,,868.874699799344,None,869.6090714000165,None,s,1,0.5523605011403561,869.6090714000165,None,None,None,,,,,,,5,24,female,5,2022_May_05_1137,Partial repeat,2021.2.3,59.89042459301672,
6,6,0,1,3,3,2,1,1,1,1,0,1,1,0,0,85,85,85,,,,,,,,,,,,,,,,,,,,,,,,,,,,,,5,24,female,5,2022_May_05_1137,Partial repeat,2021.2.3,59.89042459301672,
6,6,0,1,3,3,2,1,1,0,1,0,0,1,0,0,86,86,86,0,0,0,0,,,,,,,870.1782993003726,None,870.5809461008757,None,871.5116812009364,None,s,1,0.48980050161480904,871.5116812009364,None,None,None,,,,,,,5,24,female,5,2022_May_05_1137,Partial repeat,2021.2.3,59.89042459301672,
6,6,0,1,3,3,2,1,1,0,1,0,0,1,0,0,86,86,86,1,0,1,0,,,,,,,,,872.0140407998115,None,872.7643660996109,None,l,1,0.6690970007330179,872.7643660996109,None,None,None,,,,,,,5,24,female,5,2022_May_05_1137,Partial repeat,2021.2.3,59.89042459301672,
6,6,0,1,3,3,2,1,1,0,1,0,0,1,0,0,86,86,86,,,,,,,,,,,,,,,,,,,,,,,,,,,,,,5,24,female,5,2022_May_05_1137,Partial repeat,2021.2.3,59.89042459301672,
6,6,0,1,2,3,1,1,0,0,0,1,1,1,0,0,87,87,87,0,0,0,0,,,,,,,873.4457060992718,None,873.9375171996653,None,874.7014227993786,None,l,1,0.4840882010757923,874.7014227993786,None,None,None,,,,,,,5,24,female,5,2022_May_05_1137,Partial repeat,2021.2.3,59.89042459301672,
6,6,0,1,2,3,1,1,0,0,0,1,1,1,0,0,87,87,87,1,0,1,0,,,,,,,,,875.2020046003163,None,876.070817200467,None,l,1,0.5386784002184868,876.070817200467,None,None,None,,,,,,,5,24,female,5,2022_May_05_1137,Partial repeat,2021.2.3,59.89042459301672,
6,6,0,1,2,3,1,1,0,0,0,1,1,1,0,0,87,87,87,,,,,,,,,,,,,,,,,,,,,,,,,,,,,,5,24,female,5,2022_May_05_1137,Partial repeat,2021.2.3,59.89042459301672,
6,6,0,1,2,3,2,1,0,1,0,0,0,1,0,0,88,88,88,0,0,0,0,,,,,,,876.6200674008578,None,877.0600911993533,None,877.9742572009563,None,l,1,0.46722669899463654,877.9742572009563,None,None,None,,,,,,,5,24,female,5,2022_May_05_1137,Partial repeat,2021.2.3,59.89042459301672,
6,6,0,1,2,3,2,1,0,1,0,0,0,1,0,0,88,88,88,1,0,1,0,,,,,,,,,878.4551074001938,None,879.4344311002642,None,s,1,0.5190866999328136,879.4344311002642,None,None,None,,,,,,,5,24,female,5,2022_May_05_1137,Partial repeat,2021.2.3,59.89042459301672,
6,6,0,1,2,3,2,1,0,1,0,0,0,1,0,0,88,88,88,,,,,,,,,,,,,,,,,,,,,,,,,,,,,,5,24,female,5,2022_May_05_1137,Partial repeat,2021.2.3,59.89042459301672,
6,6,0,1,3,3,1,1,0,0,1,1,1,1,0,0,89,89,89,0,0,0,0,,,,,,,879.9840306993574,None,880.3833802994341,None,881.2316743005067,None,l,1,0.48979820124804974,881.2316743005067,None,None,None,,,,,,,5,24,female,5,2022_May_05_1137,Partial repeat,2021.2.3,59.89042459301672,
6,6,0,1,3,3,1,1,0,0,1,1,1,1,0,0,89,89,89,1,0,1,0,,,,,,,,,881.7367615010589,None,882.6500550992787,None,l,1,0.5354219991713762,882.6500550992787,None,None,None,,,,,,,5,24,female,5,2022_May_05_1137,Partial repeat,2021.2.3,59.89042459301672,
6,6,0,1,3,3,1,1,0,0,1,1,1,1,0,0,89,89,89,,,,,,,,,,,,,,,,,,,,,,,,,,,,,,5,24,female,5,2022_May_05_1137,Partial repeat,2021.2.3,59.89042459301672,
6,6,0,1,2,2,1,1,0,1,1,1,0,1,0,0,90,90,90,0,0,0,0,,,,,,,883.2012287992984,None,883.6227489002049,None,884.5539040006697,None,l,1,0.43162479996681213,884.5539040006697,None,None,None,,,,,,,5,24,female,5,2022_May_05_1137,Partial repeat,2021.2.3,59.89042459301672,
6,6,0,1,2,2,1,1,0,1,1,1,0,1,0,0,90,90,90,1,0,1,0,,,,,,,,,885.0138485003263,None,885.8062267992646,None,s,1,0.5712193008512259,885.8062267992646,None,None,None,,,,,,,5,24,female,5,2022_May_05_1137,Partial repeat,2021.2.3,59.89042459301672,
6,6,0,1,2,2,1,1,0,1,1,1,0,1,0,0,90,90,90,,,,,,,,,,,,,,,,,,,,,,,,,,,,,,5,24,female,5,2022_May_05_1137,Partial repeat,2021.2.3,59.89042459301672,
6,6,0,1,3,3,2,1,0,1,1,0,0,1,0,0,91,91,91,0,0,0,0,,,,,,,886.3970765005797,None,886.8292098995298,None,887.6932130996138,None,l,1,0.6042686011642218,887.6932130996138,None,None,None,,,,,,,5,24,female,5,2022_May_05_1137,Partial repeat,2021.2.3,59.89042459301672,
6,6,0,1,3,3,2,1,0,1,1,0,0,1,0,0,91,91,91,1,0,1,0,,,,,,,,,888.3226986993104,None,889.2471414003521,None,s,1,0.6103396005928516,889.2471414003521,None,None,None,,,,,,,5,24,female,5,2022_May_05_1137,Partial repeat,2021.2.3,59.89042459301672,
6,6,0,1,3,3,2,1,0,1,1,0,0,1,0,0,91,91,91,,,,,,,,,,,,,,,,,,,,,,,,,,,,,,5,24,female,5,2022_May_05_1137,Partial repeat,2021.2.3,59.89042459301672,
6,6,0,1,2,3,2,2,0,1,0,1,0,1,0,0,92,92,92,0,0,0,0,,,,,,,889.8833044003695,None,890.3026839997619,None,891.2500935010612,None,l,1,0.439394298940897,891.2500935010612,None,None,None,,,,,,,5,24,female,5,2022_May_05_1137,Partial repeat,2021.2.3,59.89042459301672,
6,6,0,1,2,3,2,2,0,1,0,1,0,1,0,0,92,92,92,1,0,1,0,,,,,,,,,891.7105326000601,None,892.7204654999077,None,s,1,0.4330170005559921,892.7204654999077,None,None,None,,,,,,,5,24,female,5,2022_May_05_1137,Partial repeat,2021.2.3,59.89042459301672,
6,6,0,1,2,3,2,2,0,1,0,1,0,1,0,0,92,92,92,,,,,,,,,,,,,,,,,,,,,,,,,,,,,,5,24,female,5,2022_May_05_1137,Partial repeat,2021.2.3,59.89042459301672,
6,6,0,1,2,2,1,2,0,0,1,0,1,1,0,0,93,93,93,0,0,0,0,,,,,,,893.1788306999952,None,893.5590119007975,None,894.5063838008791,None,l,1,0.39909420162439346,894.5063838008791,None,None,None,,,,,,,5,24,female,5,2022_May_05_1137,Partial repeat,2021.2.3,59.89042459301672,
6,6,0,1,2,2,1,2,0,0,1,0,1,1,0,0,93,93,93,1,0,1,0,,,,,,,,,894.9266237001866,None,895.7926978003234,None,l,1,0.5527829993516207,895.7926978003234,None,None,None,,,,,,,5,24,female,5,2022_May_05_1137,Partial repeat,2021.2.3,59.89042459301672,
6,6,0,1,2,2,1,2,0,0,1,0,1,1,0,0,93,93,93,,,,,,,,,,,,,,,,,,,,,,,,,,,,,,5,24,female,5,2022_May_05_1137,Partial repeat,2021.2.3,59.89042459301672,
6,6,0,1,2,3,2,2,0,0,0,1,1,1,0,0,94,94,94,0,0,0,0,,,,,,,896.3597580995411,None,896.8320450000465,None,897.7625891994685,None,l,1,0.40689499862492085,897.7625891994685,None,None,None,,,,,,,5,24,female,5,2022_May_05_1137,Partial repeat,2021.2.3,59.89042459301672,
6,6,0,1,2,3,2,2,0,0,0,1,1,1,0,0,94,94,94,1,0,1,0,,,,,,,,,898.1814150996506,None,899.1490183994174,None,l,1,0.5325269009917974,899.1490183994174,None,None,None,,,,,,,5,24,female,5,2022_May_05_1137,Partial repeat,2021.2.3,59.89042459301672,
6,6,0,1,2,3,2,2,0,0,0,1,1,1,0,0,94,94,94,,,,,,,,,,,,,,,,,,,,,,,,,,,,,,5,24,female,5,2022_May_05_1137,Partial repeat,2021.2.3,59.89042459301672,
6,6,0,1,3,2,1,2,0,1,0,0,0,1,0,0,95,95,95,0,0,0,0,,,,,,,899.7005735002458,None,900.8732047006488,None,901.8707654010504,None,l,1,0.37071469984948635,901.8707654010504,None,None,None,,,,,,,5,24,female,5,2022_May_05_1137,Partial repeat,2021.2.3,59.89042459301672,
6,6,0,1,3,2,1,2,0,1,0,0,0,1,0,0,95,95,95,1,0,1,0,,,,,,,,,902.267286600545,None,903.2233981993049,None,l,0,0.49002240039408207,903.2233981993049,None,903.7280329000205,None,,,,,,,5,24,female,5,2022_May_05_1137,Partial repeat,2021.2.3,59.89042459301672,
6,6,0,1,3,2,1,2,0,1,0,0,0,1,0,0,95,95,95,,,,,,,,,,,,,,,,,,,,,,,,,,,,,,5,24,female,5,2022_May_05_1137,Partial repeat,2021.2.3,59.89042459301672,
6,6,0,1,3,2,2,1,0,0,0,0,1,1,0,0,96,96,96,0,0,0,0,,,,,,,904.2298594992608,None,904.6805955003947,None,905.4281035009772,None,l,1,0.4453694000840187,905.4281035009772,None,None,None,,,,,,,5,24,female,5,2022_May_05_1137,Partial repeat,2021.2.3,59.89042459301672,
6,6,0,1,3,2,2,1,0,0,0,0,1,1,0,0,96,96,96,1,0,1,0,,,,,,,,,905.8855863008648,None,906.8302788995206,None,l,1,0.4192687012255192,906.8302788995206,None,None,None,,,,,,,5,24,female,5,2022_May_05_1137,Partial repeat,2021.2.3,59.89042459301672,
6,6,0,1,3,2,2,1,0,0,0,0,1,1,0,0,96,96,96,,,,,,,,,,,,,,,,,,,,,,,,,,,,,,5,24,female,5,2022_May_05_1137,Partial repeat,2021.2.3,59.89042459301672,
6,6,0,1,3,3,2,2,1,0,1,1,0,1,0,0,97,97,97,0,0,0,0,,,,,,,907.2680306993425,None,907.7031414993107,None,908.4838548004627,None,s,1,0.4457341004163027,908.4838548004627,None,None,None,,,,,,,5,24,female,5,2022_May_05_1137,Partial repeat,2021.2.3,59.89042459301672,
6,6,0,1,3,3,2,2,1,0,1,1,0,1,0,0,97,97,97,1,0,1,0,,,,,,,,,908.940130000934,None,909.8531880006194,None,l,1,0.48436110094189644,909.8531880006194,None,None,None,,,,,,,5,24,female,5,2022_May_05_1137,Partial repeat,2021.2.3,59.89042459301672,
6,6,0,1,3,3,2,2,1,0,1,1,0,1,0,0,97,97,97,,,,,,,,,,,,,,,,,,,,,,,,,,,,,,5,24,female,5,2022_May_05_1137,Partial repeat,2021.2.3,59.89042459301672,
6,6,0,1,2,2,2,1,0,0,1,0,1,1,0,0,98,98,98,0,0,0,0,,,,,,,910.363533500582,None,910.742360400036,None,911.7401219997555,None,l,1,0.4613559003919363,911.7401219997555,None,None,None,,,,,,,5,24,female,5,2022_May_05_1137,Partial repeat,2021.2.3,59.89042459301672,
6,6,0,1,2,2,2,1,0,0,1,0,1,1,0,0,98,98,98,1,0,1,0,,,,,,,,,912.2211732994765,None,912.9926012996584,None,l,1,0.4328386001288891,912.9926012996584,None,None,None,,,,,,,5,24,female,5,2022_May_05_1137,Partial repeat,2021.2.3,59.89042459301672,
6,6,0,1,2,2,2,1,0,0,1,0,1,1,0,0,98,98,98,,,,,,,,,,,,,,,,,,,,,,,,,,,,,,5,24,female,5,2022_May_05_1137,Partial repeat,2021.2.3,59.89042459301672,
6,6,0,1,3,3,1,1,0,1,1,1,0,1,0,0,99,99,99,0,0,0,0,,,,,,,913.4505145996809,None,913.915309600532,None,914.6457984000444,None,l,1,0.4997246991842985,914.6457984000444,None,None,None,,,,,,,5,24,female,5,2022_May_05_1137,Partial repeat,2021.2.3,59.89042459301672,
6,6,0,1,3,3,1,1,0,1,1,1,0,1,0,0,99,99,99,1,0,1,0,,,,,,,,,915.1664471998811,None,916.1150458995253,None,s,1,0.47037109918892384,916.1150458995253,None,None,None,,,,,,,5,24,female,5,2022_May_05_1137,Partial repeat,2021.2.3,59.89042459301672,
6,6,0,1,3,3,1,1,0,1,1,1,0,1,0,0,99,99,99,,,,,,,,,,,,,,,,,,,,,,,,,,,,,,5,24,female,5,2022_May_05_1137,Partial repeat,2021.2.3,59.89042459301672,
6,6,0,1,3,3,1,2,0,1,1,0,0,1,0,0,100,100,100,0,0,0,0,,,,,,,916.604658100754,None,917.0880875997245,None,917.8687503002584,None,l,1,0.4687172994017601,917.8687503002584,None,None,None,,,,,,,5,24,female,5,2022_May_05_1137,Partial repeat,2021.2.3,59.89042459301672,
6,6,0,1,3,3,1,2,0,1,1,0,0,1,0,0,100,100,100,1,0,1,0,,,,,,,,,918.3468709010631,None,919.2547267004848,None,s,1,0.514665599912405,919.2547267004848,None,None,None,,,,,,,5,24,female,5,2022_May_05_1137,Partial repeat,2021.2.3,59.89042459301672,
6,6,0,1,3,3,1,2,0,1,1,0,0,1,0,0,100,100,100,,,,,,,,,,,,,,,,,,,,,,,,,,,,,,5,24,female,5,2022_May_05_1137,Partial repeat,2021.2.3,59.89042459301672,
6,6,0,1,3,2,2,1,1,1,0,0,1,1,0,0,101,101,101,0,0,0,0,,,,,,,919.7835367005318,None,920.2108868006617,None,921.042771300301,None,s,1,0.5748347006738186,921.042771300301,None,None,None,,,,,,,5,24,female,5,2022_May_05_1137,Partial repeat,2021.2.3,59.89042459301672,
6,6,0,1,3,2,2,1,1,1,0,0,1,1,0,0,101,101,101,1,0,1,0,,,,,,,,,921.6291381996125,None,922.4285891000181,None,s,1,0.4928917996585369,922.4285891000181,None,None,None,,,,,,,5,24,female,5,2022_May_05_1137,Partial repeat,2021.2.3,59.89042459301672,
6,6,0,1,3,2,2,1,1,1,0,0,1,1,0,0,101,101,101,,,,,,,,,,,,,,,,,,,,,,,,,,,,,,5,24,female,5,2022_May_05_1137,Partial repeat,2021.2.3,59.89042459301672,
6,6,0,1,3,3,2,1,0,0,1,0,1,1,0,0,102,102,102,0,0,0,0,,,,,,,922.9513859003782,None,923.4170427005738,None,924.2308744993061,None,l,1,0.4986678995192051,924.2308744993061,None,None,None,,,,,,,5,24,female,5,2022_May_05_1137,Partial repeat,2021.2.3,59.89042459301672,
6,6,0,1,3,3,2,1,0,0,1,0,1,1,0,0,102,102,102,1,0,1,0,,,,,,,,,924.7546804007143,None,925.6504584997892,None,l,1,0.6950170993804932,925.6504584997892,None,None,None,,,,,,,5,24,female,5,2022_May_05_1137,Partial repeat,2021.2.3,59.89042459301672,
6,6,0,1,3,3,2,1,0,0,1,0,1,1,0,0,102,102,102,,,,,,,,,,,,,,,,,,,,,,,,,,,,,,5,24,female,5,2022_May_05_1137,Partial repeat,2021.2.3,59.89042459301672,
6,6,0,1,2,2,1,1,1,0,1,1,0,1,0,0,103,103,103,0,0,0,0,,,,,,,926.369315199554,None,926.8404697999358,None,927.6878360006958,None,s,1,0.4575816001743078,927.6878360006958,None,None,None,,,,,,,5,24,female,5,2022_May_05_1137,Partial repeat,2021.2.3,59.89042459301672,
6,6,0,1,2,2,1,1,1,0,1,1,0,1,0,0,103,103,103,1,0,1,0,,,,,,,,,928.1664640009403,None,929.0403832998127,None,l,1,0.5130939986556768,929.0403832998127,None,None,None,,,,,,,5,24,female,5,2022_May_05_1137,Partial repeat,2021.2.3,59.89042459301672,
6,6,0,1,2,2,1,1,1,0,1,1,0,1,0,0,103,103,103,,,,,,,,,,,,,,,,,,,,,,,,,,,,,,5,24,female,5,2022_May_05_1137,Partial repeat,2021.2.3,59.89042459301672,
6,6,0,1,3,2,2,2,1,1,0,1,1,1,0,0,104,104,104,0,0,0,0,,,,,,,929.5797112993896,None,930.1134572997689,None,931.0775520000607,None,s,1,0.6119244005531073,931.0775520000607,None,None,None,,,,,,,5,24,female,5,2022_May_05_1137,Partial repeat,2021.2.3,59.89042459301672,
6,6,0,1,3,2,2,2,1,1,0,1,1,1,0,0,104,104,104,1,0,1,0,,,,,,,,,931.7070869002491,None,932.6809414997697,None,s,1,0.38474650122225285,932.6809414997697,None,None,None,,,,,,,5,24,female,5,2022_May_05_1137,Partial repeat,2021.2.3,59.89042459301672,
6,6,0,1,3,2,2,2,1,1,0,1,1,1,0,0,104,104,104,,,,,,,,,,,,,,,,,,,,,,,,,,,,,,5,24,female,5,2022_May_05_1137,Partial repeat,2021.2.3,59.89042459301672,
6,6,0,1,2,3,1,2,1,0,0,0,0,1,0,0,105,105,105,0,0,0,0,,,,,,,933.0963966995478,None,933.6871365010738,None,934.651525400579,None,s,1,0.7979521993547678,934.651525400579,None,None,None,,,,,,,5,24,female,5,2022_May_05_1137,Partial repeat,2021.2.3,59.89042459301672,
6,6,0,1,2,3,1,2,1,0,0,0,0,1,0,0,105,105,105,1,0,1,0,,,,,,,,,935.4694139007479,None,936.388079399243,None,l,1,0.45331319980323315,936.388079399243,None,None,None,,,,,,,5,24,female,5,2022_May_05_1137,Partial repeat,2021.2.3,59.89042459301672,
6,6,0,1,2,3,1,2,1,0,0,0,0,1,0,0,105,105,105,,,,,,,,,,,,,,,,,,,,,,,,,,,,,,5,24,female,5,2022_May_05_1137,Partial repeat,2021.2.3,59.89042459301672,
6,6,0,1,2,3,1,1,0,1,0,1,0,1,0,0,106,106,106,0,0,0,0,,,,,,,936.8720200005919,None,937.461086999625,None,938.3249430004507,None,l,1,0.46053219959139824,938.3249430004507,None,None,None,,,,,,,5,24,female,5,2022_May_05_1137,Partial repeat,2021.2.3,59.89042459301672,
6,6,0,1,2,3,1,1,0,1,0,1,0,1,0,0,106,106,106,1,0,1,0,,,,,,,,,938.8058669995517,None,939.7445227000862,None,s,1,0.47297259978950024,939.7445227000862,None,None,None,,,,,,,5,24,female,5,2022_May_05_1137,Partial repeat,2021.2.3,59.89042459301672,
6,6,0,1,2,3,1,1,0,1,0,1,0,1,0,0,106,106,106,,,,,,,,,,,,,,,,,,,,,,,,,,,,,,5,24,female,5,2022_May_05_1137,Partial repeat,2021.2.3,59.89042459301672,
6,6,0,1,2,3,1,1,1,1,0,1,1,1,0,0,107,107,107,0,0,0,0,,,,,,,940.2289655003697,None,940.6673224009573,None,941.4815724994987,None,s,1,0.391872800886631,941.4815724994987,None,None,None,,,,,,,5,24,female,5,2022_May_05_1137,Partial repeat,2021.2.3,59.89042459301672,
6,6,0,1,2,3,1,1,1,1,0,1,1,1,0,0,107,107,107,1,0,1,0,,,,,,,,,941.8946387004107,None,942.8340905997902,None,s,1,0.43933960050344467,942.8340905997902,None,None,None,,,,,,,5,24,female,5,2022_May_05_1137,Partial repeat,2021.2.3,59.89042459301672,
6,6,0,1,2,3,1,1,1,1,0,1,1,1,0,0,107,107,107,,,,,,,,,,,,,,,,,,,,,,,,,,,,,,5,24,female,5,2022_May_05_1137,Partial repeat,2021.2.3,59.89042459301672,
6,6,0,1,2,2,2,1,1,0,1,0,0,1,0,0,108,108,108,0,0,0,0,,,,,,,943.29692029953,None,943.7065789997578,None,944.5208749007434,None,s,1,0.40060059912502766,944.5208749007434,None,None,None,,,,,,,5,24,female,5,2022_May_05_1137,Partial repeat,2021.2.3,59.89042459301672,
6,6,0,1,2,2,2,1,1,0,1,0,0,1,0,0,108,108,108,1,0,1,0,,,,,,,,,944.9349437002093,None,945.7409374006093,None,l,1,0.5485156998038292,945.7409374006093,None,None,None,,,,,,,5,24,female,5,2022_May_05_1137,Partial repeat,2021.2.3,59.89042459301672,
6,6,0,1,2,2,2,1,1,0,1,0,0,1,0,0,108,108,108,,,,,,,,,,,,,,,,,,,,,,,,,,,,,,5,24,female,5,2022_May_05_1137,Partial repeat,2021.2.3,59.89042459301672,
6,6,0,1,2,2,2,2,1,0,1,1,0,1,0,0,109,109,109,0,0,0,0,,,,,,,946.3040046002716,None,946.7458209004253,None,947.6614270005375,None,l,0,0.4360527005046606,947.6614270005375,None,948.1222271006554,None,,,,,,,5,24,female,5,2022_May_05_1137,Partial repeat,2021.2.3,59.89042459301672,
6,6,0,1,2,2,2,2,1,0,1,1,0,1,0,0,109,109,109,1,0,1,0,,,,,,,,,948.6328234001994,None,949.5465957000852,None,l,1,0.4309864994138479,949.5465957000852,None,None,None,,,,,,,5,24,female,5,2022_May_05_1137,Partial repeat,2021.2.3,59.89042459301672,
6,6,0,1,2,2,2,2,1,0,1,1,0,1,0,0,109,109,109,,,,,,,,,,,,,,,,,,,,,,,,,,,,,,5,24,female,5,2022_May_05_1137,Partial repeat,2021.2.3,59.89042459301672,
6,6,0,1,3,3,1,1,1,1,1,1,1,1,0,0,110,110,110,0,0,0,0,,,,,,,950.007810600102,None,950.3862378001213,None,951.335155999288,None,s,1,0.6102889999747276,951.335155999288,None,None,None,,,,,,,5,24,female,5,2022_May_05_1137,Partial repeat,2021.2.3,59.89042459301672,
6,6,0,1,3,3,1,1,1,1,1,1,1,1,0,0,110,110,110,1,0,1,0,,,,,,,,,951.9625451005995,None,952.9204028006643,None,s,1,0.47325210087001324,952.9204028006643,None,None,None,,,,,,,5,24,female,5,2022_May_05_1137,Partial repeat,2021.2.3,59.89042459301672,
6,6,0,1,3,3,1,1,1,1,1,1,1,1,0,0,110,110,110,,,,,,,,,,,,,,,,,,,,,,,,,,,,,,5,24,female,5,2022_May_05_1137,Partial repeat,2021.2.3,59.89042459301672,
6,6,0,1,3,3,1,2,1,0,1,0,0,1,0,0,111,111,111,0,0,0,0,,,,,,,953.4236670006067,None,953.876361200586,None,954.7909271996468,None,s,1,0.45849990099668503,954.7909271996468,None,None,None,,,,,,,5,24,female,5,2022_May_05_1137,Partial repeat,2021.2.3,59.89042459301672,
6,6,0,1,3,3,1,2,1,0,1,0,0,1,0,0,111,111,111,1,0,1,0,,,,,,,,,955.270761501044,None,956.2431974001229,None,l,1,0.5023221001029015,956.2431974001229,None,None,None,,,,,,,5,24,female,5,2022_May_05_1137,Partial repeat,2021.2.3,59.89042459301672,
6,6,0,1,3,3,1,2,1,0,1,0,0,1,0,0,111,111,111,,,,,,,,,,,,,,,,,,,,,,,,,,,,,,5,24,female,5,2022_May_05_1137,Partial repeat,2021.2.3,59.89042459301672,
6,6,0,1,3,2,1,2,1,0,0,0,0,1,0,0,112,112,112,0,0,0,0,,,,,,,956.7747013010085,None,957.2328909002244,None,957.9798661004752,None,s,1,0.46959640085697174,957.9798661004752,None,None,None,,,,,,,5,24,female,5,2022_May_05_1137,Partial repeat,2021.2.3,59.89042459301672,
6,6,0,1,3,2,1,2,1,0,0,0,0,1,0,0,112,112,112,1,0,1,0,,,,,,,,,958.4618587009609,None,959.2163281999528,None,l,1,0.7531681004911661,959.2163281999528,None,None,None,,,,,,,5,24,female,5,2022_May_05_1137,Partial repeat,2021.2.3,59.89042459301672,
6,6,0,1,3,2,1,2,1,0,0,0,0,1,0,0,112,112,112,,,,,,,,,,,,,,,,,,,,,,,,,,,,,,5,24,female,5,2022_May_05_1137,Partial repeat,2021.2.3,59.89042459301672,
6,6,0,1,2,3,1,1,1,0,0,1,0,1,0,0,113,113,113,0,0,0,0,,,,,,,959.9982896000147,None,960.4891836997122,None,961.2866667993367,None,s,1,0.5308064986020327,961.2866667993367,None,None,None,,,,,,,5,24,female,5,2022_May_05_1137,Partial repeat,2021.2.3,59.89042459301672,
6,6,0,1,2,3,1,1,1,0,0,1,0,1,0,0,113,113,113,1,0,1,0,,,,,,,,,961.829329200089,None,962.639124000445,None,l,1,0.8343109004199505,962.639124000445,None,None,None,,,,,,,5,24,female,5,2022_May_05_1137,Partial repeat,2021.2.3,59.89042459301672,
6,6,0,1,2,3,1,1,1,0,0,1,0,1,0,0,113,113,113,,,,,,,,,,,,,,,,,,,,,,,,,,,,,,5,24,female,5,2022_May_05_1137,Partial repeat,2021.2.3,59.89042459301672,
6,6,0,1,3,3,2,2,1,1,1,1,1,1,0,0,114,114,114,0,0,0,0,,,,,,,963.4880021009594,None,963.9125759005547,None,964.8936889003962,None,s,1,0.5077801998704672,964.8936889003962,None,None,None,,,,,,,5,24,female,5,2022_May_05_1137,Partial repeat,2021.2.3,59.89042459301672,
6,6,0,1,3,3,2,2,1,1,1,1,1,1,0,0,114,114,114,1,0,1,0,,,,,,,,,965.4143695998937,None,966.2294784002006,None,s,1,0.5478908997029066,966.2294784002006,None,None,None,,,,,,,5,24,female,5,2022_May_05_1137,Partial repeat,2021.2.3,59.89042459301672,
6,6,0,1,3,3,2,2,1,1,1,1,1,1,0,0,114,114,114,,,,,,,,,,,,,,,,,,,,,,,,,,,,,,5,24,female,5,2022_May_05_1137,Partial repeat,2021.2.3,59.89042459301672,
6,6,0,1,3,2,1,2,0,0,0,0,1,1,0,0,115,115,115,0,0,0,0,,,,,,,966.7973341997713,None,967.3025155998766,None,968.117513500154,None,l,1,0.747919799759984,968.117513500154,None,None,None,,,,,,,5,24,female,5,2022_May_05_1137,Partial repeat,2021.2.3,59.89042459301672,
6,6,0,1,3,2,1,2,0,0,0,0,1,1,0,0,115,115,115,1,0,1,0,,,,,,,,,968.8781988006085,None,969.6194326002151,None,l,1,0.4460381995886564,969.6194326002151,None,None,None,,,,,,,5,24,female,5,2022_May_05_1137,Partial repeat,2021.2.3,59.89042459301672,
6,6,0,1,3,2,1,2,0,0,0,0,1,1,0,0,115,115,115,,,,,,,,,,,,,,,,,,,,,,,,,,,,,,5,24,female,5,2022_May_05_1137,Partial repeat,2021.2.3,59.89042459301672,
6,6,0,1,2,3,1,2,1,1,0,0,1,1,0,0,116,116,116,0,0,0,0,,,,,,,970.0893779005855,None,970.5588463004678,None,971.3907308001071,None,s,1,0.4907427001744509,971.3907308001071,None,None,None,,,,,,,5,24,female,5,2022_May_05_1137,Partial repeat,2021.2.3,59.89042459301672,
6,6,0,1,2,3,1,2,1,1,0,0,1,1,0,0,116,116,116,1,0,1,0,,,,,,,,,971.8953623995185,None,972.7255445998162,None,s,1,0.5718836989253759,972.7255445998162,None,None,None,,,,,,,5,24,female,5,2022_May_05_1137,Partial repeat,2021.2.3,59.89042459301672,
6,6,0,1,2,3,1,2,1,1,0,0,1,1,0,0,116,116,116,,,,,,,,,,,,,,,,,,,,,,,,,,,,,,5,24,female,5,2022_May_05_1137,Partial repeat,2021.2.3,59.89042459301672,
6,6,0,1,2,2,2,1,0,1,1,0,0,1,0,0,117,117,117,0,0,0,0,,,,,,,973.3137154001743,None,973.7483508996665,None,974.7291918992996,None,l,1,0.4082845002412796,974.7291918992996,None,None,None,,,,,,,5,24,female,5,2022_May_05_1137,Partial repeat,2021.2.3,59.89042459301672,
6,6,0,1,2,2,2,1,0,1,1,0,0,1,0,0,117,117,117,1,0,1,0,,,,,,,,,975.1638596002012,None,976.0819694008678,None,s,1,0.5995912998914719,976.0819694008678,None,None,None,,,,,,,5,24,female,5,2022_May_05_1137,Partial repeat,2021.2.3,59.89042459301672,
6,6,0,1,2,2,2,1,0,1,1,0,0,1,0,0,117,117,117,,,,,,,,,,,,,,,,,,,,,,,,,,,,,,5,24,female,5,2022_May_05_1137,Partial repeat,2021.2.3,59.89042459301672,
6,6,0,1,3,3,2,2,0,0,1,1,1,1,0,0,118,118,118,0,0,0,0,,,,,,,976.6927873995155,None,977.1716457009315,None,977.9688498005271,None,l,1,0.6886199004948139,977.9688498005271,None,None,None,,,,,,,5,24,female,5,2022_May_05_1137,Partial repeat,2021.2.3,59.89042459301672,
6,6,0,1,3,3,2,2,0,0,1,1,1,1,0,0,118,118,118,1,0,1,0,,,,,,,,,978.6840234007686,None,979.4719249997288,None,l,1,0.4094856008887291,979.4719249997288,None,None,None,,,,,,,5,24,female,5,2022_May_05_1137,Partial repeat,2021.2.3,59.89042459301672,
6,6,0,1,3,3,2,2,0,0,1,1,1,1,0,0,118,118,118,,,,,,,,,,,,,,,,,,,,,,,,,,,,,,5,24,female,5,2022_May_05_1137,Partial repeat,2021.2.3,59.89042459301672,
6,6,0,1,3,3,1,2,1,1,1,0,1,1,0,0,119,119,119,0,0,0,0,,,,,,,979.9100311007351,None,980.361256999895,None,981.1595597993582,None,s,1,0.45791550166904926,981.1595597993582,None,None,None,,,,,,,5,24,female,5,2022_May_05_1137,Partial repeat,2021.2.3,59.89042459301672,
6,6,0,1,3,3,1,2,1,1,1,0,1,1,0,0,119,119,119,1,0,1,0,,,,,,,,,981.6397440992296,None,982.5443945992738,None,s,1,0.537075100466609,982.5443945992738,None,None,None,,,,,,,5,24,female,5,2022_May_05_1137,Partial repeat,2021.2.3,59.89042459301672,
6,6,0,1,3,3,1,2,1,1,1,0,1,1,0,0,119,119,119,,,,,,,,,,,,,,,,,,,,,,,,,,,,,,5,24,female,5,2022_May_05_1137,Partial repeat,2021.2.3,59.89042459301672,
6,6,0,1,3,2,2,2,0,0,0,1,1,1,0,0,120,120,120,0,0,0,0,,,,,,,983.0970332007855,None,983.5507459994406,None,984.3983292002231,None,l,1,0.4671408999711275,984.3983292002231,None,None,None,,,,,,,5,24,female,5,2022_May_05_1137,Partial repeat,2021.2.3,59.89042459301672,
6,6,0,1,3,2,2,2,0,0,0,1,1,1,0,0,120,120,120,1,0,1,0,,,,,,,,,984.8819917999208,None,985.6502583995461,None,l,1,0.5353718996047974,985.6502583995461,None,None,None,,,,,,,5,24,female,5,2022_May_05_1137,Partial repeat,2021.2.3,59.89042459301672,
6,6,0,1,3,2,2,2,0,0,0,1,1,1,0,0,120,120,120,,,,,,,,,,,,,,,,,,,,,,,,,,,,,,5,24,female,5,2022_May_05_1137,Partial repeat,2021.2.3,59.89042459301672,
6,6,0,1,3,2,2,1,1,0,0,0,0,1,0,0,121,121,121,0,0,0,0,,,,,,,986.1986570004374,None,986.8571795001626,None,987.8212452996522,None,s,1,0.44417869858443737,987.8212452996522,None,None,None,,,,,,,5,24,female,5,2022_May_05_1137,Partial repeat,2021.2.3,59.89042459301672,
6,6,0,1,3,2,2,1,1,0,0,0,0,1,0,0,121,121,121,1,0,1,0,,,,,,,,,988.2815065998584,None,989.1077348999679,None,l,1,0.5817162990570068,989.1077348999679,None,None,None,,,,,,,5,24,female,5,2022_May_05_1137,Partial repeat,2021.2.3,59.89042459301672,
6,6,0,1,3,2,2,1,1,0,0,0,0,1,0,0,121,121,121,,,,,,,,,,,,,,,,,,,,,,,,,,,,,,5,24,female,5,2022_May_05_1137,Partial repeat,2021.2.3,59.89042459301672,
6,6,0,1,3,2,2,2,0,1,0,1,0,1,0,0,122,122,122,0,0,0,0,,,,,,,989.7207721993327,None,990.1636504009366,None,991.0452804006636,None,l,1,0.4522101990878582,991.0452804006636,None,None,None,,,,,,,5,24,female,5,2022_May_05_1137,Partial repeat,2021.2.3,59.89042459301672,
6,6,0,1,3,2,2,2,0,1,0,1,0,1,0,0,122,122,122,1,0,1,0,,,,,,,,,991.5254577007145,None,992.5474386010319,None,s,1,0.47803219966590405,992.5474386010319,None,None,None,,,,,,,5,24,female,5,2022_May_05_1137,Partial repeat,2021.2.3,59.89042459301672,
6,6,0,1,3,2,2,2,0,1,0,1,0,1,0,0,122,122,122,,,,,,,,,,,,,,,,,,,,,,,,,,,,,,5,24,female,5,2022_May_05_1137,Partial repeat,2021.2.3,59.89042459301672,
6,6,0,1,3,2,1,1,1,0,0,1,0,1,0,0,123,123,123,0,0,0,0,,,,,,,993.0362001992762,None,993.4700325001031,None,994.4355737008154,None,s,1,0.42990569956600666,994.4355737008154,None,None,None,,,,,,,5,24,female,5,2022_May_05_1137,Partial repeat,2021.2.3,59.89042459301672,
6,6,0,1,3,2,1,1,1,0,0,1,0,1,0,0,123,123,123,1,0,1,0,,,,,,,,,994.8922272007912,None,995.8546277992427,None,l,1,0.3869295008480549,995.8546277992427,None,None,None,,,,,,,5,24,female,5,2022_May_05_1137,Partial repeat,2021.2.3,59.89042459301672,
6,6,0,1,3,2,1,1,1,0,0,1,0,1,0,0,123,123,123,,,,,,,,,,,,,,,,,,,,,,,,,,,,,,5,24,female,5,2022_May_05_1137,Partial repeat,2021.2.3,59.89042459301672,
6,6,0,1,3,2,2,1,0,1,0,0,0,1,0,0,124,124,124,0,0,0,0,,,,,,,996.2538972999901,None,996.6763173006475,None,997.5736037008464,None,l,1,0.46786440163850784,997.5736037008464,None,None,None,,,,,,,5,24,female,5,2022_May_05_1137,Partial repeat,2021.2.3,59.89042459301672,
6,6,0,1,3,2,2,1,0,1,0,0,0,1,0,0,124,124,124,1,0,1,0,,,,,,,,,998.0538339000195,None,998.9094906002283,None,s,1,0.5000315997749567,998.9094906002283,None,None,None,,,,,,,5,24,female,5,2022_May_05_1137,Partial repeat,2021.2.3,59.89042459301672,
6,6,0,1,3,2,2,1,0,1,0,0,0,1,0,0,124,124,124,,,,,,,,,,,,,,,,,,,,,,,,,,,,,,5,24,female,5,2022_May_05_1137,Partial repeat,2021.2.3,59.89042459301672,
6,6,0,1,3,2,1,1,1,1,0,1,1,1,0,0,125,125,125,0,0,0,0,,,,,,,999.4382642004639,None,999.8658419009298,None,1000.7466647997499,None,s,1,0.44676570035517216,1000.7466647997499,None,None,None,,,,,,,5,24,female,5,2022_May_05_1137,Partial repeat,2021.2.3,59.89042459301672,
6,6,0,1,3,2,1,1,1,1,0,1,1,1,0,0,125,125,125,1,0,1,0,,,,,,,,,1001.2106350008398,None,1002.1992256008089,None,s,1,0.53830729983747,1002.1992256008089,None,None,None,,,,,,,5,24,female,5,2022_May_05_1137,Partial repeat,2021.2.3,59.89042459301672,
6,6,0,1,3,2,1,1,1,1,0,1,1,1,0,0,125,125,125,,,,,,,,,,,,,,,,,,,,,,,,,,,,,,5,24,female,5,2022_May_05_1137,Partial repeat,2021.2.3,59.89042459301672,
6,6,0,1,3,3,1,1,1,0,1,1,0,1,0,0,126,126,126,0,0,0,0,,,,,,,1002.7500980999321,None,1003.255720499903,None,1004.2210630998015,None,l,0,0.41240609996020794,1004.2210630998015,None,1004.6546308994293,None,,,,,,,5,24,female,5,2022_May_05_1137,Partial repeat,2021.2.3,59.89042459301672,
6,6,0,1,3,3,1,1,1,0,1,1,0,1,0,0,126,126,126,1,0,1,0,,,,,,,,,1005.1595085002482,None,1006.1736840009689,None,l,1,0.47579080052673817,1006.1736840009689,None,None,None,,,,,,,5,24,female,5,2022_May_05_1137,Partial repeat,2021.2.3,59.89042459301672,
6,6,0,1,3,3,1,1,1,0,1,1,0,1,0,0,126,126,126,,,,,,,,,,,,,,,,,,,,,,,,,,,,,,5,24,female,5,2022_May_05_1137,Partial repeat,2021.2.3,59.89042459301672,
6,6,0,1,2,2,2,1,1,1,1,0,1,1,0,0,127,127,127,0,0,0,0,,,,,,,1006.6801162008196,None,1007.0799054000527,None,1007.9938635993749,None,s,1,0.49556849896907806,1007.9938635993749,None,None,None,,,,,,,5,24,female,5,2022_May_05_1137,Partial repeat,2021.2.3,59.89042459301672,
6,6,0,1,2,2,2,1,1,1,1,0,1,1,0,0,127,127,127,1,0,1,0,,,,,,,,,1008.5131334997714,None,1009.3639912996441,None,s,1,0.4214391987770796,1009.3639912996441,None,None,None,,,,,,,5,24,female,5,2022_May_05_1137,Partial repeat,2021.2.3,59.89042459301672,
6,6,0,1,2,2,2,1,1,1,1,0,1,1,0,0,127,127,127,,,,,,,,,,,,,,,,,,,,,,,,,,,,,,5,24,female,5,2022_May_05_1137,Partial repeat,2021.2.3,59.89042459301672,
8,1,0,1,3,2,1,1,1,1,0,1,1,0,0,0,128,128,128,0,0,0,0,,,,,,,1011.2972593009472,None,1012.0896786004305,None,1012.8877421002835,None,s,1,0.6656998004764318,1012.8877421002835,None,None,None,,,,,,,5,24,female,5,2022_May_05_1137,Partial repeat,2021.2.3,59.89042459301672,
8,1,0,1,3,2,1,1,1,1,0,1,1,0,0,0,128,128,128,1,0,1,0,,,,,,,,,1013.5698766000569,None,1014.5236333999783,None,s,1,0.7899187989532948,1014.5236333999783,None,None,None,,,,,,,5,24,female,5,2022_May_05_1137,Partial repeat,2021.2.3,59.89042459301672,
8,1,0,1,3,2,1,1,1,1,0,1,1,0,0,0,128,128,128,,,,,,,,,,,,,,,,,,,,,,,,,,,,,,5,24,female,5,2022_May_05_1137,Partial repeat,2021.2.3,59.89042459301672,
1,8,0,1,2,3,1,1,0,0,0,1,1,0,0,0,129,129,129,0,0,0,0,,,,,,,1015.3267650995404,None,1015.9471342004836,None,1016.7277729008347,None,l,1,0.7056537996977568,1016.7277729008347,None,None,None,,,,,,,5,24,female,5,2022_May_05_1137,Partial repeat,2021.2.3,59.89042459301672,
1,8,0,1,2,3,1,1,0,0,0,1,1,0,0,0,129,129,129,1,0,1,0,,,,,,,,,1017.4456115998328,None,1018.2808059006929,None,l,1,0.640659399330616,1018.2808059006929,None,None,None,,,,,,,5,24,female,5,2022_May_05_1137,Partial repeat,2021.2.3,59.89042459301672,
1,8,0,1,2,3,1,1,0,0,0,1,1,0,0,0,129,129,129,,,,,,,,,,,,,,,,,,,,,,,,,,,,,,5,24,female,5,2022_May_05_1137,Partial repeat,2021.2.3,59.89042459301672,
3,4,0,1,2,3,1,1,1,0,0,1,0,0,0,0,130,130,130,0,0,0,0,,,,,,,1018.9359690994024,None,1019.2869870997965,None,1020.2354301009327,None,s,1,0.9020837992429733,1020.2354301009327,None,None,None,,,,,,,5,24,female,5,2022_May_05_1137,Partial repeat,2021.2.3,59.89042459301672,
3,4,0,1,2,3,1,1,1,0,0,1,0,0,0,0,130,130,130,1,0,1,0,,,,,,,,,1021.165863500908,None,1022.0379166994244,None,l,1,0.6436234004795551,1022.0379166994244,None,None,None,,,,,,,5,24,female,5,2022_May_05_1137,Partial repeat,2021.2.3,59.89042459301672,
3,4,0,1,2,3,1,1,1,0,0,1,0,0,0,0,130,130,130,,,,,,,,,,,,,,,,,,,,,,,,,,,,,,5,24,female,5,2022_May_05_1137,Partial repeat,2021.2.3,59.89042459301672,
4,7,0,1,2,2,1,1,1,0,1,1,0,0,0,0,131,131,131,0,0,0,0,,,,,,,1022.6945716999471,None,1023.0610182005912,None,1023.8747962005436,None,s,1,0.638721501454711,1023.8747962005436,None,None,None,,,,,,,5,24,female,5,2022_May_05_1137,Partial repeat,2021.2.3,59.89042459301672,
4,7,0,1,2,2,1,1,1,0,1,1,0,0,0,0,131,131,131,1,0,1,0,,,,,,,,,1024.5221423003823,None,1025.478228200227,None,l,1,0.5952017996460199,1025.478228200227,None,None,None,,,,,,,5,24,female,5,2022_May_05_1137,Partial repeat,2021.2.3,59.89042459301672,
4,7,0,1,2,2,1,1,1,0,1,1,0,0,0,0,131,131,131,,,,,,,,,,,,,,,,,,,,,,,,,,,,,,5,24,female,5,2022_May_05_1137,Partial repeat,2021.2.3,59.89042459301672,
2,7,0,1,2,2,2,1,0,0,1,0,1,0,0,0,132,132,132,0,0,0,0,,,,,,,1026.0938253998756,None,1026.500960599631,None,1027.4984578993171,None,l,1,0.7350540012121201,1027.4984578993171,None,None,None,,,,,,,5,24,female,5,2022_May_05_1137,Partial repeat,2021.2.3,59.89042459301672,
2,7,0,1,2,2,2,1,0,0,1,0,1,0,0,0,132,132,132,1,0,1,0,,,,,,,,,1028.2508042994887,None,1029.0184108000249,None,l,1,0.695082601159811,1029.0184108000249,None,None,None,,,,,,,5,24,female,5,2022_May_05_1137,Partial repeat,2021.2.3,59.89042459301672,
2,7,0,1,2,2,2,1,0,0,1,0,1,0,0,0,132,132,132,,,,,,,,,,,,,,,,,,,,,,,,,,,,,,5,24,female,5,2022_May_05_1137,Partial repeat,2021.2.3,59.89042459301672,
4,6,0,1,2,2,2,1,1,1,1,0,1,0,0,0,133,133,133,0,0,0,0,,,,,,,1029.7444442994893,None,1030.1747446004301,None,1031.0052747000009,None,s,1,0.5721538010984659,1031.0052747000009,None,None,None,,,,,,,5,24,female,5,2022_May_05_1137,Partial repeat,2021.2.3,59.89042459301672,
4,6,0,1,2,2,2,1,1,1,1,0,1,0,0,0,133,133,133,1,0,1,0,,,,,,,,,1031.5906201004982,None,1032.325315900147,None,s,1,0.5481161009520292,1032.325315900147,None,None,None,,,,,,,5,24,female,5,2022_May_05_1137,Partial repeat,2021.2.3,59.89042459301672,
4,6,0,1,2,2,2,1,1,1,1,0,1,0,0,0,133,133,133,,,,,,,,,,,,,,,,,,,,,,,,,,,,,,5,24,female,5,2022_May_05_1137,Partial repeat,2021.2.3,59.89042459301672,
5,5,0,1,3,3,1,1,0,0,1,1,1,0,0,0,134,134,134,0,0,0,0,,,,,,,1032.892398500815,None,1033.2475067004561,None,1034.229072600603,None,l,1,0.5643777996301651,1034.229072600603,None,None,None,,,,,,,5,24,female,5,2022_May_05_1137,Partial repeat,2021.2.3,59.89042459301672,
5,5,0,1,3,3,1,1,0,0,1,1,1,0,0,0,134,134,134,1,0,1,0,,,,,,,,,1034.8137133009732,None,1035.7145592998713,None,l,1,0.49494659900665283,1035.7145592998713,None,None,None,,,,,,,5,24,female,5,2022_May_05_1137,Partial repeat,2021.2.3,59.89042459301672,
5,5,0,1,3,3,1,1,0,0,1,1,1,0,0,0,134,134,134,,,,,,,,,,,,,,,,,,,,,,,,,,,,,,5,24,female,5,2022_May_05_1137,Partial repeat,2021.2.3,59.89042459301672,
4,1,0,1,3,2,1,1,1,0,0,1,0,0,0,0,135,135,135,0,0,0,0,,,,,,,1036.239191800356,None,1036.704180199653,None,1037.4344966001809,None,s,1,0.5509875006973743,1037.4344966001809,None,None,None,,,,,,,5,24,female,5,2022_May_05_1137,Partial repeat,2021.2.3,59.89042459301672,
4,1,0,1,3,2,1,1,1,0,0,1,0,0,0,0,135,135,135,1,0,1,0,,,,,,,,,1037.9944675005972,None,1038.9708399996161,None,l,1,0.6225405987352133,1038.9708399996161,None,None,None,,,,,,,5,24,female,5,2022_May_05_1137,Partial repeat,2021.2.3,59.89042459301672,
4,1,0,1,3,2,1,1,1,0,0,1,0,0,0,0,135,135,135,,,,,,,,,,,,,,,,,,,,,,,,,,,,,,5,24,female,5,2022_May_05_1137,Partial repeat,2021.2.3,59.89042459301672,
7,3,0,1,2,2,2,2,0,0,1,1,1,0,0,0,136,136,136,0,0,0,0,,,,,,,1039.608125699684,None,1040.0607332997024,None,1040.925304999575,None,l,1,0.5241590011864901,1040.925304999575,None,None,None,,,,,,,5,24,female,5,2022_May_05_1137,Partial repeat,2021.2.3,59.89042459301672,
7,3,0,1,2,2,2,2,0,0,1,1,1,0,0,0,136,136,136,1,0,1,0,,,,,,,,,1041.468488899991,None,1042.2781208008528,None,l,1,0.595312399789691,1042.2781208008528,None,None,None,,,,,,,5,24,female,5,2022_May_05_1137,Partial repeat,2021.2.3,59.89042459301672,
7,3,0,1,2,2,2,2,0,0,1,1,1,0,0,0,136,136,136,,,,,,,,,,,,,,,,,,,,,,,,,,,,,,5,24,female,5,2022_May_05_1137,Partial repeat,2021.2.3,59.89042459301672,
5,6,0,1,2,2,1,1,0,0,1,1,1,0,0,0,137,137,137,0,0,0,0,,,,,,,1042.8880254998803,None,1043.333759199828,None,1044.132099499926,None,l,1,0.6612777002155781,1044.132099499926,None,None,None,,,,,,,5,24,female,5,2022_May_05_1137,Partial repeat,2021.2.3,59.89042459301672,
5,6,0,1,2,2,1,1,0,0,1,1,1,0,0,0,137,137,137,1,0,1,0,,,,,,,,,1044.8093011993915,None,1045.5337934996933,None,l,1,0.5156993009150028,1045.5337934996933,None,None,None,,,,,,,5,24,female,5,2022_May_05_1137,Partial repeat,2021.2.3,59.89042459301672,
5,6,0,1,2,2,1,1,0,0,1,1,1,0,0,0,137,137,137,,,,,,,,,,,,,,,,,,,,,,,,,,,,,,5,24,female,5,2022_May_05_1137,Partial repeat,2021.2.3,59.89042459301672,
8,4,0,1,2,2,1,2,1,0,1,0,0,0,0,0,138,138,138,0,0,0,0,,,,,,,1046.079871000722,None,1046.4564123004675,None,1047.3374019004405,None,s,1,0.5440244991332293,1047.3374019004405,None,None,None,,,,,,,5,24,female,5,2022_May_05_1137,Partial repeat,2021.2.3,59.89042459301672,
8,4,0,1,2,2,1,2,1,0,1,0,0,0,0,0,138,138,138,1,0,1,0,,,,,,,,,1047.9063000008464,None,1048.6730915009975,None,l,1,0.6964427996426821,1048.6730915009975,None,None,None,,,,,,,5,24,female,5,2022_May_05_1137,Partial repeat,2021.2.3,59.89042459301672,
8,4,0,1,2,2,1,2,1,0,1,0,0,0,0,0,138,138,138,,,,,,,,,,,,,,,,,,,,,,,,,,,,,,5,24,female,5,2022_May_05_1137,Partial repeat,2021.2.3,59.89042459301672,
1,1,0,1,2,3,2,2,1,1,0,1,1,0,0,0,139,139,139,0,0,0,0,,,,,,,1049.3876543994993,None,1049.9633246008307,None,1050.7943906001747,None,s,1,0.6550634000450373,1050.7943906001747,None,None,None,,,,,,,5,24,female,5,2022_May_05_1137,Partial repeat,2021.2.3,59.89042459301672,
1,1,0,1,2,3,2,2,1,1,0,1,1,0,0,0,139,139,139,1,0,1,0,,,,,,,,,1051.4668870009482,None,1052.2971417997032,None,s,1,0.6163241993635893,1052.2971417997032,None,None,None,,,,,,,5,24,female,5,2022_May_05_1137,Partial repeat,2021.2.3,59.89042459301672,
1,1,0,1,2,3,2,2,1,1,0,1,1,0,0,0,139,139,139,,,,,,,,,,,,,,,,,,,,,,,,,,,,,,5,24,female,5,2022_May_05_1137,Partial repeat,2021.2.3,59.89042459301672,
5,3,0,1,2,3,2,1,1,0,0,0,0,0,0,0,140,140,140,0,0,0,0,,,,,,,1052.932129399851,None,1053.3699616007507,None,1054.3508387003094,None,s,1,0.6026814989745617,1054.3508387003094,None,None,None,,,,,,,5,24,female,5,2022_May_05_1137,Partial repeat,2021.2.3,59.89042459301672,
5,3,0,1,2,3,2,1,1,0,0,0,0,0,0,0,140,140,140,1,0,1,0,,,,,,,,,1054.9616735000163,None,1055.7868770994246,None,l,1,0.6066360995173454,1055.7868770994246,None,None,None,,,,,,,5,24,female,5,2022_May_05_1137,Partial repeat,2021.2.3,59.89042459301672,
5,3,0,1,2,3,2,1,1,0,0,0,0,0,0,0,140,140,140,,,,,,,,,,,,,,,,,,,,,,,,,,,,,,5,24,female,5,2022_May_05_1137,Partial repeat,2021.2.3,59.89042459301672,
1,2,0,1,3,3,1,2,0,1,1,0,0,0,0,0,141,141,141,0,0,0,0,,,,,,,1056.4185381997377,None,1056.826673001051,None,1057.708224600181,None,l,1,0.549202099442482,1057.708224600181,None,None,None,,,,,,,5,24,female,5,2022_May_05_1137,Partial repeat,2021.2.3,59.89042459301672,
1,2,0,1,3,3,1,2,0,1,1,0,0,0,0,0,141,141,141,1,0,1,0,,,,,,,,,1058.278660800308,None,1059.1941205002367,None,s,1,0.7753524985164404,1059.1941205002367,None,None,None,,,,,,,5,24,female,5,2022_May_05_1137,Partial repeat,2021.2.3,59.89042459301672,
1,2,0,1,3,3,1,2,0,1,1,0,0,0,0,0,141,141,141,,,,,,,,,,,,,,,,,,,,,,,,,,,,,,5,24,female,5,2022_May_05_1137,Partial repeat,2021.2.3,59.89042459301672,
5,7,0,1,2,3,1,1,0,1,0,1,0,0,0,0,142,142,142,0,0,0,0,,,,,,,1059.9993428010494,None,1060.3836183995008,None,1061.2978485003114,None,l,1,0.5036117993295193,1061.2978485003114,None,None,None,,,,,,,5,24,female,5,2022_May_05_1137,Partial repeat,2021.2.3,59.89042459301672,
5,7,0,1,2,3,1,1,0,1,0,1,0,0,0,0,142,142,142,1,0,1,0,,,,,,,,,1061.8218492008746,None,1062.7182030007243,None,s,1,0.5232551004737616,1062.7182030007243,None,None,None,,,,,,,5,24,female,5,2022_May_05_1137,Partial repeat,2021.2.3,59.89042459301672,
5,7,0,1,2,3,1,1,0,1,0,1,0,0,0,0,142,142,142,,,,,,,,,,,,,,,,,,,,,,,,,,,,,,5,24,female,5,2022_May_05_1137,Partial repeat,2021.2.3,59.89042459301672,
2,2,0,1,2,2,2,2,0,1,1,1,0,0,0,0,143,143,143,0,0,0,0,,,,,,,1063.2673854008317,None,1063.6566490009427,None,1064.4541186001152,None,l,1,0.5473413001745939,1064.4541186001152,None,None,None,,,,,,,5,24,female,5,2022_May_05_1137,Partial repeat,2021.2.3,59.89042459301672,
2,2,0,1,2,2,2,2,0,1,1,1,0,0,0,0,143,143,143,1,0,1,0,,,,,,,,,1065.0167044010013,None,1065.7899437993765,None,s,1,0.6275947000831366,1065.7899437993765,None,None,None,,,,,,,5,24,female,5,2022_May_05_1137,Partial repeat,2021.2.3,59.89042459301672,
2,2,0,1,2,2,2,2,0,1,1,1,0,0,0,0,143,143,143,,,,,,,,,,,,,,,,,,,,,,,,,,,,,,5,24,female,5,2022_May_05_1137,Partial repeat,2021.2.3,59.89042459301672,
7,8,0,1,2,3,1,2,1,1,0,0,1,0,0,0,144,144,144,0,0,0,0,,,,,,,1066.4489334002137,None,1067.130074100569,None,1068.127840200439,None,s,1,0.5296801999211311,1068.127840200439,None,None,None,,,,,,,5,24,female,5,2022_May_05_1137,Partial repeat,2021.2.3,59.89042459301672,
7,8,0,1,2,3,1,2,1,1,0,0,1,0,0,0,144,144,144,1,0,1,0,,,,,,,,,1068.671258000657,None,1069.6806451007724,None,s,1,0.5448163989931345,1069.6806451007724,None,None,None,,,,,,,5,24,female,5,2022_May_05_1137,Partial repeat,2021.2.3,59.89042459301672,
7,8,0,1,2,3,1,2,1,1,0,0,1,0,0,0,144,144,144,,,,,,,,,,,,,,,,,,,,,,,,,,,,,,5,24,female,5,2022_May_05_1137,Partial repeat,2021.2.3,59.89042459301672,
1,4,0,1,2,3,2,1,0,0,0,0,1,0,0,0,145,145,145,0,0,0,0,,,,,,,1070.2518866006285,None,1070.7537625003606,None,1071.6511378008872,None,l,1,0.5343222003430128,1071.6511378008872,None,None,None,,,,,,,5,24,female,5,2022_May_05_1137,Partial repeat,2021.2.3,59.89042459301672,
1,4,0,1,2,3,2,1,0,0,0,0,1,0,0,0,145,145,145,1,0,1,0,,,,,,,,,1072.201337300241,None,1073.1541993003339,None,l,1,0.5672166012227535,1073.1541993003339,None,None,None,,,,,,,5,24,female,5,2022_May_05_1137,Partial repeat,2021.2.3,59.89042459301672,
1,4,0,1,2,3,2,1,0,0,0,0,1,0,0,0,145,145,145,,,,,,,,,,,,,,,,,,,,,,,,,,,,,,5,24,female,5,2022_May_05_1137,Partial repeat,2021.2.3,59.89042459301672,
2,6,0,1,2,3,1,2,0,1,0,0,0,0,0,0,146,146,146,0,0,0,0,,,,,,,1073.7440882008523,None,1074.1938070002943,None,1075.0418909993023,None,l,1,0.5275711007416248,1075.0418909993023,None,None,None,,,,,,,5,24,female,5,2022_May_05_1137,Partial repeat,2021.2.3,59.89042459301672,
2,6,0,1,2,3,1,2,0,1,0,0,0,0,0,0,146,146,146,1,0,1,0,,,,,,,,,1075.5858692005277,None,1076.5105485003442,None,s,1,0.5468790009617805,1076.5105485003442,None,None,None,,,,,,,5,24,female,5,2022_May_05_1137,Partial repeat,2021.2.3,59.89042459301672,
2,6,0,1,2,3,1,2,0,1,0,0,0,0,0,0,146,146,146,,,,,,,,,,,,,,,,,,,,,,,,,,,,,,5,24,female,5,2022_May_05_1137,Partial repeat,2021.2.3,59.89042459301672,
3,3,0,1,3,2,2,1,0,1,0,0,0,0,0,0,147,147,147,0,0,0,0,,,,,,,1077.0806680005044,None,1077.5169482994825,None,1078.3317361995578,None,l,1,0.5737757999449968,1078.3317361995578,None,None,None,,,,,,,5,24,female,5,2022_May_05_1137,Partial repeat,2021.2.3,59.89042459301672,
3,3,0,1,3,2,2,1,0,1,0,0,0,0,0,0,147,147,147,1,0,1,0,,,,,,,,,1078.914958300069,None,1079.767864400521,None,s,1,0.6656679008156061,1079.767864400521,None,None,None,,,,,,,5,24,female,5,2022_May_05_1137,Partial repeat,2021.2.3,59.89042459301672,
3,3,0,1,3,2,2,1,0,1,0,0,0,0,0,0,147,147,147,,,,,,,,,,,,,,,,,,,,,,,,,,,,,,5,24,female,5,2022_May_05_1137,Partial repeat,2021.2.3,59.89042459301672,
4,2,0,1,3,3,1,2,0,0,1,0,1,0,0,0,148,148,148,0,0,0,0,,,,,,,1080.4621821995825,None,1081.0571919996291,None,1081.8045188002288,None,l,1,0.516932399943471,1081.8045188002288,None,None,None,,,,,,,5,24,female,5,2022_May_05_1137,Partial repeat,2021.2.3,59.89042459301672,
4,2,0,1,3,3,1,2,0,0,1,0,1,0,0,0,148,148,148,1,0,1,0,,,,,,,,,1082.3473439998925,None,1083.3072574008256,None,l,1,0.4782218001782894,1083.3072574008256,None,None,None,,,,,,,5,24,female,5,2022_May_05_1137,Partial repeat,2021.2.3,59.89042459301672,
4,2,0,1,3,3,1,2,0,0,1,0,1,0,0,0,148,148,148,,,,,,,,,,,,,,,,,,,,,,,,,,,,,,5,24,female,5,2022_May_05_1137,Partial repeat,2021.2.3,59.89042459301672,
1,3,0,1,2,2,1,2,1,1,1,0,1,0,0,0,149,149,149,0,0,0,0,,,,,,,1083.8167968001217,None,1085.3988984003663,None,1086.298945300281,None,s,1,0.6144431997090578,1086.298945300281,None,None,None,,,,,,,5,24,female,5,2022_May_05_1137,Partial repeat,2021.2.3,59.89042459301672,
1,3,0,1,2,2,1,2,1,1,1,0,1,0,0,0,149,149,149,1,0,1,0,,,,,,,,,1086.9287423994392,None,1087.815824199468,None,s,1,0.6256067994982004,1087.815824199468,None,None,None,,,,,,,5,24,female,5,2022_May_05_1137,Partial repeat,2021.2.3,59.89042459301672,
1,3,0,1,2,2,1,2,1,1,1,0,1,0,0,0,149,149,149,,,,,,,,,,,,,,,,,,,,,,,,,,,,,,5,24,female,5,2022_May_05_1137,Partial repeat,2021.2.3,59.89042459301672,
4,8,0,1,3,2,2,2,1,0,0,1,0,0,0,0,150,150,150,0,0,0,0,,,,,,,1088.4709121007472,None,1088.8723192010075,None,1089.804058600217,None,s,1,0.7893644999712706,1089.804058600217,None,None,None,,,,,,,5,24,female,5,2022_May_05_1137,Partial repeat,2021.2.3,59.89042459301672,
4,8,0,1,3,2,2,2,1,0,0,1,0,0,0,0,150,150,150,1,0,1,0,,,,,,,,,1090.607562199235,None,1091.6235250998288,None,l,1,0.7219309005886316,1091.6235250998288,None,None,None,,,,,,,5,24,female,5,2022_May_05_1137,Partial repeat,2021.2.3,59.89042459301672,
4,8,0,1,3,2,2,2,1,0,0,1,0,0,0,0,150,150,150,,,,,,,,,,,,,,,,,,,,,,,,,,,,,,5,24,female,5,2022_May_05_1137,Partial repeat,2021.2.3,59.89042459301672,
5,2,0,1,2,3,1,2,1,0,0,0,0,0,0,0,151,151,151,0,0,0,0,,,,,,,1092.364034799859,None,1092.8133834004402,None,1093.69451119937,None,s,1,0.4989112000912428,1093.69451119937,None,None,None,,,,,,,5,24,female,5,2022_May_05_1137,Partial repeat,2021.2.3,59.89042459301672,
5,2,0,1,2,3,1,2,1,0,0,0,0,0,0,0,151,151,151,1,0,1,0,,,,,,,,,1094.2113885004073,None,1094.9467422999442,None,l,1,0.6867750007659197,1094.9467422999442,None,None,None,,,,,,,5,24,female,5,2022_May_05_1137,Partial repeat,2021.2.3,59.89042459301672,
5,2,0,1,2,3,1,2,1,0,0,0,0,0,0,0,151,151,151,,,,,,,,,,,,,,,,,,,,,,,,,,,,,,5,24,female,5,2022_May_05_1137,Partial repeat,2021.2.3,59.89042459301672,
6,7,0,1,2,3,2,1,0,1,0,0,0,0,0,0,152,152,152,0,0,0,0,,,,,,,1095.6447436995804,None,1096.7376323007047,None,1097.4689527004957,None,l,1,0.6525622997432947,1097.4689527004957,None,None,None,,,,,,,5,24,female,5,2022_May_05_1137,Partial repeat,2021.2.3,59.89042459301672,
6,7,0,1,2,3,2,1,0,1,0,0,0,0,0,0,152,152,152,1,0,1,0,,,,,,,,,1098.1301883999258,None,1099.1056257002056,None,s,1,0.6718198992311954,1099.1056257002056,None,None,None,,,,,,,5,24,female,5,2022_May_05_1137,Partial repeat,2021.2.3,59.89042459301672,
