prime_tar_pos,probe_tar_pos,dimension,tar_color,prime_dist_color,probe_dist_color,prime_dist_shape,probe_dist_shape,prime_tar_dot_pos,probe_tar_dot_pos,col_rep,shape_rep,resp_rep,pos_fixed,sparse,MainLoop.thisRepN,MainLoop.thisTrialN,MainLoop.thisN,MainLoop.thisIndex,PrimeProbe.thisRepN,PrimeProbe.thisTrialN,PrimeProbe.thisN,PrimeProbe.thisIndex,Instruction.started,Instruction.stopped,instruction_key.keys,instruction_key.rt,instruction_key.started,instruction_key.stopped,PairStartText.started,PairStartText.stopped,FixCross.started,FixCross.stopped,SearchFixCross.started,SearchFixCross.stopped,key_resp.keys,key_resp.corr,key_resp.rt,key_resp.started,key_resp.stopped,feedback_text.started,feedback_text.stopped,text_finish.started,text_finish.stopped,finish_key.keys,finish_key.rt,finish_key.started,finish_key.stopped,participant,age,gender,group,date,expName,psychopyVersion,frameRate,
,,,,,,,,,,,,,,,,,,,,,,,273.31890470162034,None,space,40.24680830165744,273.31890470162034,None,,,,,,,,,,,,,,,,,,,,6,28,female,6,2022_May_05_1301,Partial repeat,2021.2.3,59.896056582069754,
2,2,0,1,2,3,2,1,1,0,0,0,0,1,0,0,0,0,0,0,0,0,0,,,,,,,313.6824515014887,None,315.6238778010011,None,316.5059372000396,None,s,1,0.9395618010312319,316.5059372000396,None,None,None,,,,,,,6,28,female,6,2022_May_05_1301,Partial repeat,2021.2.3,59.896056582069754,
2,2,0,1,2,3,2,1,1,0,0,0,0,1,0,0,0,0,0,1,0,1,0,,,,,,,,,317.45561130158603,None,318.27436790056527,None,l,1,0.5631253011524677,318.27436790056527,None,None,None,,,,,,,6,28,female,6,2022_May_05_1301,Partial repeat,2021.2.3,59.896056582069754,
2,2,0,1,2,3,2,1,1,0,0,0,0,1,0,0,0,0,0,,,,,,,,,,,,,,,,,,,,,,,,,,,,,,6,28,female,6,2022_May_05_1301,Partial repeat,2021.2.3,59.896056582069754,
2,2,0,1,3,3,1,1,1,0,1,1,0,1,0,0,1,1,1,0,0,0,0,,,,,,,318.8524082005024,None,322.0031674001366,None,323.0169947016984,None,s,1,0.7165360003709793,323.0169947016984,None,None,None,,,,,,,6,28,female,6,2022_May_05_1301,Partial repeat,2021.2.3,59.896056582069754,
2,2,0,1,3,3,1,1,1,0,1,1,0,1,0,0,1,1,1,1,0,1,0,,,,,,,,,323.7611680999398,None,324.6035668011755,None,l,1,0.4899911005049944,324.6035668011755,None,None,None,,,,,,,6,28,female,6,2022_May_05_1301,Partial repeat,2021.2.3,59.896056582069754,
2,2,0,1,3,3,1,1,1,0,1,1,0,1,0,0,1,1,1,,,,,,,,,,,,,,,,,,,,,,,,,,,,,,6,28,female,6,2022_May_05_1301,Partial repeat,2021.2.3,59.896056582069754,
2,2,0,1,2,3,1,2,0,1,0,0,0,1,0,0,2,2,2,0,0,0,0,,,,,,,325.11510440148413,None,326.2614350002259,None,327.2085711006075,None,s,0,0.5489563010632992,327.2085711006075,None,327.78090700134635,None,,,,,,,6,28,female,6,2022_May_05_1301,Partial repeat,2021.2.3,59.896056582069754,
2,2,0,1,2,3,1,2,0,1,0,0,0,1,0,0,2,2,2,1,0,1,0,,,,,,,,,328.28205370157957,None,329.1956208012998,None,s,1,0.6500821001827717,329.1956208012998,None,None,None,,,,,,,6,28,female,6,2022_May_05_1301,Partial repeat,2021.2.3,59.896056582069754,
2,2,0,1,2,3,1,2,0,1,0,0,0,1,0,0,2,2,2,,,,,,,,,,,,,,,,,,,,,,,,,,,,,,6,28,female,6,2022_May_05_1301,Partial repeat,2021.2.3,59.896056582069754,
2,2,0,1,2,2,2,2,0,0,1,1,1,1,0,0,3,3,3,0,0,0,0,,,,,,,329.857649801299,None,331.50500240176916,None,332.38505790010095,None,l,1,0.4845052007585764,332.38505790010095,None,None,None,,,,,,,6,28,female,6,2022_May_05_1301,Partial repeat,2021.2.3,59.896056582069754,
2,2,0,1,2,2,2,2,0,0,1,1,1,1,0,0,3,3,3,1,0,1,0,,,,,,,,,332.89767920039594,None,333.7044303007424,None,l,1,0.4450819008052349,333.7044303007424,None,None,None,,,,,,,6,28,female,6,2022_May_05_1301,Partial repeat,2021.2.3,59.896056582069754,
2,2,0,1,2,2,2,2,0,0,1,1,1,1,0,0,3,3,3,,,,,,,,,,,,,,,,,,,,,,,,,,,,,,6,28,female,6,2022_May_05_1301,Partial repeat,2021.2.3,59.896056582069754,
2,2,0,1,3,3,2,1,1,1,1,0,1,1,0,0,4,4,4,0,0,0,0,,,,,,,334.17923850007355,None,334.97838820144534,None,335.8420755006373,None,s,1,0.48340649902820587,335.8420755006373,None,None,None,,,,,,,6,28,female,6,2022_May_05_1301,Partial repeat,2021.2.3,59.896056582069754,
2,2,0,1,3,3,2,1,1,1,1,0,1,1,0,0,4,4,4,1,0,1,0,,,,,,,,,336.3482793010771,None,337.1616209000349,None,s,1,0.37995400093495846,337.1616209000349,None,None,None,,,,,,,6,28,female,6,2022_May_05_1301,Partial repeat,2021.2.3,59.896056582069754,
2,2,0,1,3,3,2,1,1,1,1,0,1,1,0,0,4,4,4,,,,,,,,,,,,,,,,,,,,,,,,,,,,,,6,28,female,6,2022_May_05_1301,Partial repeat,2021.2.3,59.896056582069754,
2,2,0,1,3,2,2,2,1,1,0,1,1,1,0,0,5,5,5,0,0,0,0,,,,,,,337.5534610003233,None,338.1846062000841,None,339.16564260050654,None,s,1,0.5038686003535986,339.16564260050654,None,None,None,,,,,,,6,28,female,6,2022_May_05_1301,Partial repeat,2021.2.3,59.896056582069754,
2,2,0,1,3,2,2,2,1,1,0,1,1,1,0,0,5,5,5,1,0,1,0,,,,,,,,,339.6782642006874,None,340.5179048012942,None,s,1,0.4315929003059864,340.5179048012942,None,None,None,,,,,,,6,28,female,6,2022_May_05_1301,Partial repeat,2021.2.3,59.896056582069754,
2,2,0,1,3,2,2,2,1,1,0,1,1,1,0,0,5,5,5,,,,,,,,,,,,,,,,,,,,,,,,,,,,,,6,28,female,6,2022_May_05_1301,Partial repeat,2021.2.3,59.896056582069754,
2,2,0,1,2,3,1,1,0,1,0,1,0,1,0,0,6,6,6,0,0,0,0,,,,,,,340.9710289016366,None,342.2091372013092,None,343.1226211003959,None,l,1,0.5468414984643459,343.1226211003959,None,None,None,,,,,,,6,28,female,6,2022_May_05_1301,Partial repeat,2021.2.3,59.896056582069754,
2,2,0,1,2,3,1,1,0,1,0,1,0,1,0,0,6,6,6,1,0,1,0,,,,,,,,,343.69352660141885,None,344.59218900091946,None,s,1,0.5173006001859903,344.59218900091946,None,None,None,,,,,,,6,28,female,6,2022_May_05_1301,Partial repeat,2021.2.3,59.896056582069754,
2,2,0,1,2,3,1,1,0,1,0,1,0,1,0,0,6,6,6,,,,,,,,,,,,,,,,,,,,,,,,,,,,,,6,28,female,6,2022_May_05_1301,Partial repeat,2021.2.3,59.896056582069754,
2,2,0,1,2,2,1,1,1,0,1,1,0,1,0,0,7,7,7,0,0,0,0,,,,,,,345.12733130156994,None,346.16688950173557,None,347.08061310090125,None,s,1,0.5249363016337156,347.08061310090125,None,None,None,,,,,,,6,28,female,6,2022_May_05_1301,Partial repeat,2021.2.3,59.896056582069754,
2,2,0,1,2,2,1,1,1,0,1,1,0,1,0,0,7,7,7,1,0,1,0,,,,,,,,,347.6326818000525,None,348.43335270136595,None,l,1,0.38014810159802437,348.43335270136595,None,None,None,,,,,,,6,28,female,6,2022_May_05_1301,Partial repeat,2021.2.3,59.896056582069754,
2,2,0,1,2,2,1,1,1,0,1,1,0,1,0,0,7,7,7,,,,,,,,,,,,,,,,,,,,,,,,,,,,,,6,28,female,6,2022_May_05_1301,Partial repeat,2021.2.3,59.896056582069754,
2,2,0,1,2,3,2,1,1,1,0,0,1,1,0,0,8,8,8,0,0,0,0,,,,,,,348.8421011008322,None,349.4899937007576,None,350.42022400163114,None,s,1,0.9052722994238138,350.42022400163114,None,None,None,,,,,,,6,28,female,6,2022_May_05_1301,Partial repeat,2021.2.3,59.896056582069754,
2,2,0,1,2,3,2,1,1,1,0,0,1,1,0,0,8,8,8,1,0,1,0,,,,,,,,,351.34729910083115,None,352.2904893010855,None,s,1,0.523080101236701,352.2904893010855,None,None,None,,,,,,,6,28,female,6,2022_May_05_1301,Partial repeat,2021.2.3,59.896056582069754,
2,2,0,1,2,3,2,1,1,1,0,0,1,1,0,0,8,8,8,,,,,,,,,,,,,,,,,,,,,,,,,,,,,,6,28,female,6,2022_May_05_1301,Partial repeat,2021.2.3,59.896056582069754,
2,2,0,1,3,2,2,2,0,0,0,1,1,1,0,0,9,9,9,0,0,0,0,,,,,,,352.82541350089014,None,353.64804810099304,None,354.6452310010791,None,l,1,0.6642613001167774,354.6452310010791,None,None,None,,,,,,,6,28,female,6,2022_May_05_1301,Partial repeat,2021.2.3,59.896056582069754,
2,2,0,1,3,2,2,2,0,0,0,1,1,1,0,0,9,9,9,1,0,1,0,,,,,,,,,355.32220320031047,None,356.1986889000982,None,l,1,0.4628745000809431,356.1986889000982,None,None,None,,,,,,,6,28,female,6,2022_May_05_1301,Partial repeat,2021.2.3,59.896056582069754,
2,2,0,1,3,2,2,2,0,0,0,1,1,1,0,0,9,9,9,,,,,,,,,,,,,,,,,,,,,,,,,,,,,,6,28,female,6,2022_May_05_1301,Partial repeat,2021.2.3,59.896056582069754,
2,2,0,1,2,3,1,2,0,0,0,0,1,1,0,0,10,10,10,0,0,0,0,,,,,,,356.69258780032396,None,357.38868280127645,None,358.31903450004756,None,l,1,0.6064589004963636,358.31903450004756,None,None,None,,,,,,,6,28,female,6,2022_May_05_1301,Partial repeat,2021.2.3,59.896056582069754,
2,2,0,1,2,3,1,2,0,0,0,0,1,1,0,0,10,10,10,1,0,1,0,,,,,,,,,358.9419923014939,None,359.83886930160224,None,l,1,0.5666397996246815,359.83886930160224,None,None,None,,,,,,,6,28,female,6,2022_May_05_1301,Partial repeat,2021.2.3,59.896056582069754,
2,2,0,1,2,3,1,2,0,0,0,0,1,1,0,0,10,10,10,,,,,,,,,,,,,,,,,,,,,,,,,,,,,,6,28,female,6,2022_May_05_1301,Partial repeat,2021.2.3,59.896056582069754,
2,2,0,1,3,3,1,2,1,1,1,0,1,1,0,0,11,11,11,0,0,0,0,,,,,,,360.436599900946,None,361.0124169010669,None,361.82583400048316,None,s,1,0.563765799626708,361.82583400048316,None,None,None,,,,,,,6,28,female,6,2022_May_05_1301,Partial repeat,2021.2.3,59.896056582069754,
2,2,0,1,3,3,1,2,1,1,1,0,1,1,0,0,11,11,11,1,0,1,0,,,,,,,,,362.4011629000306,None,363.14520450122654,None,s,1,0.4282922986894846,363.14520450122654,None,None,None,,,,,,,6,28,female,6,2022_May_05_1301,Partial repeat,2021.2.3,59.896056582069754,
2,2,0,1,3,3,1,2,1,1,1,0,1,1,0,0,11,11,11,,,,,,,,,,,,,,,,,,,,,,,,,,,,,,6,28,female,6,2022_May_05_1301,Partial repeat,2021.2.3,59.896056582069754,
2,2,0,1,3,2,1,2,0,1,0,0,0,1,0,0,12,12,12,0,0,0,0,,,,,,,363.59926860034466,None,364.1017580013722,None,364.83185990154743,None,l,1,0.501638799905777,364.83185990154743,None,None,None,,,,,,,6,28,female,6,2022_May_05_1301,Partial repeat,2021.2.3,59.896056582069754,
2,2,0,1,3,2,1,2,0,1,0,0,0,1,0,0,12,12,12,1,0,1,0,,,,,,,,,365.34549640119076,None,366.2680226005614,None,s,1,0.5374715998768806,366.2680226005614,None,None,None,,,,,,,6,28,female,6,2022_May_05_1301,Partial repeat,2021.2.3,59.896056582069754,
2,2,0,1,3,2,1,2,0,1,0,0,0,1,0,0,12,12,12,,,,,,,,,,,,,,,,,,,,,,,,,,,,,,6,28,female,6,2022_May_05_1301,Partial repeat,2021.2.3,59.896056582069754,
2,2,0,1,3,3,1,2,0,1,1,0,0,1,0,0,13,13,13,0,0,0,0,,,,,,,366.8222145009786,None,367.3246879000217,None,368.2885680012405,None,l,1,0.46892849914729595,368.2885680012405,None,None,None,,,,,,,6,28,female,6,2022_May_05_1301,Partial repeat,2021.2.3,59.896056582069754,
2,2,0,1,3,3,1,2,0,1,1,0,0,1,0,0,13,13,13,1,0,1,0,,,,,,,,,368.7778781000525,None,369.6741778999567,None,s,1,0.4833751004189253,369.6741778999567,None,None,None,,,,,,,6,28,female,6,2022_May_05_1301,Partial repeat,2021.2.3,59.896056582069754,
2,2,0,1,3,3,1,2,0,1,1,0,0,1,0,0,13,13,13,,,,,,,,,,,,,,,,,,,,,,,,,,,,,,6,28,female,6,2022_May_05_1301,Partial repeat,2021.2.3,59.896056582069754,
2,2,0,1,2,2,2,1,0,0,1,0,1,1,0,0,14,14,14,0,0,0,0,,,,,,,370.16841380111873,None,370.5810373015702,None,371.49453690089285,None,l,1,1.0789599008858204,371.49453690089285,None,None,None,,,,,,,6,28,female,6,2022_May_05_1301,Partial repeat,2021.2.3,59.896056582069754,
2,2,0,1,2,2,2,1,0,0,1,0,1,1,0,0,14,14,14,1,0,1,0,,,,,,,,,372.5875792000443,None,373.4316933006048,None,l,1,0.381802499294281,373.4316933006048,None,None,None,,,,,,,6,28,female,6,2022_May_05_1301,Partial repeat,2021.2.3,59.896056582069754,
2,2,0,1,2,2,2,1,0,0,1,0,1,1,0,0,14,14,14,,,,,,,,,,,,,,,,,,,,,,,,,,,,,,6,28,female,6,2022_May_05_1301,Partial repeat,2021.2.3,59.896056582069754,
2,2,0,1,3,2,2,1,1,1,0,0,1,1,0,0,15,15,15,0,0,0,0,,,,,,,373.83728530071676,None,374.3216450009495,None,375.2853385005146,None,s,1,0.528158800676465,375.2853385005146,None,None,None,,,,,,,6,28,female,6,2022_May_05_1301,Partial repeat,2021.2.3,59.896056582069754,
2,2,0,1,3,2,2,1,1,1,0,0,1,1,0,0,15,15,15,1,0,1,0,,,,,,,,,375.83754300139844,None,376.8051613010466,None,s,1,1.080373801290989,376.8051613010466,None,None,None,,,,,,,6,28,female,6,2022_May_05_1301,Partial repeat,2021.2.3,59.896056582069754,
2,2,0,1,3,2,2,1,1,1,0,0,1,1,0,0,15,15,15,,,,,,,,,,,,,,,,,,,,,,,,,,,,,,6,28,female,6,2022_May_05_1301,Partial repeat,2021.2.3,59.896056582069754,
2,2,0,1,2,2,2,1,0,1,1,0,0,1,0,0,16,16,16,0,0,0,0,,,,,,,377.9118294008076,None,378.54646480083466,None,379.4601406008005,None,l,1,0.7853678986430168,379.4601406008005,None,None,None,,,,,,,6,28,female,6,2022_May_05_1301,Partial repeat,2021.2.3,59.896056582069754,
2,2,0,1,2,2,2,1,0,1,1,0,0,1,0,0,16,16,16,1,0,1,0,,,,,,,,,380.26390100084245,None,381.13014920055866,None,s,1,0.427377600222826,381.13014920055866,None,None,None,,,,,,,6,28,female,6,2022_May_05_1301,Partial repeat,2021.2.3,59.896056582069754,
2,2,0,1,2,2,2,1,0,1,1,0,0,1,0,0,16,16,16,,,,,,,,,,,,,,,,,,,,,,,,,,,,,,6,28,female,6,2022_May_05_1301,Partial repeat,2021.2.3,59.896056582069754,
2,2,0,1,2,3,2,2,0,1,0,1,0,1,0,0,17,17,17,0,0,0,0,,,,,,,381.583774400875,None,382.01996420137584,None,382.9170523006469,None,l,1,0.6964455991983414,382.9170523006469,None,None,None,,,,,,,6,28,female,6,2022_May_05_1301,Partial repeat,2021.2.3,59.896056582069754,
2,2,0,1,2,3,2,2,0,1,0,1,0,1,0,0,17,17,17,1,0,1,0,,,,,,,,,383.6346560008824,None,384.60376680083573,None,s,1,0.3537332993000746,384.60376680083573,None,None,None,,,,,,,6,28,female,6,2022_May_05_1301,Partial repeat,2021.2.3,59.896056582069754,
2,2,0,1,2,3,2,2,0,1,0,1,0,1,0,0,17,17,17,,,,,,,,,,,,,,,,,,,,,,,,,,,,,,6,28,female,6,2022_May_05_1301,Partial repeat,2021.2.3,59.896056582069754,
2,2,0,1,2,3,1,1,0,0,0,1,1,1,0,0,18,18,18,0,0,0,0,,,,,,,384.9714711010456,None,385.3597626015544,None,386.1399199999869,None,l,1,0.6015922985970974,386.1399199999869,None,None,None,,,,,,,6,28,female,6,2022_May_05_1301,Partial repeat,2021.2.3,59.896056582069754,
2,2,0,1,2,3,1,1,0,0,0,1,1,1,0,0,18,18,18,1,0,1,0,,,,,,,,,386.75448730029166,None,387.51025930047035,None,l,1,0.3592760004103184,387.51025930047035,None,None,None,,,,,,,6,28,female,6,2022_May_05_1301,Partial repeat,2021.2.3,59.896056582069754,
2,2,0,1,2,3,1,1,0,0,0,1,1,1,0,0,18,18,18,,,,,,,,,,,,,,,,,,,,,,,,,,,,,,6,28,female,6,2022_May_05_1301,Partial repeat,2021.2.3,59.896056582069754,
2,2,0,1,3,3,1,1,1,1,1,1,1,1,0,0,19,19,19,0,0,0,0,,,,,,,387.8984880000353,None,388.41569440066814,None,389.14564910158515,None,s,1,0.5078442990779877,389.14564910158515,None,None,None,,,,,,,6,28,female,6,2022_May_05_1301,Partial repeat,2021.2.3,59.896056582069754,
2,2,0,1,3,3,1,1,1,1,1,1,1,1,0,0,19,19,19,1,0,1,0,,,,,,,,,389.678135400638,None,390.53175490163267,None,s,1,0.34572409838438034,390.53175490163267,None,None,None,,,,,,,6,28,female,6,2022_May_05_1301,Partial repeat,2021.2.3,59.896056582069754,
2,2,0,1,3,3,1,1,1,1,1,1,1,1,0,0,19,19,19,,,,,,,,,,,,,,,,,,,,,,,,,,,,,,6,28,female,6,2022_May_05_1301,Partial repeat,2021.2.3,59.896056582069754,
2,2,0,1,3,3,2,1,0,1,1,0,0,1,0,0,20,20,20,0,0,0,0,,,,,,,390.9005995001644,None,391.3213538005948,None,392.20256020128727,None,l,1,0.5229115001857281,392.20256020128727,None,None,None,,,,,,,6,28,female,6,2022_May_05_1301,Partial repeat,2021.2.3,59.896056582069754,
2,2,0,1,3,3,2,1,0,1,1,0,0,1,0,0,20,20,20,1,0,1,0,,,,,,,,,392.734655700624,None,393.4875698015094,None,s,1,0.38196830078959465,393.4875698015094,None,None,None,,,,,,,6,28,female,6,2022_May_05_1301,Partial repeat,2021.2.3,59.896056582069754,
2,2,0,1,3,3,2,1,0,1,1,0,0,1,0,0,20,20,20,,,,,,,,,,,,,,,,,,,,,,,,,,,,,,6,28,female,6,2022_May_05_1301,Partial repeat,2021.2.3,59.896056582069754,
2,2,0,1,2,3,1,1,1,0,0,1,0,1,0,0,21,21,21,0,0,0,0,,,,,,,393.89372900128365,None,394.32727170176804,None,395.1071482002735,None,s,1,0.5143480002880096,395.1071482002735,None,None,None,,,,,,,6,28,female,6,2022_May_05_1301,Partial repeat,2021.2.3,59.896056582069754,
2,2,0,1,2,3,1,1,1,0,0,1,0,1,0,0,21,21,21,1,0,1,0,,,,,,,,,395.63860890083015,None,396.62679539993405,None,l,1,0.4267076998949051,396.62679539993405,None,None,None,,,,,,,6,28,female,6,2022_May_05_1301,Partial repeat,2021.2.3,59.896056582069754,
2,2,0,1,2,3,1,1,1,0,0,1,0,1,0,0,21,21,21,,,,,,,,,,,,,,,,,,,,,,,,,,,,,,6,28,female,6,2022_May_05_1301,Partial repeat,2021.2.3,59.896056582069754,
2,2,0,1,2,3,2,1,0,0,0,0,1,1,0,0,22,22,22,0,0,0,0,,,,,,,397.0768723003566,None,397.53345940075815,None,398.28029030002654,None,l,1,0.4932103995233774,398.28029030002654,None,None,None,,,,,,,6,28,female,6,2022_May_05_1301,Partial repeat,2021.2.3,59.896056582069754,
2,2,0,1,2,3,2,1,0,0,0,0,1,1,0,0,22,22,22,1,0,1,0,,,,,,,,,398.7906369008124,None,399.63340980000794,None,l,1,0.42808450013399124,399.63340980000794,None,None,None,,,,,,,6,28,female,6,2022_May_05_1301,Partial repeat,2021.2.3,59.896056582069754,
2,2,0,1,2,3,2,1,0,0,0,0,1,1,0,0,22,22,22,,,,,,,,,,,,,,,,,,,,,,,,,,,,,,6,28,female,6,2022_May_05_1301,Partial repeat,2021.2.3,59.896056582069754,
2,2,0,1,2,2,1,2,1,1,1,0,1,1,0,0,23,23,23,0,0,0,0,,,,,,,400.08620310015976,None,400.5726522002369,None,401.45285800099373,None,s,1,0.48068390041589737,401.45285800099373,None,None,None,,,,,,,6,28,female,6,2022_May_05_1301,Partial repeat,2021.2.3,59.896056582069754,
2,2,0,1,2,2,1,2,1,1,1,0,1,1,0,0,23,23,23,1,0,1,0,,,,,,,,,401.94226460158825,None,402.67192200012505,None,s,1,0.381581699475646,402.67192200012505,None,None,None,,,,,,,6,28,female,6,2022_May_05_1301,Partial repeat,2021.2.3,59.896056582069754,
2,2,0,1,2,2,1,2,1,1,1,0,1,1,0,0,23,23,23,,,,,,,,,,,,,,,,,,,,,,,,,,,,,,6,28,female,6,2022_May_05_1301,Partial repeat,2021.2.3,59.896056582069754,
2,2,0,1,2,2,2,1,1,0,1,0,0,1,0,0,24,24,24,0,0,0,0,,,,,,,403.08006400056183,None,403.5284339003265,None,404.2920188009739,None,s,1,0.42547930032014847,404.2920188009739,None,None,None,,,,,,,6,28,female,6,2022_May_05_1301,Partial repeat,2021.2.3,59.896056582069754,
2,2,0,1,2,2,2,1,1,0,1,0,0,1,0,0,24,24,24,1,0,1,0,,,,,,,,,404.73668260127306,None,405.47743770107627,None,l,1,0.3760978002101183,405.47743770107627,None,None,None,,,,,,,6,28,female,6,2022_May_05_1301,Partial repeat,2021.2.3,59.896056582069754,
2,2,0,1,2,2,2,1,1,0,1,0,0,1,0,0,24,24,24,,,,,,,,,,,,,,,,,,,,,,,,,,,,,,6,28,female,6,2022_May_05_1301,Partial repeat,2021.2.3,59.896056582069754,
2,2,0,1,2,2,2,1,1,1,1,0,1,1,0,0,25,25,25,0,0,0,0,,,,,,,405.8637956008315,None,406.4007002003491,None,407.1472887005657,None,s,1,0.858203100040555,407.1472887005657,None,None,None,,,,,,,6,28,female,6,2022_May_05_1301,Partial repeat,2021.2.3,59.896056582069754,
2,2,0,1,2,2,2,1,1,1,1,0,1,1,0,0,25,25,25,1,0,1,0,,,,,,,,,408.0302365999669,None,408.9340849015862,None,s,1,0.4074499998241663,408.9340849015862,None,None,None,,,,,,,6,28,female,6,2022_May_05_1301,Partial repeat,2021.2.3,59.896056582069754,
2,2,0,1,2,2,2,1,1,1,1,0,1,1,0,0,25,25,25,,,,,,,,,,,,,,,,,,,,,,,,,,,,,,6,28,female,6,2022_May_05_1301,Partial repeat,2021.2.3,59.896056582069754,
2,2,0,1,3,3,2,2,1,0,1,1,0,1,0,0,26,26,26,0,0,0,0,,,,,,,409.36560150049627,None,409.80734150111675,None,410.67199140042067,None,s,1,0.4855410996824503,410.67199140042067,None,None,None,,,,,,,6,28,female,6,2022_May_05_1301,Partial repeat,2021.2.3,59.896056582069754,
2,2,0,1,3,3,2,2,1,0,1,1,0,1,0,0,26,26,26,1,0,1,0,,,,,,,,,411.18268690072,None,411.92318470031023,None,l,1,0.43438730016350746,411.92318470031023,None,None,None,,,,,,,6,28,female,6,2022_May_05_1301,Partial repeat,2021.2.3,59.896056582069754,
2,2,0,1,3,3,2,2,1,0,1,1,0,1,0,0,26,26,26,,,,,,,,,,,,,,,,,,,,,,,,,,,,,,6,28,female,6,2022_May_05_1301,Partial repeat,2021.2.3,59.896056582069754,
2,2,0,1,2,3,1,1,1,1,0,1,1,1,0,0,27,27,27,0,0,0,0,,,,,,,412.3745143003762,None,413.01358210109174,None,413.8936716001481,None,s,1,0.5279206987470388,413.8936716001481,None,None,None,,,,,,,6,28,female,6,2022_May_05_1301,Partial repeat,2021.2.3,59.896056582069754,
2,2,0,1,2,3,1,1,1,1,0,1,1,1,0,0,27,27,27,1,0,1,0,,,,,,,,,414.4315194003284,None,415.4303465001285,None,s,1,0.447121798992157,415.4303465001285,None,None,None,,,,,,,6,28,female,6,2022_May_05_1301,Partial repeat,2021.2.3,59.896056582069754,
2,2,0,1,2,3,1,1,1,1,0,1,1,1,0,0,27,27,27,,,,,,,,,,,,,,,,,,,,,,,,,,,,,,6,28,female,6,2022_May_05_1301,Partial repeat,2021.2.3,59.896056582069754,
2,2,0,1,3,2,2,2,1,0,0,1,0,1,0,0,28,28,28,0,0,0,0,,,,,,,415.9032947011292,None,416.43692470155656,None,417.2505954001099,None,s,1,0.5069011002779007,417.2505954001099,None,None,None,,,,,,,6,28,female,6,2022_May_05_1301,Partial repeat,2021.2.3,59.896056582069754,
2,2,0,1,3,2,2,2,1,0,0,1,0,1,0,0,28,28,28,1,0,1,0,,,,,,,,,417.78256560117006,None,418.6204969007522,None,l,1,0.43306370079517365,418.6204969007522,None,None,None,,,,,,,6,28,female,6,2022_May_05_1301,Partial repeat,2021.2.3,59.896056582069754,
2,2,0,1,3,2,2,2,1,0,0,1,0,1,0,0,28,28,28,,,,,,,,,,,,,,,,,,,,,,,,,,,,,,6,28,female,6,2022_May_05_1301,Partial repeat,2021.2.3,59.896056582069754,
2,2,0,1,3,2,2,1,0,1,0,0,0,1,0,0,29,29,29,0,0,0,0,,,,,,,419.07575110159814,None,419.7934534009546,None,420.64060229994357,None,l,1,0.5089305993169546,420.64060229994357,None,None,None,,,,,,,6,28,female,6,2022_May_05_1301,Partial repeat,2021.2.3,59.896056582069754,
2,2,0,1,3,2,2,1,0,1,0,0,0,1,0,0,29,29,29,1,0,1,0,,,,,,,,,421.158622501418,None,421.9093807004392,None,s,1,0.44811599887907505,421.9093807004392,None,None,None,,,,,,,6,28,female,6,2022_May_05_1301,Partial repeat,2021.2.3,59.896056582069754,
2,2,0,1,3,2,2,1,0,1,0,0,0,1,0,0,29,29,29,,,,,,,,,,,,,,,,,,,,,,,,,,,,,,6,28,female,6,2022_May_05_1301,Partial repeat,2021.2.3,59.896056582069754,
2,2,0,1,2,3,1,2,1,0,0,0,0,1,0,0,30,30,30,0,0,0,0,,,,,,,422.38416280038655,None,422.8159340005368,None,423.7296108007431,None,s,1,0.4999797996133566,423.7296108007431,None,None,None,,,,,,,6,28,female,6,2022_May_05_1301,Partial repeat,2021.2.3,59.896056582069754,
2,2,0,1,2,3,1,2,1,0,0,0,0,1,0,0,30,30,30,1,0,1,0,,,,,,,,,424.2398857008666,None,425.03206080012023,None,l,1,0.4774360992014408,425.03206080012023,None,None,None,,,,,,,6,28,female,6,2022_May_05_1301,Partial repeat,2021.2.3,59.896056582069754,
2,2,0,1,2,3,1,2,1,0,0,0,0,1,0,0,30,30,30,,,,,,,,,,,,,,,,,,,,,,,,,,,,,,6,28,female,6,2022_May_05_1301,Partial repeat,2021.2.3,59.896056582069754,
2,2,0,1,2,3,1,2,1,1,0,0,1,1,0,0,31,31,31,0,0,0,0,,,,,,,425.5245898012072,None,426.28939940035343,None,427.08649430051446,None,s,1,0.6550024002790451,427.08649430051446,None,None,None,,,,,,,6,28,female,6,2022_May_05_1301,Partial repeat,2021.2.3,59.896056582069754,
2,2,0,1,2,3,1,2,1,1,0,0,1,1,0,0,31,31,31,1,0,1,0,,,,,,,,,427.764241700992,None,428.505553400144,None,s,1,0.3960207011550665,428.505553400144,None,None,None,,,,,,,6,28,female,6,2022_May_05_1301,Partial repeat,2021.2.3,59.896056582069754,
2,2,0,1,2,3,1,2,1,1,0,0,1,1,0,0,31,31,31,,,,,,,,,,,,,,,,,,,,,,,,,,,,,,6,28,female,6,2022_May_05_1301,Partial repeat,2021.2.3,59.896056582069754,
2,2,0,1,3,2,1,1,0,1,0,1,0,1,0,0,32,32,32,0,0,0,0,,,,,,,428.9157195016742,None,429.6292560007423,None,430.4263157006353,None,l,1,0.4672453999519348,430.4263157006353,None,None,None,,,,,,,6,28,female,6,2022_May_05_1301,Partial repeat,2021.2.3,59.896056582069754,
2,2,0,1,3,2,1,1,0,1,0,1,0,1,0,0,32,32,32,1,0,1,0,,,,,,,,,430.9164185002446,None,431.8623155001551,None,s,1,0.4551755990833044,431.8623155001551,None,None,None,,,,,,,6,28,female,6,2022_May_05_1301,Partial repeat,2021.2.3,59.896056582069754,
2,2,0,1,3,2,1,1,0,1,0,1,0,1,0,0,32,32,32,,,,,,,,,,,,,,,,,,,,,,,,,,,,,,6,28,female,6,2022_May_05_1301,Partial repeat,2021.2.3,59.896056582069754,
2,2,0,1,3,2,2,1,0,0,0,0,1,1,0,0,33,33,33,0,0,0,0,,,,,,,432.33460750058293,None,433.0859325006604,None,433.9496335014701,None,l,1,0.6238833982497454,433.9496335014701,None,None,None,,,,,,,6,28,female,6,2022_May_05_1301,Partial repeat,2021.2.3,59.896056582069754,
2,2,0,1,3,2,2,1,0,0,0,0,1,1,0,0,33,33,33,1,0,1,0,,,,,,,,,434.58277220092714,None,435.385683901608,None,l,1,0.4118173010647297,435.385683901608,None,None,None,,,,,,,6,28,female,6,2022_May_05_1301,Partial repeat,2021.2.3,59.896056582069754,
2,2,0,1,3,2,2,1,0,0,0,0,1,1,0,0,33,33,33,,,,,,,,,,,,,,,,,,,,,,,,,,,,,,6,28,female,6,2022_May_05_1301,Partial repeat,2021.2.3,59.896056582069754,
2,2,0,1,2,3,2,1,0,1,0,0,0,1,0,0,34,34,34,0,0,0,0,,,,,,,435.8156198002398,None,436.50926680117846,None,437.4562584012747,None,l,1,0.4533495008945465,437.4562584012747,None,None,None,,,,,,,6,28,female,6,2022_May_05_1301,Partial repeat,2021.2.3,59.896056582069754,
2,2,0,1,2,3,2,1,0,1,0,0,0,1,0,0,34,34,34,1,0,1,0,,,,,,,,,437.91759990155697,None,438.9259890001267,None,s,1,0.45556849986314774,438.9259890001267,None,None,None,,,,,,,6,28,female,6,2022_May_05_1301,Partial repeat,2021.2.3,59.896056582069754,
2,2,0,1,2,3,2,1,0,1,0,0,0,1,0,0,34,34,34,,,,,,,,,,,,,,,,,,,,,,,,,,,,,,6,28,female,6,2022_May_05_1301,Partial repeat,2021.2.3,59.896056582069754,
2,2,0,1,3,2,2,2,0,1,0,1,0,1,0,0,35,35,35,0,0,0,0,,,,,,,439.3985223006457,None,439.7823502011597,None,440.66267570108175,None,l,1,0.5908284988254309,440.66267570108175,None,None,None,,,,,,,6,28,female,6,2022_May_05_1301,Partial repeat,2021.2.3,59.896056582069754,
2,2,0,1,3,2,2,2,0,1,0,1,0,1,0,0,35,35,35,1,0,1,0,,,,,,,,,441.2772234007716,None,442.1834837011993,None,s,1,0.4140095002949238,442.1834837011993,None,None,None,,,,,,,6,28,female,6,2022_May_05_1301,Partial repeat,2021.2.3,59.896056582069754,
2,2,0,1,3,2,2,2,0,1,0,1,0,1,0,0,35,35,35,,,,,,,,,,,,,,,,,,,,,,,,,,,,,,6,28,female,6,2022_May_05_1301,Partial repeat,2021.2.3,59.896056582069754,
2,2,0,1,3,3,2,2,0,0,1,1,1,1,0,0,36,36,36,0,0,0,0,,,,,,,442.61596200056374,None,443.0219957008958,None,443.78545210137963,None,l,1,0.4680468998849392,443.78545210137963,None,None,None,,,,,,,6,28,female,6,2022_May_05_1301,Partial repeat,2021.2.3,59.896056582069754,
2,2,0,1,3,3,2,2,0,0,1,1,1,1,0,0,36,36,36,1,0,1,0,,,,,,,,,444.27192920073867,None,445.17132230103016,None,l,1,0.3861702997237444,445.17132230103016,None,None,None,,,,,,,6,28,female,6,2022_May_05_1301,Partial repeat,2021.2.3,59.896056582069754,
2,2,0,1,3,3,2,2,0,0,1,1,1,1,0,0,36,36,36,,,,,,,,,,,,,,,,,,,,,,,,,,,,,,6,28,female,6,2022_May_05_1301,Partial repeat,2021.2.3,59.896056582069754,
2,2,0,1,3,3,2,1,0,0,1,0,1,1,0,0,37,37,37,0,0,0,0,,,,,,,445.5806297007948,None,446.0612713005394,None,446.8581635002047,None,l,1,0.3553659990429878,446.8581635002047,None,None,None,,,,,,,6,28,female,6,2022_May_05_1301,Partial repeat,2021.2.3,59.896056582069754,
2,2,0,1,3,3,2,1,0,0,1,0,1,1,0,0,37,37,37,1,0,1,0,,,,,,,,,447.23965460062027,None,448.0936863999814,None,l,1,0.3438150994479656,448.0936863999814,None,None,None,,,,,,,6,28,female,6,2022_May_05_1301,Partial repeat,2021.2.3,59.896056582069754,
2,2,0,1,3,3,2,1,0,0,1,0,1,1,0,0,37,37,37,,,,,,,,,,,,,,,,,,,,,,,,,,,,,,6,28,female,6,2022_May_05_1301,Partial repeat,2021.2.3,59.896056582069754,
2,2,0,1,3,3,2,2,1,1,1,1,1,1,0,0,38,38,38,0,0,0,0,,,,,,,448.460882300511,None,448.9168037008494,None,449.8971437010914,None,s,1,0.5004556011408567,449.8971437010914,None,None,None,,,,,,,6,28,female,6,2022_May_05_1301,Partial repeat,2021.2.3,59.896056582069754,
2,2,0,1,3,3,2,2,1,1,1,1,1,1,0,0,38,38,38,1,0,1,0,,,,,,,,,450.4084338005632,None,451.13310010172427,None,s,1,0.36040230095386505,451.13310010172427,None,None,None,,,,,,,6,28,female,6,2022_May_05_1301,Partial repeat,2021.2.3,59.896056582069754,
2,2,0,1,3,3,2,2,1,1,1,1,1,1,0,0,38,38,38,,,,,,,,,,,,,,,,,,,,,,,,,,,,,,6,28,female,6,2022_May_05_1301,Partial repeat,2021.2.3,59.896056582069754,
2,2,0,1,3,2,1,1,1,1,0,1,1,1,0,0,39,39,39,0,0,0,0,,,,,,,451.52158450149,None,451.9226158000529,None,452.836155500263,None,s,1,0.47333830036222935,452.836155500263,None,None,None,,,,,,,6,28,female,6,2022_May_05_1301,Partial repeat,2021.2.3,59.896056582069754,
2,2,0,1,3,2,1,1,1,1,0,1,1,1,0,0,39,39,39,1,0,1,0,,,,,,,,,453.3255049008876,None,454.2056067008525,None,s,1,0.4160289987921715,454.2056067008525,None,None,None,,,,,,,6,28,female,6,2022_May_05_1301,Partial repeat,2021.2.3,59.896056582069754,
2,2,0,1,3,2,1,1,1,1,0,1,1,1,0,0,39,39,39,,,,,,,,,,,,,,,,,,,,,,,,,,,,,,6,28,female,6,2022_May_05_1301,Partial repeat,2021.2.3,59.896056582069754,
2,2,0,1,3,3,1,1,0,1,1,1,0,1,0,0,40,40,40,0,0,0,0,,,,,,,454.6358934007585,None,455.1121855005622,None,456.0592071004212,None,l,1,0.5463247001171112,456.0592071004212,None,None,None,,,,,,,6,28,female,6,2022_May_05_1301,Partial repeat,2021.2.3,59.896056582069754,
2,2,0,1,3,3,1,1,0,1,1,1,0,1,0,0,40,40,40,1,0,1,0,,,,,,,,,456.63208260014653,None,457.3959235008806,None,s,1,0.5055775996297598,457.3959235008806,None,None,None,,,,,,,6,28,female,6,2022_May_05_1301,Partial repeat,2021.2.3,59.896056582069754,
2,2,0,1,3,3,1,1,0,1,1,1,0,1,0,0,40,40,40,,,,,,,,,,,,,,,,,,,,,,,,,,,,,,6,28,female,6,2022_May_05_1301,Partial repeat,2021.2.3,59.896056582069754,
2,2,0,1,2,3,2,2,1,1,0,1,1,1,0,0,41,41,41,0,0,0,0,,,,,,,457.91680090129375,None,458.68580520153046,None,459.6999665014446,None,s,1,0.8895361982285976,459.6999665014446,None,None,None,,,,,,,6,28,female,6,2022_May_05_1301,Partial repeat,2021.2.3,59.896056582069754,
2,2,0,1,2,3,2,2,1,1,0,1,1,1,0,0,41,41,41,1,0,1,0,,,,,,,,,460.6116109006107,None,461.55339720100164,None,s,1,0.388094998896122,461.55339720100164,None,None,None,,,,,,,6,28,female,6,2022_May_05_1301,Partial repeat,2021.2.3,59.896056582069754,
2,2,0,1,2,3,2,2,1,1,0,1,1,1,0,0,41,41,41,,,,,,,,,,,,,,,,,,,,,,,,,,,,,,6,28,female,6,2022_May_05_1301,Partial repeat,2021.2.3,59.896056582069754,
2,2,0,1,3,2,1,2,1,1,0,0,1,1,0,0,42,42,42,0,0,0,0,,,,,,,461.96699899993837,None,462.44310929998755,None,463.42363550141454,None,s,1,0.38986409828066826,463.42363550141454,None,None,None,,,,,,,6,28,female,6,2022_May_05_1301,Partial repeat,2021.2.3,59.896056582069754,
2,2,0,1,3,2,1,2,1,1,0,0,1,1,0,0,42,42,42,1,0,1,0,,,,,,,,,463.8256679009646,None,464.8270803000778,None,s,1,0.3304558005183935,464.8270803000778,None,None,None,,,,,,,6,28,female,6,2022_May_05_1301,Partial repeat,2021.2.3,59.896056582069754,
2,2,0,1,3,2,1,2,1,1,0,0,1,1,0,0,42,42,42,,,,,,,,,,,,,,,,,,,,,,,,,,,,,,6,28,female,6,2022_May_05_1301,Partial repeat,2021.2.3,59.896056582069754,
2,2,0,1,2,2,1,1,0,1,1,1,0,1,0,0,43,43,43,0,0,0,0,,,,,,,465.173668500036,None,465.7327841017395,None,466.61299470067024,None,l,1,0.4565887991338968,466.61299470067024,None,None,None,,,,,,,6,28,female,6,2022_May_05_1301,Partial repeat,2021.2.3,59.896056582069754,
2,2,0,1,2,2,1,1,0,1,1,1,0,1,0,0,43,43,43,1,0,1,0,,,,,,,,,467.0791959017515,None,468.0992256011814,None,s,1,0.3942725993692875,468.0992256011814,None,None,None,,,,,,,6,28,female,6,2022_May_05_1301,Partial repeat,2021.2.3,59.896056582069754,
2,2,0,1,2,2,1,1,0,1,1,1,0,1,0,0,43,43,43,,,,,,,,,,,,,,,,,,,,,,,,,,,,,,6,28,female,6,2022_May_05_1301,Partial repeat,2021.2.3,59.896056582069754,
2,2,0,1,3,2,1,2,1,0,0,0,0,1,0,0,44,44,44,0,0,0,0,,,,,,,468.5084284003824,None,468.90567630156875,None,469.83589830063283,None,s,1,0.5055440999567509,469.83589830063283,None,None,None,,,,,,,6,28,female,6,2022_May_05_1301,Partial repeat,2021.2.3,59.896056582069754,
2,2,0,1,3,2,1,2,1,0,0,0,0,1,0,0,44,44,44,1,0,1,0,,,,,,,,,470.35428670048714,None,471.2888137008995,None,l,1,0.3886868003755808,471.2888137008995,None,None,None,,,,,,,6,28,female,6,2022_May_05_1301,Partial repeat,2021.2.3,59.896056582069754,
2,2,0,1,3,2,1,2,1,0,0,0,0,1,0,0,44,44,44,,,,,,,,,,,,,,,,,,,,,,,,,,,,,,6,28,female,6,2022_May_05_1301,Partial repeat,2021.2.3,59.896056582069754,
2,2,0,1,3,2,2,1,1,0,0,0,0,1,0,0,45,45,45,0,0,0,0,,,,,,,471.69798700138927,None,472.1453293003142,None,472.8928568009287,None,s,1,0.6966449003666639,472.8928568009287,None,None,None,,,,,,,6,28,female,6,2022_May_05_1301,Partial repeat,2021.2.3,59.896056582069754,
2,2,0,1,3,2,2,1,1,0,0,0,0,1,0,0,45,45,45,1,0,1,0,,,,,,,,,473.6021211016923,None,474.3950898014009,None,l,1,0.3944129999727011,474.3950898014009,None,None,None,,,,,,,6,28,female,6,2022_May_05_1301,Partial repeat,2021.2.3,59.896056582069754,
2,2,0,1,3,2,2,1,1,0,0,0,0,1,0,0,45,45,45,,,,,,,,,,,,,,,,,,,,,,,,,,,,,,6,28,female,6,2022_May_05_1301,Partial repeat,2021.2.3,59.896056582069754,
2,2,0,1,3,3,1,2,0,0,1,0,1,1,0,0,46,46,46,0,0,0,0,,,,,,,474.8040317017585,None,475.2346686013043,None,476.1316063012928,None,l,1,0.48989659920334816,476.1316063012928,None,None,None,,,,,,,6,28,female,6,2022_May_05_1301,Partial repeat,2021.2.3,59.896056582069754,
2,2,0,1,3,3,1,2,0,0,1,0,1,1,0,0,46,46,46,1,0,1,0,,,,,,,,,476.6387841999531,None,477.41763570159674,None,l,1,0.41190450079739094,477.41763570159674,None,None,None,,,,,,,6,28,female,6,2022_May_05_1301,Partial repeat,2021.2.3,59.896056582069754,
2,2,0,1,3,3,1,2,0,0,1,0,1,1,0,0,46,46,46,,,,,,,,,,,,,,,,,,,,,,,,,,,,,,6,28,female,6,2022_May_05_1301,Partial repeat,2021.2.3,59.896056582069754,
2,2,0,1,2,2,1,2,0,0,1,0,1,1,0,0,47,47,47,0,0,0,0,,,,,,,477.8495847005397,None,478.34072310104966,None,479.3551064003259,None,l,1,0.3863402996212244,479.3551064003259,None,None,None,,,,,,,6,28,female,6,2022_May_05_1301,Partial repeat,2021.2.3,59.896056582069754,
2,2,0,1,2,2,1,2,0,0,1,0,1,1,0,0,47,47,47,1,0,1,0,,,,,,,,,479.76222570054233,None,480.60688990168273,None,l,1,0.3906148001551628,480.60688990168273,None,None,None,,,,,,,6,28,female,6,2022_May_05_1301,Partial repeat,2021.2.3,59.896056582069754,
2,2,0,1,2,2,1,2,0,0,1,0,1,1,0,0,47,47,47,,,,,,,,,,,,,,,,,,,,,,,,,,,,,,6,28,female,6,2022_May_05_1301,Partial repeat,2021.2.3,59.896056582069754,
2,2,0,1,3,2,1,2,0,0,0,0,1,1,0,0,48,48,48,0,0,0,0,,,,,,,481.0177447013557,None,481.54695300012827,None,482.2935495004058,None,l,1,0.3759129997342825,482.2935495004058,None,None,None,,,,,,,6,28,female,6,2022_May_05_1301,Partial repeat,2021.2.3,59.896056582069754,
2,2,0,1,3,2,1,2,0,0,0,0,1,1,0,0,48,48,48,1,0,1,0,,,,,,,,,482.68089320138097,None,483.5964182000607,None,l,1,0.36113050021231174,483.5964182000607,None,None,None,,,,,,,6,28,female,6,2022_May_05_1301,Partial repeat,2021.2.3,59.896056582069754,
2,2,0,1,3,2,1,2,0,0,0,0,1,1,0,0,48,48,48,,,,,,,,,,,,,,,,,,,,,,,,,,,,,,6,28,female,6,2022_May_05_1301,Partial repeat,2021.2.3,59.896056582069754,
2,2,0,1,2,3,2,2,0,0,0,1,1,1,0,0,49,49,49,0,0,0,0,,,,,,,483.9865918010473,None,484.4526095017791,None,485.23259459994733,None,l,1,0.4049037005752325,485.23259459994733,None,None,None,,,,,,,6,28,female,6,2022_May_05_1301,Partial repeat,2021.2.3,59.896056582069754,
2,2,0,1,2,3,2,2,0,0,0,1,1,1,0,0,49,49,49,1,0,1,0,,,,,,,,,485.66123530082405,None,486.4348469004035,None,l,1,0.3786939997226,486.4348469004035,None,None,None,,,,,,,6,28,female,6,2022_May_05_1301,Partial repeat,2021.2.3,59.896056582069754,
2,2,0,1,2,3,2,2,0,0,0,1,1,1,0,0,49,49,49,,,,,,,,,,,,,,,,,,,,,,,,,,,,,,6,28,female,6,2022_May_05_1301,Partial repeat,2021.2.3,59.896056582069754,
2,2,0,1,3,2,1,1,1,0,0,1,0,1,0,0,50,50,50,0,0,0,0,,,,,,,486.8424953017384,None,487.24120470136404,None,488.15495480038226,None,s,1,0.4425230994820595,488.15495480038226,None,None,None,,,,,,,6,28,female,6,2022_May_05_1301,Partial repeat,2021.2.3,59.896056582069754,
2,2,0,1,3,2,1,1,1,0,0,1,0,1,0,0,50,50,50,1,0,1,0,,,,,,,,,488.6261198017746,None,489.3907140009105,None,l,1,0.35078289918601513,489.3907140009105,None,None,None,,,,,,,6,28,female,6,2022_May_05_1301,Partial repeat,2021.2.3,59.896056582069754,
2,2,0,1,3,2,1,1,1,0,0,1,0,1,0,0,50,50,50,,,,,,,,,,,,,,,,,,,,,,,,,,,,,,6,28,female,6,2022_May_05_1301,Partial repeat,2021.2.3,59.896056582069754,
2,2,0,1,2,2,2,2,1,1,1,1,1,1,0,0,51,51,51,0,0,0,0,,,,,,,489.7613309007138,None,490.13033050112426,None,490.96087280102074,None,s,1,0.5726223010569811,490.96087280102074,None,None,None,,,,,,,6,28,female,6,2022_May_05_1301,Partial repeat,2021.2.3,59.896056582069754,
2,2,0,1,2,2,2,2,1,1,1,1,1,1,0,0,51,51,51,1,0,1,0,,,,,,,,,491.5546911004931,None,492.4134072009474,None,s,1,0.4241022001951933,492.4134072009474,None,None,None,,,,,,,6,28,female,6,2022_May_05_1301,Partial repeat,2021.2.3,59.896056582069754,
2,2,0,1,2,2,2,2,1,1,1,1,1,1,0,0,51,51,51,,,,,,,,,,,,,,,,,,,,,,,,,,,,,,6,28,female,6,2022_May_05_1301,Partial repeat,2021.2.3,59.896056582069754,
2,2,0,1,2,3,2,2,1,0,0,1,0,1,0,0,52,52,52,0,0,0,0,,,,,,,492.8653877004981,None,493.26977590098977,None,494.2501909006387,None,s,1,0.5313108004629612,494.2501909006387,None,None,None,,,,,,,6,28,female,6,2022_May_05_1301,Partial repeat,2021.2.3,59.896056582069754,
2,2,0,1,2,3,2,2,1,0,0,1,0,1,0,0,52,52,52,1,0,1,0,,,,,,,,,494.8023787010461,None,495.7032701000571,None,l,1,0.35821780003607273,495.7032701000571,None,None,None,,,,,,,6,28,female,6,2022_May_05_1301,Partial repeat,2021.2.3,59.896056582069754,
2,2,0,1,2,3,2,2,1,0,0,1,0,1,0,0,52,52,52,,,,,,,,,,,,,,,,,,,,,,,,,,,,,,6,28,female,6,2022_May_05_1301,Partial repeat,2021.2.3,59.896056582069754,
2,2,0,1,3,3,2,2,0,1,1,1,0,1,0,0,53,53,53,0,0,0,0,,,,,,,496.0885521005839,None,496.47595380060375,None,497.3898764010519,None,l,1,0.4556185994297266,497.3898764010519,None,None,None,,,,,,,6,28,female,6,2022_May_05_1301,Partial repeat,2021.2.3,59.896056582069754,
2,2,0,1,3,3,2,2,0,1,1,1,0,1,0,0,53,53,53,1,0,1,0,,,,,,,,,497.85872500017285,None,498.8759971000254,None,s,1,0.40956819988787174,498.8759971000254,None,None,None,,,,,,,6,28,female,6,2022_May_05_1301,Partial repeat,2021.2.3,59.896056582069754,
2,2,0,1,3,3,2,2,0,1,1,1,0,1,0,0,53,53,53,,,,,,,,,,,,,,,,,,,,,,,,,,,,,,6,28,female,6,2022_May_05_1301,Partial repeat,2021.2.3,59.896056582069754,
2,2,0,1,3,3,1,2,1,0,1,0,0,1,0,0,54,54,54,0,0,0,0,,,,,,,499.31815440021455,None,499.69878120161593,None,500.6458884011954,None,s,1,0.4396071992814541,500.6458884011954,None,None,None,,,,,,,6,28,female,6,2022_May_05_1301,Partial repeat,2021.2.3,59.896056582069754,
2,2,0,1,3,3,1,2,1,0,1,0,0,1,0,0,54,54,54,1,0,1,0,,,,,,,,,501.09483650140464,None,501.8150047007948,None,l,1,0.38252140022814274,501.8150047007948,None,None,None,,,,,,,6,28,female,6,2022_May_05_1301,Partial repeat,2021.2.3,59.896056582069754,
2,2,0,1,3,3,1,2,1,0,1,0,0,1,0,0,54,54,54,,,,,,,,,,,,,,,,,,,,,,,,,,,,,,6,28,female,6,2022_May_05_1301,Partial repeat,2021.2.3,59.896056582069754,
2,2,0,1,3,3,2,1,1,0,1,0,0,1,0,0,55,55,55,0,0,0,0,,,,,,,502.2267433013767,None,502.6212666016072,None,503.5348665006459,None,s,1,0.6066890005022287,503.5348665006459,None,None,None,,,,,,,6,28,female,6,2022_May_05_1301,Partial repeat,2021.2.3,59.896056582069754,
2,2,0,1,3,3,2,1,1,0,1,0,0,1,0,0,55,55,55,1,0,1,0,,,,,,,,,504.1503629013896,None,504.97147500142455,None,l,1,0.4820639006793499,504.97147500142455,None,None,None,,,,,,,6,28,female,6,2022_May_05_1301,Partial repeat,2021.2.3,59.896056582069754,
2,2,0,1,3,3,2,1,1,0,1,0,0,1,0,0,55,55,55,,,,,,,,,,,,,,,,,,,,,,,,,,,,,,6,28,female,6,2022_May_05_1301,Partial repeat,2021.2.3,59.896056582069754,
2,2,0,1,2,2,2,2,1,0,1,1,0,1,0,0,56,56,56,0,0,0,0,,,,,,,505.4685242008418,None,505.92773190140724,None,506.7922809999436,None,s,1,0.46128580160439014,506.7922809999436,None,None,None,,,,,,,6,28,female,6,2022_May_05_1301,Partial repeat,2021.2.3,59.896056582069754,
2,2,0,1,2,2,2,2,1,0,1,1,0,1,0,0,56,56,56,1,0,1,0,,,,,,,,,507.27615300007164,None,508.1771981008351,None,l,1,0.37233980000019073,508.1771981008351,None,None,None,,,,,,,6,28,female,6,2022_May_05_1301,Partial repeat,2021.2.3,59.896056582069754,
2,2,0,1,2,2,2,2,1,0,1,1,0,1,0,0,56,56,56,,,,,,,,,,,,,,,,,,,,,,,,,,,,,,6,28,female,6,2022_May_05_1301,Partial repeat,2021.2.3,59.896056582069754,
2,2,0,1,3,3,1,1,0,0,1,1,1,1,0,0,57,57,57,0,0,0,0,,,,,,,508.5670254006982,None,508.93357670120895,None,509.697050601244,None,l,1,0.5084474999457598,509.697050601244,None,None,None,,,,,,,6,28,female,6,2022_May_05_1301,Partial repeat,2021.2.3,59.896056582069754,
2,2,0,1,3,3,1,1,0,0,1,1,1,1,0,0,57,57,57,1,0,1,0,,,,,,,,,510.22857420146465,None,511.04978680051863,None,l,1,0.4196879006922245,511.04978680051863,None,None,None,,,,,,,6,28,female,6,2022_May_05_1301,Partial repeat,2021.2.3,59.896056582069754,
2,2,0,1,3,3,1,1,0,0,1,1,1,1,0,0,57,57,57,,,,,,,,,,,,,,,,,,,,,,,,,,,,,,6,28,female,6,2022_May_05_1301,Partial repeat,2021.2.3,59.896056582069754,
2,2,0,1,2,2,1,2,1,0,1,0,0,1,0,0,58,58,58,0,0,0,0,,,,,,,511.5003517009318,None,512.0730328001082,None,513.0369124002755,None,s,1,0.5046171993017197,513.0369124002755,None,None,None,,,,,,,6,28,female,6,2022_May_05_1301,Partial repeat,2021.2.3,59.896056582069754,
2,2,0,1,2,2,1,2,1,0,1,0,0,1,0,0,58,58,58,1,0,1,0,,,,,,,,,513.5686281006783,None,514.3570810016245,None,l,1,0.4405178017914295,514.3570810016245,None,None,None,,,,,,,6,28,female,6,2022_May_05_1301,Partial repeat,2021.2.3,59.896056582069754,
2,2,0,1,2,2,1,2,1,0,1,0,0,1,0,0,58,58,58,,,,,,,,,,,,,,,,,,,,,,,,,,,,,,6,28,female,6,2022_May_05_1301,Partial repeat,2021.2.3,59.896056582069754,
2,2,0,1,2,2,1,1,1,1,1,1,1,1,0,0,59,59,59,0,0,0,0,,,,,,,514.8106411006302,None,515.5130481999367,None,516.3273442015052,None,s,1,0.5181253999471664,516.3273442015052,None,None,None,,,,,,,6,28,female,6,2022_May_05_1301,Partial repeat,2021.2.3,59.896056582069754,
2,2,0,1,2,2,1,1,1,1,1,1,1,1,0,0,59,59,59,1,0,1,0,,,,,,,,,516.8612376004457,None,517.7132912017405,None,s,1,0.4522147011011839,517.7132912017405,None,None,None,,,,,,,6,28,female,6,2022_May_05_1301,Partial repeat,2021.2.3,59.896056582069754,
2,2,0,1,2,2,1,1,1,1,1,1,1,1,0,0,59,59,59,,,,,,,,,,,,,,,,,,,,,,,,,,,,,,6,28,female,6,2022_May_05_1301,Partial repeat,2021.2.3,59.896056582069754,
2,2,0,1,2,2,1,1,0,0,1,1,1,1,0,0,60,60,60,0,0,0,0,,,,,,,518.1868775002658,None,518.6191038005054,None,519.365923801437,None,l,1,0.49558329954743385,519.365923801437,None,None,None,,,,,,,6,28,female,6,2022_May_05_1301,Partial repeat,2021.2.3,59.896056582069754,
2,2,0,1,2,2,1,1,0,0,1,1,1,1,0,0,60,60,60,1,0,1,0,,,,,,,,,519.8769916016608,None,520.6518255006522,None,l,1,0.3697231002151966,520.6518255006522,None,None,None,,,,,,,6,28,female,6,2022_May_05_1301,Partial repeat,2021.2.3,59.896056582069754,
2,2,0,1,2,2,1,1,0,0,1,1,1,1,0,0,60,60,60,,,,,,,,,,,,,,,,,,,,,,,,,,,,,,6,28,female,6,2022_May_05_1301,Partial repeat,2021.2.3,59.896056582069754,
2,2,0,1,2,2,2,2,0,1,1,1,0,1,0,0,61,61,61,0,0,0,0,,,,,,,521.0428903009742,None,521.4913319014013,None,522.3214450012892,None,l,1,0.3801566008478403,522.3214450012892,None,None,None,,,,,,,6,28,female,6,2022_May_05_1301,Partial repeat,2021.2.3,59.896056582069754,
2,2,0,1,2,2,2,2,0,1,1,1,0,1,0,0,61,61,61,1,0,1,0,,,,,,,,,522.7102501001209,None,523.4404563009739,None,s,1,1.2370516993105412,523.4404563009739,None,None,None,,,,,,,6,28,female,6,2022_May_05_1301,Partial repeat,2021.2.3,59.896056582069754,
2,2,0,1,2,2,2,2,0,1,1,1,0,1,0,0,61,61,61,,,,,,,,,,,,,,,,,,,,,,,,,,,,,,6,28,female,6,2022_May_05_1301,Partial repeat,2021.2.3,59.896056582069754,
2,2,0,1,2,2,1,2,0,1,1,0,0,1,0,0,62,62,62,0,0,0,0,,,,,,,524.7038839012384,None,525.3154699001461,None,526.0788974016905,None,l,1,0.4226073995232582,526.0788974016905,None,None,None,,,,,,,6,28,female,6,2022_May_05_1301,Partial repeat,2021.2.3,59.896056582069754,
2,2,0,1,2,2,1,2,0,1,1,0,0,1,0,0,62,62,62,1,0,1,0,,,,,,,,,526.5277179013938,None,527.5482797008008,None,s,1,0.35323469899594784,527.5482797008008,None,None,None,,,,,,,6,28,female,6,2022_May_05_1301,Partial repeat,2021.2.3,59.896056582069754,
2,2,0,1,2,2,1,2,0,1,1,0,0,1,0,0,62,62,62,,,,,,,,,,,,,,,,,,,,,,,,,,,,,,6,28,female,6,2022_May_05_1301,Partial repeat,2021.2.3,59.896056582069754,
2,2,0,1,3,2,1,1,0,0,0,1,1,1,0,0,63,63,63,0,0,0,0,,,,,,,527.9155029002577,None,528.3713798001409,None,529.1680684015155,None,l,1,0.42144469916820526,529.1680684015155,None,None,None,,,,,,,6,28,female,6,2022_May_05_1301,Partial repeat,2021.2.3,59.896056582069754,
2,2,0,1,3,2,1,1,0,0,0,1,1,1,0,0,63,63,63,1,0,1,0,,,,,,,,,529.6160922013223,None,530.3705315999687,None,l,1,0.4189579002559185,530.3705315999687,None,None,None,,,,,,,6,28,female,6,2022_May_05_1301,Partial repeat,2021.2.3,59.896056582069754,
2,2,0,1,3,2,1,1,0,0,0,1,1,1,0,0,63,63,63,,,,,,,,,,,,,,,,,,,,,,,,,,,,,,6,28,female,6,2022_May_05_1301,Partial repeat,2021.2.3,59.896056582069754,
8,8,0,1,2,3,2,2,1,1,0,1,1,0,0,0,64,64,64,0,0,0,0,,,,,,,536.3491131011397,None,537.1718165017664,None,538.0864578001201,None,s,1,1.4870517011731863,538.0864578001201,None,None,None,,,,,,,6,28,female,6,2022_May_05_1301,Partial repeat,2021.2.3,59.896056582069754,
8,8,0,1,2,3,2,2,1,1,0,1,1,0,0,0,64,64,64,1,0,1,0,,,,,,,,,539.591508500278,None,540.5905522014946,None,s,1,0.4709534998983145,540.5905522014946,None,None,None,,,,,,,6,28,female,6,2022_May_05_1301,Partial repeat,2021.2.3,59.896056582069754,
8,8,0,1,2,3,2,2,1,1,0,1,1,0,0,0,64,64,64,,,,,,,,,,,,,,,,,,,,,,,,,,,,,,6,28,female,6,2022_May_05_1301,Partial repeat,2021.2.3,59.896056582069754,
5,4,0,1,2,2,2,1,1,1,1,0,1,0,0,0,65,65,65,0,0,0,0,,,,,,,541.0833656005561,None,541.5803992003202,None,542.4776680003852,None,s,1,0.9198559001088142,542.4776680003852,None,None,None,,,,,,,6,28,female,6,2022_May_05_1301,Partial repeat,2021.2.3,59.896056582069754,
5,4,0,1,2,2,2,1,1,1,1,0,1,0,0,0,65,65,65,1,0,1,0,,,,,,,,,543.4061730001122,None,544.3980897013098,None,s,1,0.6634790990501642,544.3980897013098,None,None,None,,,,,,,6,28,female,6,2022_May_05_1301,Partial repeat,2021.2.3,59.896056582069754,
5,4,0,1,2,2,2,1,1,1,1,0,1,0,0,0,65,65,65,,,,,,,,,,,,,,,,,,,,,,,,,,,,,,6,28,female,6,2022_May_05_1301,Partial repeat,2021.2.3,59.896056582069754,
6,5,0,1,2,2,2,1,0,1,1,0,0,0,0,0,66,66,66,0,0,0,0,,,,,,,545.0803968012333,None,545.5380081012845,None,546.2849743012339,None,l,1,0.7045782003551722,546.2849743012339,None,None,None,,,,,,,6,28,female,6,2022_May_05_1301,Partial repeat,2021.2.3,59.896056582069754,
6,5,0,1,2,2,2,1,0,1,1,0,0,0,0,0,66,66,66,1,0,1,0,,,,,,,,,547.0045326016843,None,547.888027401641,None,s,1,0.6374580003321171,547.888027401641,None,None,None,,,,,,,6,28,female,6,2022_May_05_1301,Partial repeat,2021.2.3,59.896056582069754,
6,5,0,1,2,2,2,1,0,1,1,0,0,0,0,0,66,66,66,,,,,,,,,,,,,,,,,,,,,,,,,,,,,,6,28,female,6,2022_May_05_1301,Partial repeat,2021.2.3,59.896056582069754,
5,2,0,1,2,2,2,2,0,0,1,1,1,0,0,0,67,67,67,0,0,0,0,,,,,,,548.5478578004986,None,548.8445770014077,None,549.8418870009482,None,l,1,0.6276080999523401,549.8418870009482,None,None,None,,,,,,,6,28,female,6,2022_May_05_1301,Partial repeat,2021.2.3,59.896056582069754,
5,2,0,1,2,2,2,2,0,0,1,1,1,0,0,0,67,67,67,1,0,1,0,,,,,,,,,550.4817850012332,None,551.2107850015163,None,l,1,0.7468075007200241,551.2107850015163,None,None,None,,,,,,,6,28,female,6,2022_May_05_1301,Partial repeat,2021.2.3,59.896056582069754,
5,2,0,1,2,2,2,2,0,0,1,1,1,0,0,0,67,67,67,,,,,,,,,,,,,,,,,,,,,,,,,,,,,,6,28,female,6,2022_May_05_1301,Partial repeat,2021.2.3,59.896056582069754,
1,6,0,1,3,3,2,1,1,1,1,0,1,0,0,0,68,68,68,0,0,0,0,,,,,,,551.976607600227,None,552.3179705999792,None,553.2317784000188,None,s,1,0.6537503004074097,553.2317784000188,None,None,None,,,,,,,6,28,female,6,2022_May_05_1301,Partial repeat,2021.2.3,59.896056582069754,
1,6,0,1,3,3,2,1,1,1,1,0,1,0,0,0,68,68,68,1,0,1,0,,,,,,,,,553.9097112007439,None,554.6676088999957,None,s,1,0.8338937014341354,554.6676088999957,None,None,None,,,,,,,6,28,female,6,2022_May_05_1301,Partial repeat,2021.2.3,59.896056582069754,
1,6,0,1,3,3,2,1,1,1,1,0,1,0,0,0,68,68,68,,,,,,,,,,,,,,,,,,,,,,,,,,,,,,6,28,female,6,2022_May_05_1301,Partial repeat,2021.2.3,59.896056582069754,
7,4,0,1,3,3,2,1,1,0,1,0,0,0,0,0,69,69,69,0,0,0,0,,,,,,,555.5261632017791,None,556.4760607015342,None,557.4230973999947,None,s,1,1.1264066994190216,557.4230973999947,None,None,None,,,,,,,6,28,female,6,2022_May_05_1301,Partial repeat,2021.2.3,59.896056582069754,
7,4,0,1,3,3,2,1,1,0,1,0,0,0,0,0,69,69,69,1,0,1,0,,,,,,,,,558.5670568011701,None,559.3771731015295,None,l,1,0.6764045003801584,559.3771731015295,None,None,None,,,,,,,6,28,female,6,2022_May_05_1301,Partial repeat,2021.2.3,59.896056582069754,
7,4,0,1,3,3,2,1,1,0,1,0,0,0,0,0,69,69,69,,,,,,,,,,,,,,,,,,,,,,,,,,,,,,6,28,female,6,2022_May_05_1301,Partial repeat,2021.2.3,59.896056582069754,
5,5,0,1,3,2,1,2,1,1,0,0,1,0,0,0,70,70,70,0,0,0,0,,,,,,,560.0824322011322,None,560.4839021004736,None,561.397463100031,None,s,1,0.6241129003465176,561.397463100031,None,None,None,,,,,,,6,28,female,6,2022_May_05_1301,Partial repeat,2021.2.3,59.896056582069754,
5,5,0,1,3,2,1,2,1,1,0,0,1,0,0,0,70,70,70,1,0,1,0,,,,,,,,,562.0314984004945,None,562.9673278015107,None,s,1,0.582183999940753,562.9673278015107,None,None,None,,,,,,,6,28,female,6,2022_May_05_1301,Partial repeat,2021.2.3,59.896056582069754,
5,5,0,1,3,2,1,2,1,1,0,0,1,0,0,0,70,70,70,,,,,,,,,,,,,,,,,,,,,,,,,,,,,,6,28,female,6,2022_May_05_1301,Partial repeat,2021.2.3,59.896056582069754,
4,4,0,1,2,3,1,2,0,0,0,0,1,0,0,0,71,71,71,0,0,0,0,,,,,,,563.5690496005118,None,563.940652500838,None,564.7543691005558,None,l,1,0.6751170996576548,564.7543691005558,None,None,None,,,,,,,6,28,female,6,2022_May_05_1301,Partial repeat,2021.2.3,59.896056582069754,
4,4,0,1,2,3,1,2,0,0,0,0,1,0,0,0,71,71,71,1,0,1,0,,,,,,,,,565.4521612003446,None,566.3584070000798,None,l,1,0.6550479996949434,566.3584070000798,None,None,None,,,,,,,6,28,female,6,2022_May_05_1301,Partial repeat,2021.2.3,59.896056582069754,
4,4,0,1,2,3,1,2,0,0,0,0,1,0,0,0,71,71,71,,,,,,,,,,,,,,,,,,,,,,,,,,,,,,6,28,female,6,2022_May_05_1301,Partial repeat,2021.2.3,59.896056582069754,
8,5,0,1,3,3,1,2,0,0,1,0,1,0,0,0,72,72,72,0,0,0,0,,,,,,,567.0249683000147,None,567.3973505012691,None,568.1606083009392,None,l,1,0.6049579009413719,568.1606083009392,None,None,None,,,,,,,6,28,female,6,2022_May_05_1301,Partial repeat,2021.2.3,59.896056582069754,
8,5,0,1,3,3,1,2,0,0,1,0,1,0,0,0,72,72,72,1,0,1,0,,,,,,,,,568.7789571005851,None,569.5974456015974,None,l,1,0.624065101146698,569.5974456015974,None,None,None,,,,,,,6,28,female,6,2022_May_05_1301,Partial repeat,2021.2.3,59.896056582069754,
8,5,0,1,3,3,1,2,0,0,1,0,1,0,0,0,72,72,72,,,,,,,,,,,,,,,,,,,,,,,,,,,,,,6,28,female,6,2022_May_05_1301,Partial repeat,2021.2.3,59.896056582069754,
1,4,0,1,3,3,1,1,0,1,1,1,0,0,0,0,73,73,73,0,0,0,0,,,,,,,570.237342800945,None,570.6536905001849,None,571.6518590003252,None,l,1,0.5856778007000685,571.6518590003252,None,None,None,,,,,,,6,28,female,6,2022_May_05_1301,Partial repeat,2021.2.3,59.896056582069754,
1,4,0,1,3,3,1,1,0,1,1,1,0,0,0,0,73,73,73,1,0,1,0,,,,,,,,,572.266070401296,None,573.1535876002163,None,s,1,0.6519297007471323,573.1535876002163,None,None,None,,,,,,,6,28,female,6,2022_May_05_1301,Partial repeat,2021.2.3,59.896056582069754,
1,4,0,1,3,3,1,1,0,1,1,1,0,0,0,0,73,73,73,,,,,,,,,,,,,,,,,,,,,,,,,,,,,,6,28,female,6,2022_May_05_1301,Partial repeat,2021.2.3,59.896056582069754,
8,7,0,1,2,2,1,2,0,0,1,0,1,0,0,0,74,74,74,0,0,0,0,,,,,,,573.8157931007445,None,574.160481300205,None,575.1742312014103,None,l,1,0.6312691997736692,575.1742312014103,None,None,None,,,,,,,6,28,female,6,2022_May_05_1301,Partial repeat,2021.2.3,59.896056582069754,
8,7,0,1,2,2,1,2,0,0,1,0,1,0,0,0,74,74,74,1,0,1,0,,,,,,,,,575.8311239015311,None,576.8447011001408,None,l,1,0.5528024006634951,576.8447011001408,None,None,None,,,,,,,6,28,female,6,2022_May_05_1301,Partial repeat,2021.2.3,59.896056582069754,
8,7,0,1,2,2,1,2,0,0,1,0,1,0,0,0,74,74,74,,,,,,,,,,,,,,,,,,,,,,,,,,,,,,6,28,female,6,2022_May_05_1301,Partial repeat,2021.2.3,59.896056582069754,
4,2,0,1,3,2,1,2,0,0,0,0,1,0,0,0,75,75,75,0,0,0,0,,,,,,,577.4219640009105,None,577.7675258014351,None,578.7649883013219,None,l,1,0.5205403007566929,578.7649883013219,None,None,None,,,,,,,6,28,female,6,2022_May_05_1301,Partial repeat,2021.2.3,59.896056582069754,
4,2,0,1,3,2,1,2,0,0,0,0,1,0,0,0,75,75,75,1,0,1,0,,,,,,,,,579.2961095999926,None,580.3008764013648,None,l,1,0.6086301989853382,580.3008764013648,None,None,None,,,,,,,6,28,female,6,2022_May_05_1301,Partial repeat,2021.2.3,59.896056582069754,
4,2,0,1,3,2,1,2,0,0,0,0,1,0,0,0,75,75,75,,,,,,,,,,,,,,,,,,,,,,,,,,,,,,6,28,female,6,2022_May_05_1301,Partial repeat,2021.2.3,59.896056582069754,
6,6,0,1,2,2,1,2,0,1,1,0,0,0,0,0,76,76,76,0,0,0,0,,,,,,,580.9225814007223,None,581.2910301014781,None,582.0376641005278,None,l,1,0.5598456002771854,582.0376641005278,None,None,None,,,,,,,6,28,female,6,2022_May_05_1301,Partial repeat,2021.2.3,59.896056582069754,
6,6,0,1,2,2,1,2,0,1,1,0,0,0,0,0,76,76,76,1,0,1,0,,,,,,,,,582.6101431008428,None,583.590687200427,None,s,1,0.6309165991842747,583.590687200427,None,None,None,,,,,,,6,28,female,6,2022_May_05_1301,Partial repeat,2021.2.3,59.896056582069754,
6,6,0,1,2,2,1,2,0,1,1,0,0,0,0,0,76,76,76,,,,,,,,,,,,,,,,,,,,,,,,,,,,,,6,28,female,6,2022_May_05_1301,Partial repeat,2021.2.3,59.896056582069754,
8,1,0,1,3,3,2,1,0,0,1,0,1,0,0,0,77,77,77,0,0,0,0,,,,,,,584.2346018012613,None,584.6475343015045,None,585.477882200852,None,l,1,0.4875639006495476,585.477882200852,None,None,None,,,,,,,6,28,female,6,2022_May_05_1301,Partial repeat,2021.2.3,59.896056582069754,
8,1,0,1,3,3,2,1,0,0,1,0,1,0,0,0,77,77,77,1,0,1,0,,,,,,,,,585.9876156002283,None,586.9638863001019,None,l,1,0.5376228000968695,586.9638863001019,None,None,None,,,,,,,6,28,female,6,2022_May_05_1301,Partial repeat,2021.2.3,59.896056582069754,
8,1,0,1,3,3,2,1,0,0,1,0,1,0,0,0,77,77,77,,,,,,,,,,,,,,,,,,,,,,,,,,,,,,6,28,female,6,2022_May_05_1301,Partial repeat,2021.2.3,59.896056582069754,
2,3,0,1,2,2,1,2,1,0,1,0,0,0,0,0,78,78,78,0,0,0,0,,,,,,,587.5243437010795,None,588.0542108006775,None,588.8683318011463,None,s,1,0.6012388989329338,588.8683318011463,None,None,None,,,,,,,6,28,female,6,2022_May_05_1301,Partial repeat,2021.2.3,59.896056582069754,
2,3,0,1,2,2,1,2,1,0,1,0,0,0,0,0,78,78,78,1,0,1,0,,,,,,,,,589.4783846009523,None,590.4383745007217,None,l,1,0.5991402994841337,590.4383745007217,None,None,None,,,,,,,6,28,female,6,2022_May_05_1301,Partial repeat,2021.2.3,59.896056582069754,
2,3,0,1,2,2,1,2,1,0,1,0,0,0,0,0,78,78,78,,,,,,,,,,,,,,,,,,,,,,,,,,,,,,6,28,female,6,2022_May_05_1301,Partial repeat,2021.2.3,59.896056582069754,
3,6,0,1,2,3,2,1,0,1,0,0,0,0,0,0,79,79,79,0,0,0,0,,,,,,,591.0632338002324,None,591.3940427005291,None,592.2909927014261,None,l,1,0.9466722998768091,592.2909927014261,None,None,None,,,,,,,6,28,female,6,2022_May_05_1301,Partial repeat,2021.2.3,59.896056582069754,
3,6,0,1,2,3,2,1,0,1,0,0,0,0,0,0,79,79,79,1,0,1,0,,,,,,,,,593.2469298001379,None,594.1779441013932,None,s,1,0.44353730045259,594.1779441013932,None,None,None,,,,,,,6,28,female,6,2022_May_05_1301,Partial repeat,2021.2.3,59.896056582069754,
3,6,0,1,2,3,2,1,0,1,0,0,0,0,0,0,79,79,79,,,,,,,,,,,,,,,,,,,,,,,,,,,,,,6,28,female,6,2022_May_05_1301,Partial repeat,2021.2.3,59.896056582069754,
1,7,0,1,2,2,2,2,0,1,1,1,0,0,0,0,80,80,80,0,0,0,0,,,,,,,594.6497166007757,None,595.0177113004029,None,595.747848900035,None,l,1,0.5216137003153563,595.747848900035,None,None,None,,,,,,,6,28,female,6,2022_May_05_1301,Partial repeat,2021.2.3,59.896056582069754,
1,7,0,1,2,2,2,2,0,1,1,1,0,0,0,0,80,80,80,1,0,1,0,,,,,,,,,596.2809803001583,None,597.1004301011562,None,s,1,0.6330118998885155,597.1004301011562,None,None,None,,,,,,,6,28,female,6,2022_May_05_1301,Partial repeat,2021.2.3,59.896056582069754,
1,7,0,1,2,2,2,2,0,1,1,1,0,0,0,0,80,80,80,,,,,,,,,,,,,,,,,,,,,,,,,,,,,,6,28,female,6,2022_May_05_1301,Partial repeat,2021.2.3,59.896056582069754,
2,1,0,1,2,3,2,2,0,1,0,1,0,0,0,0,81,81,81,0,0,0,0,,,,,,,597.7640592008829,None,598.0570073015988,None,598.9371288008988,None,l,1,0.5323914010077715,598.9371288008988,None,None,None,,,,,,,6,28,female,6,2022_May_05_1301,Partial repeat,2021.2.3,59.896056582069754,
2,1,0,1,2,3,2,2,0,1,0,1,0,0,0,0,81,81,81,1,0,1,0,,,,,,,,,599.4919404014945,None,600.4735614005476,None,s,1,0.5799493994563818,600.4735614005476,None,None,None,,,,,,,6,28,female,6,2022_May_05_1301,Partial repeat,2021.2.3,59.896056582069754,
2,1,0,1,2,3,2,2,0,1,0,1,0,0,0,0,81,81,81,,,,,,,,,,,,,,,,,,,,,,,,,,,,,,6,28,female,6,2022_May_05_1301,Partial repeat,2021.2.3,59.896056582069754,
6,2,0,1,2,3,2,2,0,0,0,1,1,0,0,0,82,82,82,0,0,0,0,,,,,,,601.0736487004906,None,601.4135412015021,None,602.4120062999427,None,l,1,0.5694752987474203,602.4120062999427,None,None,None,,,,,,,6,28,female,6,2022_May_05_1301,Partial repeat,2021.2.3,59.896056582069754,
6,2,0,1,2,3,2,2,0,0,0,1,1,0,0,0,82,82,82,1,0,1,0,,,,,,,,,603.006389701739,None,603.7800605017692,None,l,1,0.5934475995600224,603.7800605017692,None,None,None,,,,,,,6,28,female,6,2022_May_05_1301,Partial repeat,2021.2.3,59.896056582069754,
6,2,0,1,2,3,2,2,0,0,0,1,1,0,0,0,82,82,82,,,,,,,,,,,,,,,,,,,,,,,,,,,,,,6,28,female,6,2022_May_05_1301,Partial repeat,2021.2.3,59.896056582069754,
3,3,0,1,3,2,1,1,1,1,0,1,1,0,0,0,83,83,83,0,0,0,0,,,,,,,604.3984645009041,None,604.8535510003567,None,605.6170251015574,None,s,1,0.7485531009733677,605.6170251015574,None,None,None,,,,,,,6,28,female,6,2022_May_05_1301,Partial repeat,2021.2.3,59.896056582069754,
3,3,0,1,3,2,1,1,1,1,0,1,1,0,0,0,83,83,83,1,0,1,0,,,,,,,,,606.3750669006258,None,607.303482901305,None,s,1,0.5660740006715059,607.303482901305,None,None,None,,,,,,,6,28,female,6,2022_May_05_1301,Partial repeat,2021.2.3,59.896056582069754,
3,3,0,1,3,2,1,1,1,1,0,1,1,0,0,0,83,83,83,,,,,,,,,,,,,,,,,,,,,,,,,,,,,,6,28,female,6,2022_May_05_1301,Partial repeat,2021.2.3,59.896056582069754,
5,6,0,1,3,2,2,1,0,1,0,0,0,0,0,0,84,84,84,0,0,0,0,,,,,,,607.8814634010196,None,608.2768803015351,None,609.2742649000138,None,l,1,0.6192848011851311,609.2742649000138,None,None,None,,,,,,,6,28,female,6,2022_May_05_1301,Partial repeat,2021.2.3,59.896056582069754,
5,6,0,1,3,2,2,1,0,1,0,0,0,0,0,0,84,84,84,1,0,1,0,,,,,,,,,609.9048501010984,None,610.893891101703,None,s,1,0.6316187009215355,610.893891101703,None,None,None,,,,,,,6,28,female,6,2022_May_05_1301,Partial repeat,2021.2.3,59.896056582069754,
5,6,0,1,3,2,2,1,0,1,0,0,0,0,0,0,84,84,84,,,,,,,,,,,,,,,,,,,,,,,,,,,,,,6,28,female,6,2022_May_05_1301,Partial repeat,2021.2.3,59.896056582069754,
1,8,0,1,3,3,2,1,0,1,1,0,0,0,0,0,85,85,85,0,0,0,0,,,,,,,611.5539140999317,None,611.9339884016663,None,612.6806248016655,None,l,1,0.5408993009477854,612.6806248016655,None,None,None,,,,,,,6,28,female,6,2022_May_05_1301,Partial repeat,2021.2.3,59.896056582069754,
1,8,0,1,3,3,2,1,0,1,1,0,0,0,0,0,85,85,85,1,0,1,0,,,,,,,,,613.2331291008741,None,614.0668705012649,None,s,1,0.6986385993659496,614.0668705012649,None,None,None,,,,,,,6,28,female,6,2022_May_05_1301,Partial repeat,2021.2.3,59.896056582069754,
1,8,0,1,3,3,2,1,0,1,1,0,0,0,0,0,85,85,85,,,,,,,,,,,,,,,,,,,,,,,,,,,,,,6,28,female,6,2022_May_05_1301,Partial repeat,2021.2.3,59.896056582069754,
3,7,0,1,3,2,2,2,1,1,0,1,1,0,0,0,86,86,86,0,0,0,0,,,,,,,614.7939471006393,None,615.1402228008956,None,616.0872170012444,None,s,1,0.8062958009541035,616.0872170012444,None,None,None,,,,,,,6,28,female,6,2022_May_05_1301,Partial repeat,2021.2.3,59.896056582069754,
3,7,0,1,3,2,2,2,1,1,0,1,1,0,0,0,86,86,86,1,0,1,0,,,,,,,,,616.9068110007793,None,617.7909310013056,None,s,1,0.6385727990418673,617.7909310013056,None,None,None,,,,,,,6,28,female,6,2022_May_05_1301,Partial repeat,2021.2.3,59.896056582069754,
3,7,0,1,3,2,2,2,1,1,0,1,1,0,0,0,86,86,86,,,,,,,,,,,,,,,,,,,,,,,,,,,,,,6,28,female,6,2022_May_05_1301,Partial repeat,2021.2.3,59.896056582069754,
3,4,0,1,3,3,2,2,0,1,1,1,0,0,0,0,87,87,87,0,0,0,0,,,,,,,618.4582481011748,None,618.7973711006343,None,619.6612329017371,None,l,1,0.6722768004983664,619.6612329017371,None,None,None,,,,,,,6,28,female,6,2022_May_05_1301,Partial repeat,2021.2.3,59.896056582069754,
3,4,0,1,3,3,2,2,0,1,1,1,0,0,0,0,87,87,87,1,0,1,0,,,,,,,,,620.3595953006297,None,621.3474773000926,None,s,1,0.730026500299573,621.3474773000926,None,None,None,,,,,,,6,28,female,6,2022_May_05_1301,Partial repeat,2021.2.3,59.896056582069754,
3,4,0,1,3,3,2,2,0,1,1,1,0,0,0,0,87,87,87,,,,,,,,,,,,,,,,,,,,,,,,,,,,,,6,28,female,6,2022_May_05_1301,Partial repeat,2021.2.3,59.896056582069754,
3,1,0,1,2,2,2,2,1,1,1,1,1,0,0,0,88,88,88,0,0,0,0,,,,,,,622.0994033999741,None,622.4377441015095,None,623.1514174006879,None,s,1,0.6141372006386518,623.1514174006879,None,None,None,,,,,,,6,28,female,6,2022_May_05_1301,Partial repeat,2021.2.3,59.896056582069754,
3,1,0,1,2,2,2,2,1,1,1,1,1,0,0,0,88,88,88,1,0,1,0,,,,,,,,,623.7807211000472,None,624.7375076003373,None,s,1,0.5240471009165049,624.7375076003373,None,None,None,,,,,,,6,28,female,6,2022_May_05_1301,Partial repeat,2021.2.3,59.896056582069754,
3,1,0,1,2,2,2,2,1,1,1,1,1,0,0,0,88,88,88,,,,,,,,,,,,,,,,,,,,,,,,,,,,,,6,28,female,6,2022_May_05_1301,Partial repeat,2021.2.3,59.896056582069754,
2,5,0,1,3,2,1,2,0,1,0,0,0,0,0,0,89,89,89,0,0,0,0,,,,,,,625.2726620007306,None,625.6774014011025,None,626.524486001581,None,l,1,0.5851023010909557,626.524486001581,None,None,None,,,,,,,6,28,female,6,2022_May_05_1301,Partial repeat,2021.2.3,59.896056582069754,
2,5,0,1,3,2,1,2,0,1,0,0,0,0,0,0,89,89,89,1,0,1,0,,,,,,,,,627.1190850008279,None,627.8603488001972,None,s,1,0.7371303010731936,627.8603488001972,None,None,None,,,,,,,6,28,female,6,2022_May_05_1301,Partial repeat,2021.2.3,59.896056582069754,
2,5,0,1,3,2,1,2,0,1,0,0,0,0,0,0,89,89,89,,,,,,,,,,,,,,,,,,,,,,,,,,,,,,6,28,female,6,2022_May_05_1301,Partial repeat,2021.2.3,59.896056582069754,
4,7,0,1,3,3,1,1,0,0,1,1,1,0,0,0,90,90,90,0,0,0,0,,,,,,,628.6282753013074,None,628.9671399015933,None,629.9478226006031,None,l,1,0.7696822006255388,629.9478226006031,None,None,None,,,,,,,6,28,female,6,2022_May_05_1301,Partial repeat,2021.2.3,59.896056582069754,
4,7,0,1,3,3,1,1,0,0,1,1,1,0,0,0,90,90,90,1,0,1,0,,,,,,,,,630.7415022011846,None,631.7346179001033,None,l,1,0.6628844998776913,631.7346179001033,None,None,None,,,,,,,6,28,female,6,2022_May_05_1301,Partial repeat,2021.2.3,59.896056582069754,
4,7,0,1,3,3,1,1,0,0,1,1,1,0,0,0,90,90,90,,,,,,,,,,,,,,,,,,,,,,,,,,,,,,6,28,female,6,2022_May_05_1301,Partial repeat,2021.2.3,59.896056582069754,
8,3,0,1,2,3,1,1,0,1,0,1,0,0,0,0,91,91,91,0,0,0,0,,,,,,,632.4156782012433,None,632.8411783017218,None,633.6045354008675,None,l,1,0.5529746003448963,633.6045354008675,None,None,None,,,,,,,6,28,female,6,2022_May_05_1301,Partial repeat,2021.2.3,59.896056582069754,
8,3,0,1,2,3,1,1,0,1,0,1,0,0,0,0,91,91,91,1,0,1,0,,,,,,,,,634.1786439009011,None,634.9739167001098,None,s,1,0.5516324993222952,634.9739167001098,None,None,None,,,,,,,6,28,female,6,2022_May_05_1301,Partial repeat,2021.2.3,59.896056582069754,
8,3,0,1,2,3,1,1,0,1,0,1,0,0,0,0,91,91,91,,,,,,,,,,,,,,,,,,,,,,,,,,,,,,6,28,female,6,2022_May_05_1301,Partial repeat,2021.2.3,59.896056582069754,
2,4,0,1,3,3,1,1,1,1,1,1,1,0,0,0,92,92,92,0,0,0,0,,,,,,,635.5499653015286,None,635.9807616006583,None,636.8943653013557,None,s,1,0.567204600200057,636.8943653013557,None,None,None,,,,,,,6,28,female,6,2022_May_05_1301,Partial repeat,2021.2.3,59.896056582069754,
2,4,0,1,3,3,1,1,1,1,1,1,1,0,0,0,92,92,92,1,0,1,0,,,,,,,,,637.4881425015628,None,638.3484971001744,None,s,1,0.6169764008373022,638.3484971001744,None,None,None,,,,,,,6,28,female,6,2022_May_05_1301,Partial repeat,2021.2.3,59.896056582069754,
2,4,0,1,3,3,1,1,1,1,1,1,1,0,0,0,92,92,92,,,,,,,,,,,,,,,,,,,,,,,,,,,,,,6,28,female,6,2022_May_05_1301,Partial repeat,2021.2.3,59.896056582069754,
4,8,0,1,2,3,1,2,1,0,0,0,0,0,0,0,93,93,93,0,0,0,0,,,,,,,638.9875560011715,None,639.3874221015722,None,640.1341916006058,None,s,1,0.5273110009729862,640.1341916006058,None,None,None,,,,,,,6,28,female,6,2022_May_05_1301,Partial repeat,2021.2.3,59.896056582069754,
4,8,0,1,2,3,1,2,1,0,0,0,0,0,0,0,93,93,93,1,0,1,0,,,,,,,,,640.6863126009703,None,641.5700305011123,None,l,1,0.6274663992226124,641.5700305011123,None,None,None,,,,,,,6,28,female,6,2022_May_05_1301,Partial repeat,2021.2.3,59.896056582069754,
4,8,0,1,2,3,1,2,1,0,0,0,0,0,0,0,93,93,93,,,,,,,,,,,,,,,,,,,,,,,,,,,,,,6,28,female,6,2022_May_05_1301,Partial repeat,2021.2.3,59.896056582069754,
6,8,0,1,2,3,2,2,1,0,0,1,0,0,0,0,94,94,94,0,0,0,0,,,,,,,642.2226010002196,None,642.6435518004,None,643.3905433006585,None,s,1,0.9509658012539148,643.3905433006585,None,None,None,,,,,,,6,28,female,6,2022_May_05_1301,Partial repeat,2021.2.3,59.896056582069754,
6,8,0,1,2,3,2,2,1,0,0,1,0,0,0,0,94,94,94,1,0,1,0,,,,,,,,,644.3634348008782,None,645.1436877008528,None,l,1,0.5578288994729519,645.1436877008528,None,None,None,,,,,,,6,28,female,6,2022_May_05_1301,Partial repeat,2021.2.3,59.896056582069754,
6,8,0,1,2,3,2,2,1,0,0,1,0,0,0,0,94,94,94,,,,,,,,,,,,,,,,,,,,,,,,,,,,,,6,28,female,6,2022_May_05_1301,Partial repeat,2021.2.3,59.896056582069754,
3,2,0,1,3,2,2,2,0,0,0,1,1,0,0,0,95,95,95,0,0,0,0,,,,,,,645.7233016006649,None,646.2006785999984,None,646.9304668009281,None,l,1,0.8591208010911942,646.9304668009281,None,None,None,,,,,,,6,28,female,6,2022_May_05_1301,Partial repeat,2021.2.3,59.896056582069754,
3,2,0,1,3,2,2,2,0,0,0,1,1,0,0,0,95,95,95,1,0,1,0,,,,,,,,,647.8177061006427,None,648.7871326003224,None,l,1,0.6905343998223543,648.7871326003224,None,None,None,,,,,,,6,28,female,6,2022_May_05_1301,Partial repeat,2021.2.3,59.896056582069754,
3,2,0,1,3,2,2,2,0,0,0,1,1,0,0,0,95,95,95,,,,,,,,,,,,,,,,,,,,,,,,,,,,,,6,28,female,6,2022_May_05_1301,Partial repeat,2021.2.3,59.896056582069754,
3,5,0,1,2,2,1,1,0,0,1,1,1,0,0,0,96,96,96,0,0,0,0,,,,,,,649.4942571017891,None,649.8243714999408,None,650.6377262007445,None,l,1,0.47174989990890026,650.6377262007445,None,None,None,,,,,,,6,28,female,6,2022_May_05_1301,Partial repeat,2021.2.3,59.896056582069754,
3,5,0,1,2,2,1,1,0,0,1,1,1,0,0,0,96,96,96,1,0,1,0,,,,,,,,,651.1178918015212,None,651.9406422004104,None,l,1,0.4809381999075413,651.9406422004104,None,None,None,,,,,,,6,28,female,6,2022_May_05_1301,Partial repeat,2021.2.3,59.896056582069754,
3,5,0,1,2,2,1,1,0,0,1,1,1,0,0,0,96,96,96,,,,,,,,,,,,,,,,,,,,,,,,,,,,,,6,28,female,6,2022_May_05_1301,Partial repeat,2021.2.3,59.896056582069754,
4,5,0,1,2,3,1,2,0,1,0,0,0,0,0,0,97,97,97,0,0,0,0,,,,,,,652.4348291009665,None,652.9137491006404,None,653.6438410002738,None,l,1,0.8176279999315739,653.6438410002738,None,None,None,,,,,,,6,28,female,6,2022_May_05_1301,Partial repeat,2021.2.3,59.896056582069754,
4,5,0,1,2,3,1,2,0,1,0,0,0,0,0,0,97,97,97,1,0,1,0,,,,,,,,,654.4729742016643,None,655.3155335001647,None,s,1,0.5460101012140512,655.3155335001647,None,None,None,,,,,,,6,28,female,6,2022_May_05_1301,Partial repeat,2021.2.3,59.896056582069754,
4,5,0,1,2,3,1,2,0,1,0,0,0,0,0,0,97,97,97,,,,,,,,,,,,,,,,,,,,,,,,,,,,,,6,28,female,6,2022_May_05_1301,Partial repeat,2021.2.3,59.896056582069754,
3,8,0,1,3,3,1,2,1,1,1,0,1,0,0,0,98,98,98,0,0,0,0,,,,,,,655.877451300621,None,656.2702146004885,None,657.1336568016559,None,s,1,0.5918968990445137,657.1336568016559,None,None,None,,,,,,,6,28,female,6,2022_May_05_1301,Partial repeat,2021.2.3,59.896056582069754,
3,8,0,1,3,3,1,2,1,1,1,0,1,0,0,0,98,98,98,1,0,1,0,,,,,,,,,657.7522349003702,None,658.5700327008963,None,s,1,0.7634653989225626,658.5700327008963,None,None,None,,,,,,,6,28,female,6,2022_May_05_1301,Partial repeat,2021.2.3,59.896056582069754,
3,8,0,1,3,3,1,2,1,1,1,0,1,0,0,0,98,98,98,,,,,,,,,,,,,,,,,,,,,,,,,,,,,,6,28,female,6,2022_May_05_1301,Partial repeat,2021.2.3,59.896056582069754,
1,3,0,1,3,2,1,1,1,0,0,1,0,0,0,0,99,99,99,0,0,0,0,,,,,,,659.3599222004414,None,659.7270280010998,None,660.6740650013089,None,s,1,0.6834817994385958,660.6740650013089,None,None,None,,,,,,,6,28,female,6,2022_May_05_1301,Partial repeat,2021.2.3,59.896056582069754,
1,3,0,1,3,2,1,1,1,0,0,1,0,0,0,0,99,99,99,1,0,1,0,,,,,,,,,661.372924901545,None,662.360692601651,None,l,1,0.6288486998528242,662.360692601651,None,None,None,,,,,,,6,28,female,6,2022_May_05_1301,Partial repeat,2021.2.3,59.896056582069754,
1,3,0,1,3,2,1,1,1,0,0,1,0,0,0,0,99,99,99,,,,,,,,,,,,,,,,,,,,,,,,,,,,,,6,28,female,6,2022_May_05_1301,Partial repeat,2021.2.3,59.896056582069754,
4,6,0,1,3,3,2,2,1,0,1,1,0,0,0,0,100,100,100,0,0,0,0,,,,,,,663.0013969000429,None,663.4342118017375,None,664.3814950007945,None,s,1,0.7360623013228178,664.3814950007945,None,None,None,,,,,,,6,28,female,6,2022_May_05_1301,Partial repeat,2021.2.3,59.896056582069754,
4,6,0,1,3,3,2,2,1,0,1,1,0,0,0,0,100,100,100,1,0,1,0,,,,,,,,,665.1444569006562,None,666.1514048017561,None,l,1,0.5741514004766941,666.1514048017561,None,None,None,,,,,,,6,28,female,6,2022_May_05_1301,Partial repeat,2021.2.3,59.896056582069754,
4,6,0,1,3,3,2,2,1,0,1,1,0,0,0,0,100,100,100,,,,,,,,,,,,,,,,,,,,,,,,,,,,,,6,28,female,6,2022_May_05_1301,Partial repeat,2021.2.3,59.896056582069754,
4,3,0,1,2,2,1,1,1,0,1,1,0,0,0,0,101,101,101,0,0,0,0,,,,,,,666.7548917010427,None,667.1748205013573,None,667.9882613010705,None,s,1,0.6092498991638422,667.9882613010705,None,None,None,,,,,,,6,28,female,6,2022_May_05_1301,Partial repeat,2021.2.3,59.896056582069754,
4,3,0,1,2,2,1,1,1,0,1,1,0,0,0,0,101,101,101,1,0,1,0,,,,,,,,,668.6067824009806,None,669.5580309014767,None,l,1,0.719514699652791,669.5580309014767,None,None,None,,,,,,,6,28,female,6,2022_May_05_1301,Partial repeat,2021.2.3,59.896056582069754,
4,3,0,1,2,2,1,1,1,0,1,1,0,0,0,0,101,101,101,,,,,,,,,,,,,,,,,,,,,,,,,,,,,,6,28,female,6,2022_May_05_1301,Partial repeat,2021.2.3,59.896056582069754,
1,2,0,1,3,2,1,1,0,1,0,1,0,0,0,0,102,102,102,0,0,0,0,,,,,,,670.3057110011578,None,670.6816325001419,None,671.6622116006911,None,l,1,0.6313469987362623,671.6622116006911,None,None,None,,,,,,,6,28,female,6,2022_May_05_1301,Partial repeat,2021.2.3,59.896056582069754,
1,2,0,1,3,2,1,1,0,1,0,1,0,0,0,0,102,102,102,1,0,1,0,,,,,,,,,672.3013959005475,None,673.1984495017678,None,s,1,0.5671326015144587,673.1984495017678,None,None,None,,,,,,,6,28,female,6,2022_May_05_1301,Partial repeat,2021.2.3,59.896056582069754,
1,2,0,1,3,2,1,1,0,1,0,1,0,0,0,0,102,102,102,,,,,,,,,,,,,,,,,,,,,,,,,,,,,,6,28,female,6,2022_May_05_1301,Partial repeat,2021.2.3,59.896056582069754,
8,2,0,1,3,2,1,1,0,0,0,1,1,0,0,0,103,103,103,0,0,0,0,,,,,,,673.7953397016972,None,674.1216609999537,None,674.8683591000736,None,l,1,0.6651533991098404,674.8683591000736,None,None,None,,,,,,,6,28,female,6,2022_May_05_1301,Partial repeat,2021.2.3,59.896056582069754,
8,2,0,1,3,2,1,1,0,0,0,1,1,0,0,0,103,103,103,1,0,1,0,,,,,,,,,675.5483737010509,None,676.4226737003773,None,l,1,0.5108709987252951,676.4226737003773,None,None,None,,,,,,,6,28,female,6,2022_May_05_1301,Partial repeat,2021.2.3,59.896056582069754,
8,2,0,1,3,2,1,1,0,0,0,1,1,0,0,0,103,103,103,,,,,,,,,,,,,,,,,,,,,,,,,,,,,,6,28,female,6,2022_May_05_1301,Partial repeat,2021.2.3,59.896056582069754,
2,2,0,1,2,3,1,1,1,0,0,1,0,0,0,0,104,104,104,0,0,0,0,,,,,,,676.9611953999847,None,677.4113719016314,None,678.2083089016378,None,s,1,0.6051631011068821,678.2083089016378,None,None,None,,,,,,,6,28,female,6,2022_May_05_1301,Partial repeat,2021.2.3,59.896056582069754,
2,2,0,1,2,3,1,1,1,0,0,1,0,0,0,0,104,104,104,1,0,1,0,,,,,,,,,678.8251358009875,None,679.6443704012781,None,l,1,0.7451374996453524,679.6443704012781,None,None,None,,,,,,,6,28,female,6,2022_May_05_1301,Partial repeat,2021.2.3,59.896056582069754,
2,2,0,1,2,3,1,1,1,0,0,1,0,0,0,0,104,104,104,,,,,,,,,,,,,,,,,,,,,,,,,,,,,,6,28,female,6,2022_May_05_1301,Partial repeat,2021.2.3,59.896056582069754,
8,4,0,1,3,2,1,2,1,0,0,0,0,0,0,0,105,105,105,0,0,0,0,,,,,,,680.416777100414,None,680.8013447001576,None,681.7315472010523,None,s,1,0.6819626986980438,681.7315472010523,None,None,None,,,,,,,6,28,female,6,2022_May_05_1301,Partial repeat,2021.2.3,59.896056582069754,
8,4,0,1,3,2,1,2,1,0,0,0,0,0,0,0,105,105,105,1,0,1,0,,,,,,,,,682.4308143015951,None,683.1679523009807,None,l,1,0.5415500998497009,683.1679523009807,None,None,None,,,,,,,6,28,female,6,2022_May_05_1301,Partial repeat,2021.2.3,59.896056582069754,
8,4,0,1,3,2,1,2,1,0,0,0,0,0,0,0,105,105,105,,,,,,,,,,,,,,,,,,,,,,,,,,,,,,6,28,female,6,2022_May_05_1301,Partial repeat,2021.2.3,59.896056582069754,
6,3,0,1,2,3,1,1,0,0,0,1,1,0,0,0,106,106,106,0,0,0,0,,,,,,,683.7224052008241,None,684.0242499001324,None,684.9563709013164,None,l,1,0.6491829007863998,684.9563709013164,None,None,None,,,,,,,6,28,female,6,2022_May_05_1301,Partial repeat,2021.2.3,59.896056582069754,
6,3,0,1,2,3,1,1,0,0,0,1,1,0,0,0,106,106,106,1,0,1,0,,,,,,,,,685.6334311012179,None,686.6244343016297,None,l,1,0.6050784010440111,686.6244343016297,None,None,None,,,,,,,6,28,female,6,2022_May_05_1301,Partial repeat,2021.2.3,59.896056582069754,
6,3,0,1,2,3,1,1,0,0,0,1,1,0,0,0,106,106,106,,,,,,,,,,,,,,,,,,,,,,,,,,,,,,6,28,female,6,2022_May_05_1301,Partial repeat,2021.2.3,59.896056582069754,
6,1,0,1,3,3,2,2,1,1,1,1,1,0,0,0,107,107,107,0,0,0,0,,,,,,,687.2439036015421,None,687.6313003003597,None,688.6286959014833,None,s,1,0.6889162994921207,688.6286959014833,None,None,None,,,,,,,6,28,female,6,2022_May_05_1301,Partial repeat,2021.2.3,59.896056582069754,
6,1,0,1,3,3,2,2,1,1,1,1,1,0,0,0,107,107,107,1,0,1,0,,,,,,,,,689.3285100013018,None,690.2987181004137,None,s,1,0.6268017012625933,690.2987181004137,None,None,None,,,,,,,6,28,female,6,2022_May_05_1301,Partial repeat,2021.2.3,59.896056582069754,
6,1,0,1,3,3,2,2,1,1,1,1,1,0,0,0,107,107,107,,,,,,,,,,,,,,,,,,,,,,,,,,,,,,6,28,female,6,2022_May_05_1301,Partial repeat,2021.2.3,59.896056582069754,
1,5,0,1,2,2,1,2,1,1,1,0,1,0,0,0,108,108,108,0,0,0,0,,,,,,,690.9392792005092,None,691.2884812001139,None,692.0350288003683,None,s,1,0.6504844985902309,692.0350288003683,None,None,None,,,,,,,6,28,female,6,2022_May_05_1301,Partial repeat,2021.2.3,59.896056582069754,
1,5,0,1,2,2,1,2,1,1,1,0,1,0,0,0,108,108,108,1,0,1,0,,,,,,,,,692.7094008009881,None,693.4721234012395,None,s,1,0.541388500481844,693.4721234012395,None,None,None,,,,,,,6,28,female,6,2022_May_05_1301,Partial repeat,2021.2.3,59.896056582069754,
1,5,0,1,2,2,1,2,1,1,1,0,1,0,0,0,108,108,108,,,,,,,,,,,,,,,,,,,,,,,,,,,,,,6,28,female,6,2022_May_05_1301,Partial repeat,2021.2.3,59.896056582069754,
2,6,0,1,2,2,1,1,0,1,1,1,0,0,0,0,109,109,109,0,0,0,0,,,,,,,694.0323544014245,None,694.461255101487,None,695.1746967006475,None,l,1,0.5428205002099276,695.1746967006475,None,None,None,,,,,,,6,28,female,6,2022_May_05_1301,Partial repeat,2021.2.3,59.896056582069754,
2,6,0,1,2,2,1,1,0,1,1,1,0,0,0,0,109,109,109,1,0,1,0,,,,,,,,,695.7312818001956,None,696.7454253006727,None,s,1,0.6200866997241974,696.7454253006727,None,None,None,,,,,,,6,28,female,6,2022_May_05_1301,Partial repeat,2021.2.3,59.896056582069754,
2,6,0,1,2,2,1,1,0,1,1,1,0,0,0,0,109,109,109,,,,,,,,,,,,,,,,,,,,,,,,,,,,,,6,28,female,6,2022_May_05_1301,Partial repeat,2021.2.3,59.896056582069754,
7,6,0,1,2,3,2,1,1,1,0,0,1,0,0,0,110,110,110,0,0,0,0,,,,,,,697.3882258012891,None,697.8011035006493,None,698.5310292001814,None,s,1,0.6104735005646944,698.5310292001814,None,None,None,,,,,,,6,28,female,6,2022_May_05_1301,Partial repeat,2021.2.3,59.896056582069754,
7,6,0,1,2,3,2,1,1,1,0,0,1,0,0,0,110,110,110,1,0,1,0,,,,,,,,,699.1640445012599,None,699.9508188012987,None,s,1,0.6066870000213385,699.9508188012987,None,None,None,,,,,,,6,28,female,6,2022_May_05_1301,Partial repeat,2021.2.3,59.896056582069754,
7,6,0,1,2,3,2,1,1,1,0,0,1,0,0,0,110,110,110,,,,,,,,,,,,,,,,,,,,,,,,,,,,,,6,28,female,6,2022_May_05_1301,Partial repeat,2021.2.3,59.896056582069754,
7,7,0,1,3,2,2,2,0,1,0,1,0,0,0,0,111,111,111,0,0,0,0,,,,,,,700.5757075008005,None,700.9572269003838,None,701.872048901394,None,l,1,0.6054315995424986,701.872048901394,None,None,None,,,,,,,6,28,female,6,2022_May_05_1301,Partial repeat,2021.2.3,59.896056582069754,
7,7,0,1,3,2,2,2,0,1,0,1,0,0,0,0,111,111,111,1,0,1,0,,,,,,,,,702.4972672015429,None,703.3582068011165,None,s,1,0.8394479006528854,703.3582068011165,None,None,None,,,,,,,6,28,female,6,2022_May_05_1301,Partial repeat,2021.2.3,59.896056582069754,
7,7,0,1,3,2,2,2,0,1,0,1,0,0,0,0,111,111,111,,,,,,,,,,,,,,,,,,,,,,,,,,,,,,6,28,female,6,2022_May_05_1301,Partial repeat,2021.2.3,59.896056582069754,
2,8,0,1,3,2,2,2,1,0,0,1,0,0,0,0,112,112,112,0,0,0,0,,,,,,,704.2291843015701,None,704.6143099013716,None,705.5949409008026,None,s,1,0.6105729006230831,705.5949409008026,None,None,None,,,,,,,6,28,female,6,2022_May_05_1301,Partial repeat,2021.2.3,59.896056582069754,
2,8,0,1,3,2,2,2,1,0,0,1,0,0,0,0,112,112,112,1,0,1,0,,,,,,,,,706.2286799009889,None,707.0814030002803,None,l,1,0.6122190002351999,707.0814030002803,None,None,None,,,,,,,6,28,female,6,2022_May_05_1301,Partial repeat,2021.2.3,59.896056582069754,
2,8,0,1,3,2,2,2,1,0,0,1,0,0,0,0,112,112,112,,,,,,,,,,,,,,,,,,,,,,,,,,,,,,6,28,female,6,2022_May_05_1301,Partial repeat,2021.2.3,59.896056582069754,
4,1,0,1,3,3,2,2,0,0,1,1,1,0,0,0,113,113,113,0,0,0,0,,,,,,,707.7038980014622,None,708.1712275017053,None,709.169344201684,None,l,1,1.0121745988726616,709.169344201684,None,None,None,,,,,,,6,28,female,6,2022_May_05_1301,Partial repeat,2021.2.3,59.896056582069754,
4,1,0,1,3,3,2,2,0,0,1,1,1,0,0,0,113,113,113,1,0,1,0,,,,,,,,,710.2070610001683,None,711.1230982001871,None,l,1,0.6264110989868641,711.1230982001871,None,None,None,,,,,,,6,28,female,6,2022_May_05_1301,Partial repeat,2021.2.3,59.896056582069754,
4,1,0,1,3,3,2,2,0,0,1,1,1,0,0,0,113,113,113,,,,,,,,,,,,,,,,,,,,,,,,,,,,,,6,28,female,6,2022_May_05_1301,Partial repeat,2021.2.3,59.896056582069754,
7,2,0,1,2,2,2,2,1,0,1,1,0,0,0,0,114,114,114,0,0,0,0,,,,,,,711.769933000207,None,712.145661201328,None,712.9758077003062,None,s,1,0.6217041984200478,712.9758077003062,None,None,None,,,,,,,6,28,female,6,2022_May_05_1301,Partial repeat,2021.2.3,59.896056582069754,
7,2,0,1,2,2,2,2,1,0,1,1,0,0,0,0,114,114,114,1,0,1,0,,,,,,,,,713.6208706013858,None,714.5454585012048,None,l,1,0.6200703997164965,714.5454585012048,None,None,None,,,,,,,6,28,female,6,2022_May_05_1301,Partial repeat,2021.2.3,59.896056582069754,
7,2,0,1,2,2,2,2,1,0,1,1,0,0,0,0,114,114,114,,,,,,,,,,,,,,,,,,,,,,,,,,,,,,6,28,female,6,2022_May_05_1301,Partial repeat,2021.2.3,59.896056582069754,
1,1,0,1,2,2,2,1,1,0,1,0,0,0,0,0,115,115,115,0,0,0,0,,,,,,,715.1870312001556,None,715.6023356001824,None,716.4491770006716,None,s,1,0.5644177012145519,716.4491770006716,None,None,None,,,,,,,6,28,female,6,2022_May_05_1301,Partial repeat,2021.2.3,59.896056582069754,
1,1,0,1,2,2,2,1,1,0,1,0,0,0,0,0,115,115,115,1,0,1,0,,,,,,,,,717.0242944005877,None,717.801844401285,None,l,1,0.5716635994613171,717.801844401285,None,None,None,,,,,,,6,28,female,6,2022_May_05_1301,Partial repeat,2021.2.3,59.896056582069754,
1,1,0,1,2,2,2,1,1,0,1,0,0,0,0,0,115,115,115,,,,,,,,,,,,,,,,,,,,,,,,,,,,,,6,28,female,6,2022_May_05_1301,Partial repeat,2021.2.3,59.896056582069754,
7,3,0,1,3,2,2,1,1,1,0,0,1,0,0,0,116,116,116,0,0,0,0,,,,,,,718.398594500497,None,718.8086172007024,None,719.7723265010864,None,s,1,0.8971888013184071,719.7723265010864,None,None,None,,,,,,,6,28,female,6,2022_May_05_1301,Partial repeat,2021.2.3,59.896056582069754,
7,3,0,1,3,2,2,1,1,1,0,0,1,0,0,0,116,116,116,1,0,1,0,,,,,,,,,720.6842383015901,None,721.5760496016592,None,s,1,0.6134616006165743,721.5760496016592,None,None,None,,,,,,,6,28,female,6,2022_May_05_1301,Partial repeat,2021.2.3,59.896056582069754,
7,3,0,1,3,2,2,1,1,1,0,0,1,0,0,0,116,116,116,,,,,,,,,,,,,,,,,,,,,,,,,,,,,,6,28,female,6,2022_May_05_1301,Partial repeat,2021.2.3,59.896056582069754,
5,3,0,1,2,2,2,1,0,0,1,0,1,0,0,0,117,117,117,0,0,0,0,,,,,,,722.214174201712,None,722.7161624003202,None,723.496705500409,None,l,1,0.5808438006788492,723.496705500409,None,None,None,,,,,,,6,28,female,6,2022_May_05_1301,Partial repeat,2021.2.3,59.896056582069754,
5,3,0,1,2,2,2,1,0,0,1,0,1,0,0,0,117,117,117,1,0,1,0,,,,,,,,,724.0901040006429,None,725.0496472008526,None,l,1,0.7718640994280577,725.0496472008526,None,None,None,,,,,,,6,28,female,6,2022_May_05_1301,Partial repeat,2021.2.3,59.896056582069754,
5,3,0,1,2,2,2,1,0,0,1,0,1,0,0,0,117,117,117,,,,,,,,,,,,,,,,,,,,,,,,,,,,,,6,28,female,6,2022_May_05_1301,Partial repeat,2021.2.3,59.896056582069754,
6,4,0,1,2,3,1,1,1,1,0,1,1,0,0,0,118,118,118,0,0,0,0,,,,,,,725.8397346008569,None,726.206322401762,None,727.1869587004185,None,s,1,0.7385459002107382,727.1869587004185,None,None,None,,,,,,,6,28,female,6,2022_May_05_1301,Partial repeat,2021.2.3,59.896056582069754,
6,4,0,1,2,3,1,1,1,1,0,1,1,0,0,0,118,118,118,1,0,1,0,,,,,,,,,727.947691200301,None,728.7732356004417,None,s,1,0.6083399001508951,728.7732356004417,None,None,None,,,,,,,6,28,female,6,2022_May_05_1301,Partial repeat,2021.2.3,59.896056582069754,
6,4,0,1,2,3,1,1,1,1,0,1,1,0,0,0,118,118,118,,,,,,,,,,,,,,,,,,,,,,,,,,,,,,6,28,female,6,2022_May_05_1301,Partial repeat,2021.2.3,59.896056582069754,
5,7,0,1,2,2,1,1,1,1,1,1,1,0,0,0,119,119,119,0,0,0,0,,,,,,,729.3938850015402,None,729.763296701014,None,730.561069201678,None,s,1,0.6043973006308079,730.561069201678,None,None,None,,,,,,,6,28,female,6,2022_May_05_1301,Partial repeat,2021.2.3,59.896056582069754,
5,7,0,1,2,2,1,1,1,1,1,1,1,0,0,0,119,119,119,1,0,1,0,,,,,,,,,731.1749457009137,None,732.0131688006222,None,s,1,0.6563576012849808,732.0131688006222,None,None,None,,,,,,,6,28,female,6,2022_May_05_1301,Partial repeat,2021.2.3,59.896056582069754,
5,7,0,1,2,2,1,1,1,1,1,1,1,0,0,0,119,119,119,,,,,,,,,,,,,,,,,,,,,,,,,,,,,,6,28,female,6,2022_May_05_1301,Partial repeat,2021.2.3,59.896056582069754,
6,7,0,1,2,3,2,1,0,0,0,0,1,0,0,0,120,120,120,0,0,0,0,,,,,,,732.7001610007137,None,734.2386887017637,None,735.1700138002634,None,l,1,0.5714985001832247,735.1700138002634,None,None,None,,,,,,,6,28,female,6,2022_May_05_1301,Partial repeat,2021.2.3,59.896056582069754,
6,7,0,1,2,3,2,1,0,0,0,0,1,0,0,0,120,120,120,1,0,1,0,,,,,,,,,735.7630431000143,None,736.655518900603,None,l,1,0.5820324998348951,736.655518900603,None,None,None,,,,,,,6,28,female,6,2022_May_05_1301,Partial repeat,2021.2.3,59.896056582069754,
6,7,0,1,2,3,2,1,0,0,0,0,1,0,0,0,120,120,120,,,,,,,,,,,,,,,,,,,,,,,,,,,,,,6,28,female,6,2022_May_05_1301,Partial repeat,2021.2.3,59.896056582069754,
7,8,0,1,3,2,2,1,0,0,0,0,1,0,0,0,121,121,121,0,0,0,0,,,,,,,737.2599794007838,None,737.7453508004546,None,738.5755503010005,None,l,1,0.47798180021345615,738.5755503010005,None,None,None,,,,,,,6,28,female,6,2022_May_05_1301,Partial repeat,2021.2.3,59.896056582069754,
7,8,0,1,3,2,2,1,0,0,0,0,1,0,0,0,121,121,121,1,0,1,0,,,,,,,,,739.0659578014165,None,740.0451212003827,None,l,1,0.5203820001333952,740.0451212003827,None,None,None,,,,,,,6,28,female,6,2022_May_05_1301,Partial repeat,2021.2.3,59.896056582069754,
7,8,0,1,3,2,2,1,0,0,0,0,1,0,0,0,121,121,121,,,,,,,,,,,,,,,,,,,,,,,,,,,,,,6,28,female,6,2022_May_05_1301,Partial repeat,2021.2.3,59.896056582069754,
8,6,0,1,3,3,1,2,1,0,1,0,0,0,0,0,122,122,122,0,0,0,0,,,,,,,740.5876941010356,None,741.1353922002017,None,742.1503809001297,None,s,1,0.7030982002615929,742.1503809001297,None,None,None,,,,,,,6,28,female,6,2022_May_05_1301,Partial repeat,2021.2.3,59.896056582069754,
8,6,0,1,3,3,1,2,1,0,1,0,0,0,0,0,122,122,122,1,0,1,0,,,,,,,,,742.868915701285,None,743.7191097009927,None,l,1,0.5903942994773388,743.7191097009927,None,None,None,,,,,,,6,28,female,6,2022_May_05_1301,Partial repeat,2021.2.3,59.896056582069754,
8,6,0,1,3,3,1,2,1,0,1,0,0,0,0,0,122,122,122,,,,,,,,,,,,,,,,,,,,,,,,,,,,,,6,28,female,6,2022_May_05_1301,Partial repeat,2021.2.3,59.896056582069754,
7,5,0,1,3,3,1,1,1,0,1,1,0,0,0,0,123,123,123,0,0,0,0,,,,,,,744.3380578011274,None,744.8092217016965,None,745.6059341002256,None,s,1,0.535564299672842,745.6059341002256,None,None,None,,,,,,,6,28,female,6,2022_May_05_1301,Partial repeat,2021.2.3,59.896056582069754,
7,5,0,1,3,3,1,1,1,0,1,1,0,0,0,0,123,123,123,1,0,1,0,,,,,,,,,746.1541856005788,None,747.1265159007162,None,l,1,0.6149603985249996,747.1265159007162,None,None,None,,,,,,,6,28,female,6,2022_May_05_1301,Partial repeat,2021.2.3,59.896056582069754,
7,5,0,1,3,3,1,1,1,0,1,1,0,0,0,0,123,123,123,,,,,,,,,,,,,,,,,,,,,,,,,,,,,,6,28,female,6,2022_May_05_1301,Partial repeat,2021.2.3,59.896056582069754,
5,8,0,1,2,3,2,1,1,0,0,0,0,0,0,0,124,124,124,0,0,0,0,,,,,,,747.7580372001976,None,748.4997235015035,None,749.3132100012153,None,s,1,0.5802939012646675,749.3132100012153,None,None,None,,,,,,,6,28,female,6,2022_May_05_1301,Partial repeat,2021.2.3,59.896056582069754,
5,8,0,1,2,3,2,1,1,0,0,0,0,0,0,0,124,124,124,1,0,1,0,,,,,,,,,749.9093159008771,None,750.7325577009469,None,l,1,0.4729332011193037,750.7325577009469,None,None,None,,,,,,,6,28,female,6,2022_May_05_1301,Partial repeat,2021.2.3,59.896056582069754,
5,8,0,1,2,3,2,1,1,0,0,0,0,0,0,0,124,124,124,,,,,,,,,,,,,,,,,,,,,,,,,,,,,,6,28,female,6,2022_May_05_1301,Partial repeat,2021.2.3,59.896056582069754,
2,7,0,1,3,3,1,2,0,1,1,0,0,0,0,0,125,125,125,0,0,0,0,,,,,,,751.2278502006084,None,751.7560508009046,None,752.6371923014522,None,l,1,0.608322998508811,752.6371923014522,None,None,None,,,,,,,6,28,female,6,2022_May_05_1301,Partial repeat,2021.2.3,59.896056582069754,
2,7,0,1,3,3,1,2,0,1,1,0,0,0,0,0,125,125,125,1,0,1,0,,,,,,,,,753.2729687001556,None,754.0723541006446,None,s,1,0.5892832987010479,754.0723541006446,None,None,None,,,,,,,6,28,female,6,2022_May_05_1301,Partial repeat,2021.2.3,59.896056582069754,
2,7,0,1,3,3,1,2,0,1,1,0,0,0,0,0,125,125,125,,,,,,,,,,,,,,,,,,,,,,,,,,,,,,6,28,female,6,2022_May_05_1301,Partial repeat,2021.2.3,59.896056582069754,
5,1,0,1,3,2,2,1,1,0,0,0,0,0,0,0,126,126,126,0,0,0,0,,,,,,,754.6734434012324,None,755.112549001351,None,755.9760344009846,None,s,1,0.6694812010973692,755.9760344009846,None,None,None,,,,,,,6,28,female,6,2022_May_05_1301,Partial repeat,2021.2.3,59.896056582069754,
5,1,0,1,3,2,2,1,1,0,0,0,0,0,0,0,126,126,126,1,0,1,0,,,,,,,,,756.6550044007599,None,757.5122848004103,None,l,1,0.3652317002415657,757.5122848004103,None,None,None,,,,,,,6,28,female,6,2022_May_05_1301,Partial repeat,2021.2.3,59.896056582069754,
5,1,0,1,3,2,2,1,1,0,0,0,0,0,0,0,126,126,126,,,,,,,,,,,,,,,,,,,,,,,,,,,,,,6,28,female,6,2022_May_05_1301,Partial repeat,2021.2.3,59.896056582069754,
7,1,0,1,2,3,1,2,1,1,0,0,1,0,0,0,127,127,127,0,0,0,0,,,,,,,757.9027052000165,None,758.3188539016992,None,759.215891700238,None,s,1,0.6696914006024599,759.215891700238,None,None,None,,,,,,,6,28,female,6,2022_May_05_1301,Partial repeat,2021.2.3,59.896056582069754,
7,1,0,1,2,3,1,2,1,1,0,0,1,0,0,0,127,127,127,1,0,1,0,,,,,,,,,759.895109500736,None,760.7185701001436,None,s,1,0.638942901045084,760.7185701001436,None,None,None,,,,,,,6,28,female,6,2022_May_05_1301,Partial repeat,2021.2.3,59.896056582069754,
7,1,0,1,2,3,1,2,1,1,0,0,1,0,0,0,127,127,127,,,,,,,,,,,,,,,,,,,,,,,,,,,,,,6,28,female,6,2022_May_05_1301,Partial repeat,2021.2.3,59.896056582069754,
7,7,0,1,3,2,2,1,1,1,0,0,1,1,0,0,128,128,128,0,0,0,0,,,,,,,762.8845161013305,None,763.796220600605,None,764.6764848008752,None,s,1,0.7772091999650002,764.6764848008752,None,None,None,,,,,,,6,28,female,6,2022_May_05_1301,Partial repeat,2021.2.3,59.896056582069754,
7,7,0,1,3,2,2,1,1,1,0,0,1,1,0,0,128,128,128,1,0,1,0,,,,,,,,,765.468262501061,None,766.4298120010644,None,s,1,0.5517036989331245,766.4298120010644,None,None,None,,,,,,,6,28,female,6,2022_May_05_1301,Partial repeat,2021.2.3,59.896056582069754,
7,7,0,1,3,2,2,1,1,1,0,0,1,1,0,0,128,128,128,,,,,,,,,,,,,,,,,,,,,,,,,,,,,,6,28,female,6,2022_May_05_1301,Partial repeat,2021.2.3,59.896056582069754,
7,7,0,1,3,3,2,1,1,1,1,0,1,1,0,0,129,129,129,0,0,0,0,,,,,,,767.001251200214,None,767.5868728011847,None,768.4507942013443,None,s,1,0.5387181006371975,768.4507942013443,None,None,None,,,,,,,6,28,female,6,2022_May_05_1301,Partial repeat,2021.2.3,59.896056582069754,
7,7,0,1,3,3,2,1,1,1,1,0,1,1,0,0,129,129,129,1,0,1,0,,,,,,,,,769.0079600010067,None,769.736478799954,None,s,1,0.4610791988670826,769.736478799954,None,None,None,,,,,,,6,28,female,6,2022_May_05_1301,Partial repeat,2021.2.3,59.896056582069754,
7,7,0,1,3,3,2,1,1,1,1,0,1,1,0,0,129,129,129,,,,,,,,,,,,,,,,,,,,,,,,,,,,,,6,28,female,6,2022_May_05_1301,Partial repeat,2021.2.3,59.896056582069754,
7,7,0,1,3,2,1,2,0,1,0,0,0,1,0,0,130,130,130,0,0,0,0,,,,,,,770.2105388008058,None,770.6929369010031,None,771.5233851000667,None,l,1,0.554143700748682,771.5233851000667,None,None,None,,,,,,,6,28,female,6,2022_May_05_1301,Partial repeat,2021.2.3,59.896056582069754,
7,7,0,1,3,2,1,2,0,1,0,0,0,1,0,0,130,130,130,1,0,1,0,,,,,,,,,772.0951511003077,None,773.042959401384,None,s,1,0.554551500827074,773.042959401384,None,None,None,,,,,,,6,28,female,6,2022_May_05_1301,Partial repeat,2021.2.3,59.896056582069754,
7,7,0,1,3,2,1,2,0,1,0,0,0,1,0,0,130,130,130,,,,,,,,,,,,,,,,,,,,,,,,,,,,,,6,28,female,6,2022_May_05_1301,Partial repeat,2021.2.3,59.896056582069754,
7,7,0,1,2,3,2,2,1,0,0,1,0,1,0,0,131,131,131,0,0,0,0,,,,,,,773.6231149006635,None,774.0327603016049,None,775.0476314015687,None,s,1,0.5418864004313946,775.0476314015687,None,None,None,,,,,,,6,28,female,6,2022_May_05_1301,Partial repeat,2021.2.3,59.896056582069754,
7,7,0,1,2,3,2,2,1,0,0,1,0,1,0,0,131,131,131,1,0,1,0,,,,,,,,,775.6017788015306,None,776.6005082000047,None,l,1,0.46100770123302937,776.6005082000047,None,None,None,,,,,,,6,28,female,6,2022_May_05_1301,Partial repeat,2021.2.3,59.896056582069754,
7,7,0,1,2,3,2,2,1,0,0,1,0,1,0,0,131,131,131,,,,,,,,,,,,,,,,,,,,,,,,,,,,,,6,28,female,6,2022_May_05_1301,Partial repeat,2021.2.3,59.896056582069754,
7,7,0,1,2,3,1,1,0,1,0,1,0,1,0,0,132,132,132,0,0,0,0,,,,,,,777.0766889005899,None,777.5562660004944,None,778.336283300072,None,l,1,0.5812600012868643,778.336283300072,None,None,None,,,,,,,6,28,female,6,2022_May_05_1301,Partial repeat,2021.2.3,59.896056582069754,
7,7,0,1,2,3,1,1,0,1,0,1,0,1,0,0,132,132,132,1,0,1,0,,,,,,,,,778.9286846015602,None,779.6893371008337,None,s,1,0.5321792997419834,779.6893371008337,None,None,None,,,,,,,6,28,female,6,2022_May_05_1301,Partial repeat,2021.2.3,59.896056582069754,
7,7,0,1,2,3,1,1,0,1,0,1,0,1,0,0,132,132,132,,,,,,,,,,,,,,,,,,,,,,,,,,,,,,6,28,female,6,2022_May_05_1301,Partial repeat,2021.2.3,59.896056582069754,
7,7,0,1,3,3,1,2,1,1,1,0,1,1,0,0,133,133,133,0,0,0,0,,,,,,,780.2472915016115,None,781.029709501192,None,781.8097853008658,None,s,1,0.45983169972896576,781.8097853008658,None,None,None,,,,,,,6,28,female,6,2022_May_05_1301,Partial repeat,2021.2.3,59.896056582069754,
7,7,0,1,3,3,1,2,1,1,1,0,1,1,0,0,133,133,133,1,0,1,0,,,,,,,,,782.2790248002857,None,783.2463524006307,None,s,1,0.49514609947800636,783.2463524006307,None,None,None,,,,,,,6,28,female,6,2022_May_05_1301,Partial repeat,2021.2.3,59.896056582069754,
7,7,0,1,3,3,1,2,1,1,1,0,1,1,0,0,133,133,133,,,,,,,,,,,,,,,,,,,,,,,,,,,,,,6,28,female,6,2022_May_05_1301,Partial repeat,2021.2.3,59.896056582069754,
7,7,0,1,3,2,2,1,0,0,0,0,1,1,0,0,134,134,134,0,0,0,0,,,,,,,783.7634762004018,None,784.2192787006497,None,785.0828998014331,None,l,1,0.4746580012142658,785.0828998014331,None,None,None,,,,,,,6,28,female,6,2022_May_05_1301,Partial repeat,2021.2.3,59.896056582069754,
7,7,0,1,3,2,2,1,0,0,0,0,1,1,0,0,134,134,134,1,0,1,0,,,,,,,,,785.5740902014077,None,786.4855933003128,None,l,1,0.3999883998185396,786.4855933003128,None,None,None,,,,,,,6,28,female,6,2022_May_05_1301,Partial repeat,2021.2.3,59.896056582069754,
7,7,0,1,3,2,2,1,0,0,0,0,1,1,0,0,134,134,134,,,,,,,,,,,,,,,,,,,,,,,,,,,,,,6,28,female,6,2022_May_05_1301,Partial repeat,2021.2.3,59.896056582069754,
7,7,0,1,2,2,1,1,1,1,1,1,1,1,0,0,135,135,135,0,0,0,0,,,,,,,786.8966920003295,None,787.3586861006916,None,788.3056601006538,None,s,1,0.6278315000236034,788.3056601006538,None,None,None,,,,,,,6,28,female,6,2022_May_05_1301,Partial repeat,2021.2.3,59.896056582069754,
7,7,0,1,2,2,1,1,1,1,1,1,1,1,0,0,135,135,135,1,0,1,0,,,,,,,,,788.9610288999975,None,789.9422393012792,None,s,1,0.3912688009440899,789.9422393012792,None,None,None,,,,,,,6,28,female,6,2022_May_05_1301,Partial repeat,2021.2.3,59.896056582069754,
7,7,0,1,2,2,1,1,1,1,1,1,1,1,0,0,135,135,135,,,,,,,,,,,,,,,,,,,,,,,,,,,,,,6,28,female,6,2022_May_05_1301,Partial repeat,2021.2.3,59.896056582069754,
7,7,0,1,2,2,2,2,0,1,1,1,0,1,0,0,136,136,136,0,0,0,0,,,,,,,790.3525078017265,None,790.6985061001033,None,791.4293488003314,None,l,1,0.49616280011832714,791.4293488003314,None,None,None,,,,,,,6,28,female,6,2022_May_05_1301,Partial repeat,2021.2.3,59.896056582069754,
7,7,0,1,2,2,2,2,0,1,1,1,0,1,0,0,136,136,136,1,0,1,0,,,,,,,,,791.9398919008672,None,792.7977058012038,None,s,1,0.3758972007781267,792.7977058012038,None,None,None,,,,,,,6,28,female,6,2022_May_05_1301,Partial repeat,2021.2.3,59.896056582069754,
7,7,0,1,2,2,2,2,0,1,1,1,0,1,0,0,136,136,136,,,,,,,,,,,,,,,,,,,,,,,,,,,,,,6,28,female,6,2022_May_05_1301,Partial repeat,2021.2.3,59.896056582069754,
7,7,0,1,2,2,2,1,1,1,1,0,1,1,0,0,137,137,137,0,0,0,0,,,,,,,793.186794700101,None,793.5707501005381,None,794.3173587005585,None,s,1,0.5201203003525734,794.3173587005585,None,None,None,,,,,,,6,28,female,6,2022_May_05_1301,Partial repeat,2021.2.3,59.896056582069754,
7,7,0,1,2,2,2,1,1,1,1,0,1,1,0,0,137,137,137,1,0,1,0,,,,,,,,,794.8518903013319,None,795.770702900365,None,s,1,0.41893599927425385,795.770702900365,None,None,None,,,,,,,6,28,female,6,2022_May_05_1301,Partial repeat,2021.2.3,59.896056582069754,
7,7,0,1,2,2,2,1,1,1,1,0,1,1,0,0,137,137,137,,,,,,,,,,,,,,,,,,,,,,,,,,,,,,6,28,female,6,2022_May_05_1301,Partial repeat,2021.2.3,59.896056582069754,
7,7,0,1,3,2,2,1,0,1,0,0,0,1,0,0,138,138,138,0,0,0,0,,,,,,,796.2009553015232,None,796.5599803011864,None,797.4404435008764,None,l,1,0.44505849853157997,797.4404435008764,None,None,None,,,,,,,6,28,female,6,2022_May_05_1301,Partial repeat,2021.2.3,59.896056582069754,
7,7,0,1,3,2,2,1,0,1,0,0,0,1,0,0,138,138,138,1,0,1,0,,,,,,,,,797.9133505001664,None,798.8261310011148,None,s,1,0.3713863994926214,798.8261310011148,None,None,None,,,,,,,6,28,female,6,2022_May_05_1301,Partial repeat,2021.2.3,59.896056582069754,
7,7,0,1,3,2,2,1,0,1,0,0,0,1,0,0,138,138,138,,,,,,,,,,,,,,,,,,,,,,,,,,,,,,6,28,female,6,2022_May_05_1301,Partial repeat,2021.2.3,59.896056582069754,
7,7,0,1,3,3,2,1,1,0,1,0,0,1,0,0,139,139,139,0,0,0,0,,,,,,,799.2146943006665,None,799.49895690009,None,800.462608801201,None,s,1,0.5589094012975693,800.462608801201,None,None,None,,,,,,,6,28,female,6,2022_May_05_1301,Partial repeat,2021.2.3,59.896056582069754,
7,7,0,1,3,3,2,1,1,0,1,0,0,1,0,0,139,139,139,1,0,1,0,,,,,,,,,801.0344487000257,None,801.8655047006905,None,l,1,0.3639962989836931,801.8655047006905,None,None,None,,,,,,,6,28,female,6,2022_May_05_1301,Partial repeat,2021.2.3,59.896056582069754,
7,7,0,1,3,3,2,1,1,0,1,0,0,1,0,0,139,139,139,,,,,,,,,,,,,,,,,,,,,,,,,,,,,,6,28,female,6,2022_May_05_1301,Partial repeat,2021.2.3,59.896056582069754,
7,7,0,1,2,3,1,1,1,1,0,1,1,1,0,0,140,140,140,0,0,0,0,,,,,,,802.2536877002567,None,802.62172890082,None,803.4016798008233,None,s,1,0.4518351014703512,803.4016798008233,None,None,None,,,,,,,6,28,female,6,2022_May_05_1301,Partial repeat,2021.2.3,59.896056582069754,
7,7,0,1,2,3,1,1,1,1,0,1,1,1,0,0,140,140,140,1,0,1,0,,,,,,,,,803.8694265000522,None,804.8380308002234,None,s,1,0.44750179909169674,804.8380308002234,None,None,None,,,,,,,6,28,female,6,2022_May_05_1301,Partial repeat,2021.2.3,59.896056582069754,
7,7,0,1,2,3,1,1,1,1,0,1,1,1,0,0,140,140,140,,,,,,,,,,,,,,,,,,,,,,,,,,,,,,6,28,female,6,2022_May_05_1301,Partial repeat,2021.2.3,59.896056582069754,
7,7,0,1,2,2,1,2,0,0,1,0,1,1,0,0,141,141,141,0,0,0,0,,,,,,,805.3124459013343,None,805.7110305000097,None,806.6414806004614,None,l,1,0.9320366997271776,806.6414806004614,None,None,None,,,,,,,6,28,female,6,2022_May_05_1301,Partial repeat,2021.2.3,59.896056582069754,
7,7,0,1,2,2,1,2,0,0,1,0,1,1,0,0,141,141,141,1,0,1,0,,,,,,,,,807.5902615003288,None,808.3958493005484,None,l,1,0.537669999524951,808.3958493005484,None,None,None,,,,,,,6,28,female,6,2022_May_05_1301,Partial repeat,2021.2.3,59.896056582069754,
7,7,0,1,2,2,1,2,0,0,1,0,1,1,0,0,141,141,141,,,,,,,,,,,,,,,,,,,,,,,,,,,,,,6,28,female,6,2022_May_05_1301,Partial repeat,2021.2.3,59.896056582069754,
7,7,0,1,2,3,1,2,0,0,0,0,1,1,0,0,142,142,142,0,0,0,0,,,,,,,808.9524224009365,None,809.351497400552,None,810.1984816007316,None,l,1,0.3990286998450756,810.1984816007316,None,None,None,,,,,,,6,28,female,6,2022_May_05_1301,Partial repeat,2021.2.3,59.896056582069754,
7,7,0,1,2,3,1,2,0,0,0,0,1,1,0,0,142,142,142,1,0,1,0,,,,,,,,,810.6219214014709,None,811.4007670003921,None,l,1,0.47674369998276234,811.4007670003921,None,None,None,,,,,,,6,28,female,6,2022_May_05_1301,Partial repeat,2021.2.3,59.896056582069754,
7,7,0,1,2,3,1,2,0,0,0,0,1,1,0,0,142,142,142,,,,,,,,,,,,,,,,,,,,,,,,,,,,,,6,28,female,6,2022_May_05_1301,Partial repeat,2021.2.3,59.896056582069754,
7,7,0,1,2,3,2,1,1,0,0,0,0,1,0,0,143,143,143,0,0,0,0,,,,,,,811.8944986015558,None,812.3740222007036,None,813.3713053017855,None,s,1,0.5302110016345978,813.3713053017855,None,None,None,,,,,,,6,28,female,6,2022_May_05_1301,Partial repeat,2021.2.3,59.896056582069754,
7,7,0,1,2,3,2,1,1,0,0,0,0,1,0,0,143,143,143,1,0,1,0,,,,,,,,,813.9218530002981,None,814.9073685016483,None,l,1,0.6501141991466284,814.9073685016483,None,None,None,,,,,,,6,28,female,6,2022_May_05_1301,Partial repeat,2021.2.3,59.896056582069754,
7,7,0,1,2,3,2,1,1,0,0,0,0,1,0,0,143,143,143,,,,,,,,,,,,,,,,,,,,,,,,,,,,,,6,28,female,6,2022_May_05_1301,Partial repeat,2021.2.3,59.896056582069754,
7,7,0,1,2,3,1,2,1,1,0,0,1,1,0,0,144,144,144,0,0,0,0,,,,,,,815.5756863001734,None,816.4318893011659,None,817.2120544016361,None,s,1,0.42547200061380863,817.2120544016361,None,None,None,,,,,,,6,28,female,6,2022_May_05_1301,Partial repeat,2021.2.3,59.896056582069754,
7,7,0,1,2,3,1,2,1,1,0,0,1,1,0,0,144,144,144,1,0,1,0,,,,,,,,,817.6603927016258,None,818.6651194002479,None,s,1,0.41240129992365837,818.6651194002479,None,None,None,,,,,,,6,28,female,6,2022_May_05_1301,Partial repeat,2021.2.3,59.896056582069754,
7,7,0,1,2,3,1,2,1,1,0,0,1,1,0,0,144,144,144,,,,,,,,,,,,,,,,,,,,,,,,,,,,,,6,28,female,6,2022_May_05_1301,Partial repeat,2021.2.3,59.896056582069754,
7,7,0,1,2,3,2,2,1,1,0,1,1,1,0,0,145,145,145,0,0,0,0,,,,,,,819.0960619002581,None,819.4711732007563,None,820.3013232015073,None,s,1,0.4721990991383791,820.3013232015073,None,None,None,,,,,,,6,28,female,6,2022_May_05_1301,Partial repeat,2021.2.3,59.896056582069754,
7,7,0,1,2,3,2,2,1,1,0,1,1,1,0,0,145,145,145,1,0,1,0,,,,,,,,,820.7929312009364,None,821.7039159014821,None,s,1,0.35769379884004593,821.7039159014821,None,None,None,,,,,,,6,28,female,6,2022_May_05_1301,Partial repeat,2021.2.3,59.896056582069754,
7,7,0,1,2,3,2,2,1,1,0,1,1,1,0,0,145,145,145,,,,,,,,,,,,,,,,,,,,,,,,,,,,,,6,28,female,6,2022_May_05_1301,Partial repeat,2021.2.3,59.896056582069754,
7,7,0,1,3,3,2,2,1,0,1,1,0,1,0,0,146,146,146,0,0,0,0,,,,,,,822.0738330017775,None,822.4770040009171,None,823.1902060005814,None,s,1,0.38332550041377544,823.1902060005814,None,None,None,,,,,,,6,28,female,6,2022_May_05_1301,Partial repeat,2021.2.3,59.896056582069754,
7,7,0,1,3,3,2,2,1,0,1,1,0,1,0,0,146,146,146,1,0,1,0,,,,,,,,,823.5954774003476,None,824.5263319015503,None,l,1,0.35931709967553616,824.5263319015503,None,None,None,,,,,,,6,28,female,6,2022_May_05_1301,Partial repeat,2021.2.3,59.896056582069754,
7,7,0,1,3,3,2,2,1,0,1,1,0,1,0,0,146,146,146,,,,,,,,,,,,,,,,,,,,,,,,,,,,,,6,28,female,6,2022_May_05_1301,Partial repeat,2021.2.3,59.896056582069754,
7,7,0,1,2,3,1,1,1,0,0,1,0,1,0,0,147,147,147,0,0,0,0,,,,,,,824.897441001609,None,825.3492535017431,None,826.1629555001855,None,s,1,0.4826372992247343,826.1629555001855,None,None,None,,,,,,,6,28,female,6,2022_May_05_1301,Partial repeat,2021.2.3,59.896056582069754,
7,7,0,1,2,3,1,1,1,0,0,1,0,1,0,0,147,147,147,1,0,1,0,,,,,,,,,826.6719544008374,None,827.5319982003421,None,l,1,0.40156189911067486,827.5319982003421,None,None,None,,,,,,,6,28,female,6,2022_May_05_1301,Partial repeat,2021.2.3,59.896056582069754,
7,7,0,1,2,3,1,1,1,0,0,1,0,1,0,0,147,147,147,,,,,,,,,,,,,,,,,,,,,,,,,,,,,,6,28,female,6,2022_May_05_1301,Partial repeat,2021.2.3,59.896056582069754,
7,7,0,1,2,3,2,1,0,0,0,0,1,1,0,0,148,148,148,0,0,0,0,,,,,,,827.962532101199,None,828.3885391000658,None,829.1350825000554,None,l,1,0.4304382000118494,829.1350825000554,None,None,None,,,,,,,6,28,female,6,2022_May_05_1301,Partial repeat,2021.2.3,59.896056582069754,
7,7,0,1,2,3,2,1,0,0,0,0,1,1,0,0,148,148,148,1,0,1,0,,,,,,,,,829.5834393016994,None,830.3708458002657,None,l,1,0.36267419904470444,830.3708458002657,None,None,None,,,,,,,6,28,female,6,2022_May_05_1301,Partial repeat,2021.2.3,59.896056582069754,
7,7,0,1,2,3,2,1,0,0,0,0,1,1,0,0,148,148,148,,,,,,,,,,,,,,,,,,,,,,,,,,,,,,6,28,female,6,2022_May_05_1301,Partial repeat,2021.2.3,59.896056582069754,
7,7,0,1,2,2,1,1,0,1,1,1,0,1,0,0,149,149,149,0,0,0,0,,,,,,,830.7590789012611,None,831.2106794007123,None,832.0741907004267,None,l,1,0.36336199939250946,832.0741907004267,None,None,None,,,,,,,6,28,female,6,2022_May_05_1301,Partial repeat,2021.2.3,59.896056582069754,
7,7,0,1,2,2,1,1,0,1,1,1,0,1,0,0,149,149,149,1,0,1,0,,,,,,,,,832.4583579003811,None,833.3937317002565,None,s,1,0.40376519970595837,833.3937317002565,None,None,None,,,,,,,6,28,female,6,2022_May_05_1301,Partial repeat,2021.2.3,59.896056582069754,
7,7,0,1,2,2,1,1,0,1,1,1,0,1,0,0,149,149,149,,,,,,,,,,,,,,,,,,,,,,,,,,,,,,6,28,female,6,2022_May_05_1301,Partial repeat,2021.2.3,59.896056582069754,
7,7,0,1,3,2,2,1,1,0,0,0,0,1,0,0,150,150,150,0,0,0,0,,,,,,,833.8281612005085,None,834.1831316016614,None,835.1971553005278,None,s,1,0.5683117993175983,835.1971553005278,None,None,None,,,,,,,6,28,female,6,2022_May_05_1301,Partial repeat,2021.2.3,59.896056582069754,
7,7,0,1,3,2,2,1,1,0,0,0,0,1,0,0,150,150,150,1,0,1,0,,,,,,,,,835.7929390016943,None,836.7665568012744,None,l,1,0.39893140085041523,836.7665568012744,None,None,None,,,,,,,6,28,female,6,2022_May_05_1301,Partial repeat,2021.2.3,59.896056582069754,
7,7,0,1,3,2,2,1,1,0,0,0,0,1,0,0,150,150,150,,,,,,,,,,,,,,,,,,,,,,,,,,,,,,6,28,female,6,2022_May_05_1301,Partial repeat,2021.2.3,59.896056582069754,
7,7,0,1,3,2,2,2,0,0,0,1,1,1,0,0,151,151,151,0,0,0,0,,,,,,,837.1761861015111,None,837.6064448002726,None,838.5541356001049,None,l,1,0.5313802007585764,838.5541356001049,None,None,None,,,,,,,6,28,female,6,2022_May_05_1301,Partial repeat,2021.2.3,59.896056582069754,
7,7,0,1,3,2,2,2,0,0,0,1,1,1,0,0,151,151,151,1,0,1,0,,,,,,,,,839.1046853009611,None,840.0229648016393,None,l,1,0.42259690165519714,840.0229648016393,None,None,None,,,,,,,6,28,female,6,2022_May_05_1301,Partial repeat,2021.2.3,59.896056582069754,
7,7,0,1,3,2,2,2,0,0,0,1,1,1,0,0,151,151,151,,,,,,,,,,,,,,,,,,,,,,,,,,,,,,6,28,female,6,2022_May_05_1301,Partial repeat,2021.2.3,59.896056582069754,
