prime_tar_pos,probe_tar_pos,dimension,tar_color,prime_dist_color,probe_dist_color,prime_dist_shape,probe_dist_shape,prime_tar_dot_pos,probe_tar_dot_pos,col_rep,shape_rep,resp_rep,pos_fixed,sparse,MainLoop.thisRepN,MainLoop.thisTrialN,MainLoop.thisN,MainLoop.thisIndex,PrimeProbe.thisRepN,PrimeProbe.thisTrialN,PrimeProbe.thisN,PrimeProbe.thisIndex,Instruction.started,Instruction.stopped,instruction_key.keys,instruction_key.rt,instruction_key.started,instruction_key.stopped,PairStartText.started,PairStartText.stopped,FixCross.started,FixCross.stopped,SearchFixCross.started,SearchFixCross.stopped,key_resp.keys,key_resp.corr,key_resp.rt,key_resp.started,key_resp.stopped,feedback_text.started,feedback_text.stopped,text_finish.started,text_finish.stopped,finish_key.keys,finish_key.rt,finish_key.started,finish_key.stopped,participant,age,gender,group,date,expName,psychopyVersion,frameRate,
,,,,,,,,,,,,,,,,,,,,,,,23.242177300155163,None,space,48.96142260171473,23.242177300155163,None,,,,,,,,,,,,,,,,,,,,7,22,male,7,2022_May_05_1535,Partial repeat,2021.2.3,59.89645084092524,
8,6,0,1,2,2,1,2,1,0,1,0,0,0,0,0,0,0,0,0,0,0,0,,,,,,,72.33317750133574,None,76.49208790063858,None,77.259641001001,None,l,0,1.367961699143052,77.259641001001,None,78.64059040136635,None,,,,,,,7,22,male,7,2022_May_05_1535,Partial repeat,2021.2.3,59.89645084092524,
8,6,0,1,2,2,1,2,1,0,1,0,0,0,0,0,0,0,0,1,0,1,0,,,,,,,,,79.14738440141082,None,80.11118230037391,None,s,0,0.8202387988567352,80.11118230037391,None,80.94548820145428,None,,,,,,,7,22,male,7,2022_May_05_1535,Partial repeat,2021.2.3,59.89645084092524,
8,6,0,1,2,2,1,2,1,0,1,0,0,0,0,0,0,0,0,,,,,,,,,,,,,,,,,,,,,,,,,,,,,,7,22,male,7,2022_May_05_1535,Partial repeat,2021.2.3,59.89645084092524,
6,8,0,1,3,3,1,1,0,0,1,1,1,0,0,0,1,1,1,0,0,0,0,,,,,,,81.45187460072339,None,82.5371073000133,None,83.51764470152557,None,s,0,1.1737833004444838,83.51764470152557,None,84.70760009996593,None,,,,,,,7,22,male,7,2022_May_05_1535,Partial repeat,2021.2.3,59.89645084092524,
6,8,0,1,3,3,1,1,0,0,1,1,1,0,0,0,1,1,1,1,0,1,0,,,,,,,,,85.20914239995182,None,86.02266500145197,None,l,1,0.6687809005379677,86.02266500145197,None,None,None,,,,,,,7,22,male,7,2022_May_05_1535,Partial repeat,2021.2.3,59.89645084092524,
6,8,0,1,3,3,1,1,0,0,1,1,1,0,0,0,1,1,1,,,,,,,,,,,,,,,,,,,,,,,,,,,,,,7,22,male,7,2022_May_05_1535,Partial repeat,2021.2.3,59.89645084092524,
6,6,0,1,2,3,2,1,0,1,0,0,0,0,0,0,2,2,2,0,0,0,0,,,,,,,86.7111956011504,None,88.19831090047956,None,89.17882640101016,None,l,1,0.6566134989261627,89.17882640101016,None,None,None,,,,,,,7,22,male,7,2022_May_05_1535,Partial repeat,2021.2.3,59.89645084092524,
6,6,0,1,2,3,2,1,0,1,0,0,0,0,0,0,2,2,2,1,0,1,0,,,,,,,,,89.86057780124247,None,90.61494790017605,None,s,1,0.9404613003134727,90.61494790017605,None,None,None,,,,,,,7,22,male,7,2022_May_05_1535,Partial repeat,2021.2.3,59.89645084092524,
6,6,0,1,2,3,2,1,0,1,0,0,0,0,0,0,2,2,2,,,,,,,,,,,,,,,,,,,,,,,,,,,,,,7,22,male,7,2022_May_05_1535,Partial repeat,2021.2.3,59.89645084092524,
5,3,0,1,2,2,2,1,0,0,1,0,1,0,0,0,3,3,3,0,0,0,0,,,,,,,91.58620870113373,None,93.80914730019867,None,94.72288160026073,None,l,1,0.9365483000874519,94.72288160026073,None,None,None,,,,,,,7,22,male,7,2022_May_05_1535,Partial repeat,2021.2.3,59.89645084092524,
5,3,0,1,2,2,2,1,0,0,1,0,1,0,0,0,3,3,3,1,0,1,0,,,,,,,,,95.67990580014884,None,96.694534400478,None,l,1,0.6928735990077257,96.694534400478,None,None,None,,,,,,,7,22,male,7,2022_May_05_1535,Partial repeat,2021.2.3,59.89645084092524,
5,3,0,1,2,2,2,1,0,0,1,0,1,0,0,0,3,3,3,,,,,,,,,,,,,,,,,,,,,,,,,,,,,,7,22,male,7,2022_May_05_1535,Partial repeat,2021.2.3,59.89645084092524,
7,5,0,1,2,2,1,2,0,0,1,0,1,0,0,0,4,4,4,0,0,0,0,,,,,,,97.40352230146527,None,98.80222840048373,None,99.59905820153654,None,l,1,0.5963655989617109,99.59905820153654,None,None,None,,,,,,,7,22,male,7,2022_May_05_1535,Partial repeat,2021.2.3,59.89645084092524,
7,5,0,1,2,2,1,2,0,0,1,0,1,0,0,0,4,4,4,1,0,1,0,,,,,,,,,100.21891280077398,None,100.95210300013423,None,l,1,0.5553425997495651,100.95210300013423,None,None,None,,,,,,,7,22,male,7,2022_May_05_1535,Partial repeat,2021.2.3,59.89645084092524,
7,5,0,1,2,2,1,2,0,0,1,0,1,0,0,0,4,4,4,,,,,,,,,,,,,,,,,,,,,,,,,,,,,,7,22,male,7,2022_May_05_1535,Partial repeat,2021.2.3,59.89645084092524,
5,5,0,1,3,3,2,1,0,0,1,0,1,0,0,0,5,5,5,0,0,0,0,,,,,,,101.51788790151477,None,102.69310410134494,None,103.67415210045874,None,l,1,0.48932410031557083,103.67415210045874,None,None,None,,,,,,,7,22,male,7,2022_May_05_1535,Partial repeat,2021.2.3,59.89645084092524,
5,5,0,1,3,3,2,1,0,0,1,0,1,0,0,0,5,5,5,1,0,1,0,,,,,,,,,104.19203229993582,None,105.10959890112281,None,l,1,0.493827398866415,105.10959890112281,None,None,None,,,,,,,7,22,male,7,2022_May_05_1535,Partial repeat,2021.2.3,59.89645084092524,
5,5,0,1,3,3,2,1,0,0,1,0,1,0,0,0,5,5,5,,,,,,,,,,,,,,,,,,,,,,,,,,,,,,7,22,male,7,2022_May_05_1535,Partial repeat,2021.2.3,59.89645084092524,
7,3,0,1,3,2,1,2,1,0,0,0,0,0,0,0,6,6,6,0,0,0,0,,,,,,,105.62923310138285,None,108.13692020066082,None,108.88419290073216,None,s,1,0.687236400321126,108.88419290073216,None,None,None,,,,,,,7,22,male,7,2022_May_05_1535,Partial repeat,2021.2.3,59.89645084092524,
7,3,0,1,3,2,1,2,1,0,0,0,0,0,0,0,6,6,6,1,0,1,0,,,,,,,,,109.58998010121286,None,110.45465200021863,None,l,1,0.5887706000357866,110.45465200021863,None,None,None,,,,,,,7,22,male,7,2022_May_05_1535,Partial repeat,2021.2.3,59.89645084092524,
7,3,0,1,3,2,1,2,1,0,0,0,0,0,0,0,6,6,6,,,,,,,,,,,,,,,,,,,,,,,,,,,,,,7,22,male,7,2022_May_05_1535,Partial repeat,2021.2.3,59.89645084092524,
2,5,0,1,2,3,1,2,0,1,0,0,0,0,0,0,7,7,7,0,0,0,0,,,,,,,111.06800400093198,None,112.57904569990933,None,113.54322759993374,None,l,1,0.4841843992471695,113.54322759993374,None,None,None,,,,,,,7,22,male,7,2022_May_05_1535,Partial repeat,2021.2.3,59.89645084092524,
2,5,0,1,2,3,1,2,0,1,0,0,0,0,0,0,7,7,7,1,0,1,0,,,,,,,,,114.03919250145555,None,114.82878430001438,None,s,1,0.5667230002582073,114.82878430001438,None,None,None,,,,,,,7,22,male,7,2022_May_05_1535,Partial repeat,2021.2.3,59.89645084092524,
2,5,0,1,2,3,1,2,0,1,0,0,0,0,0,0,7,7,7,,,,,,,,,,,,,,,,,,,,,,,,,,,,,,7,22,male,7,2022_May_05_1535,Partial repeat,2021.2.3,59.89645084092524,
3,2,0,1,3,2,1,1,0,1,0,1,0,0,0,0,8,8,8,0,0,0,0,,,,,,,115.40965780057013,None,116.36978530138731,None,117.18479910120368,None,s,0,0.6185918990522623,117.18479910120368,None,117.8287730012089,None,,,,,,,7,22,male,7,2022_May_05_1535,Partial repeat,2021.2.3,59.89645084092524,
3,2,0,1,3,2,1,1,0,1,0,1,0,0,0,0,8,8,8,1,0,1,0,,,,,,,,,118.34019100107253,None,119.07042980007827,None,s,1,0.7409899011254311,119.07042980007827,None,None,None,,,,,,,7,22,male,7,2022_May_05_1535,Partial repeat,2021.2.3,59.89645084092524,
3,2,0,1,3,2,1,1,0,1,0,1,0,0,0,0,8,8,8,,,,,,,,,,,,,,,,,,,,,,,,,,,,,,7,22,male,7,2022_May_05_1535,Partial repeat,2021.2.3,59.89645084092524,
8,3,0,1,3,3,1,2,1,1,1,0,1,0,0,0,9,9,9,0,0,0,0,,,,,,,119.83806690014899,None,120.87850560061634,None,121.72571090050042,None,s,1,0.8456628993153572,121.72571090050042,None,None,None,,,,,,,7,22,male,7,2022_May_05_1535,Partial repeat,2021.2.3,59.89645084092524,
8,3,0,1,3,3,1,2,1,1,1,0,1,0,0,0,9,9,9,1,0,1,0,,,,,,,,,122.58074760064483,None,123.4286552015692,None,s,1,0.6548651996999979,123.4286552015692,None,None,None,,,,,,,7,22,male,7,2022_May_05_1535,Partial repeat,2021.2.3,59.89645084092524,
8,3,0,1,3,3,1,2,1,1,1,0,1,0,0,0,9,9,9,,,,,,,,,,,,,,,,,,,,,,,,,,,,,,7,22,male,7,2022_May_05_1535,Partial repeat,2021.2.3,59.89645084092524,
1,6,0,1,2,2,2,2,0,1,1,1,0,0,0,0,10,10,10,0,0,0,0,,,,,,,124.09671610035002,None,125.5710282009095,None,126.35207490064204,None,l,1,0.7634091004729271,126.35207490064204,None,None,None,,,,,,,7,22,male,7,2022_May_05_1535,Partial repeat,2021.2.3,59.89645084092524,
1,6,0,1,2,2,2,2,0,1,1,1,0,0,0,0,10,10,10,1,0,1,0,,,,,,,,,127.14011900126934,None,128.10465870052576,None,s,1,0.5947450995445251,128.10465870052576,None,None,None,,,,,,,7,22,male,7,2022_May_05_1535,Partial repeat,2021.2.3,59.89645084092524,
1,6,0,1,2,2,2,2,0,1,1,1,0,0,0,0,10,10,10,,,,,,,,,,,,,,,,,,,,,,,,,,,,,,7,22,male,7,2022_May_05_1535,Partial repeat,2021.2.3,59.89645084092524,
1,7,0,1,3,2,1,1,1,0,0,1,0,0,0,0,11,11,11,0,0,0,0,,,,,,,128.7305514998734,None,129.77917280048132,None,130.57609630003572,None,s,1,0.7153996005654335,130.57609630003572,None,None,None,,,,,,,7,22,male,7,2022_May_05_1535,Partial repeat,2021.2.3,59.89645084092524,
1,7,0,1,3,2,1,1,1,0,0,1,0,0,0,0,11,11,11,1,0,1,0,,,,,,,,,131.3010151013732,None,132.06231660023332,None,l,1,0.5091267991811037,132.06231660023332,None,None,None,,,,,,,7,22,male,7,2022_May_05_1535,Partial repeat,2021.2.3,59.89645084092524,
1,7,0,1,3,2,1,1,1,0,0,1,0,0,0,0,11,11,11,,,,,,,,,,,,,,,,,,,,,,,,,,,,,,7,22,male,7,2022_May_05_1535,Partial repeat,2021.2.3,59.89645084092524,
6,5,0,1,2,3,1,1,1,0,0,1,0,0,0,0,12,12,12,0,0,0,0,,,,,,,132.58617370016873,None,133.70343840122223,None,134.48364650085568,None,s,1,0.7277697008103132,134.48364650085568,None,None,None,,,,,,,7,22,male,7,2022_May_05_1535,Partial repeat,2021.2.3,59.89645084092524,
6,5,0,1,2,3,1,1,1,0,0,1,0,0,0,0,12,12,12,1,0,1,0,,,,,,,,,135.22950990125537,None,136.22047610022128,None,l,1,0.4868918005377054,136.22047610022128,None,None,None,,,,,,,7,22,male,7,2022_May_05_1535,Partial repeat,2021.2.3,59.89645084092524,
6,5,0,1,2,3,1,1,1,0,0,1,0,0,0,0,12,12,12,,,,,,,,,,,,,,,,,,,,,,,,,,,,,,7,22,male,7,2022_May_05_1535,Partial repeat,2021.2.3,59.89645084092524,
5,6,0,1,3,2,1,2,1,1,0,0,1,0,0,0,13,13,13,0,0,0,0,,,,,,,136.7178030014038,None,137.41055920161307,None,138.42525080032647,None,s,1,0.5541655998677015,138.42525080032647,None,None,None,,,,,,,7,22,male,7,2022_May_05_1535,Partial repeat,2021.2.3,59.89645084092524,
5,6,0,1,3,2,1,2,1,1,0,0,1,0,0,0,13,13,13,1,0,1,0,,,,,,,,,138.99771180003881,None,139.82732580043375,None,s,1,0.6320609003305435,139.82732580043375,None,None,None,,,,,,,7,22,male,7,2022_May_05_1535,Partial repeat,2021.2.3,59.89645084092524,
5,6,0,1,3,2,1,2,1,1,0,0,1,0,0,0,13,13,13,,,,,,,,,,,,,,,,,,,,,,,,,,,,,,7,22,male,7,2022_May_05_1535,Partial repeat,2021.2.3,59.89645084092524,
4,1,0,1,2,2,2,2,1,0,1,1,0,0,0,0,14,14,14,0,0,0,0,,,,,,,140.47498750127852,None,141.51873210072517,None,142.31577260047197,None,s,1,0.5836855005472898,142.31577260047197,None,None,None,,,,,,,7,22,male,7,2022_May_05_1535,Partial repeat,2021.2.3,59.89645084092524,
4,1,0,1,2,2,2,2,1,0,1,1,0,0,0,0,14,14,14,1,0,1,0,,,,,,,,,142.91098270006478,None,143.91867800056934,None,l,1,0.6607406996190548,143.91867800056934,None,None,None,,,,,,,7,22,male,7,2022_May_05_1535,Partial repeat,2021.2.3,59.89645084092524,
4,1,0,1,2,2,2,2,1,0,1,1,0,0,0,0,14,14,14,,,,,,,,,,,,,,,,,,,,,,,,,,,,,,7,22,male,7,2022_May_05_1535,Partial repeat,2021.2.3,59.89645084092524,
8,8,0,1,2,3,1,2,0,0,0,0,1,0,0,0,15,15,15,0,0,0,0,,,,,,,144.60569950006902,None,145.72689730115235,None,146.7418388016522,None,l,1,0.60559699870646,146.7418388016522,None,None,None,,,,,,,7,22,male,7,2022_May_05_1535,Partial repeat,2021.2.3,59.89645084092524,
8,8,0,1,2,3,1,2,0,0,0,0,1,0,0,0,15,15,15,1,0,1,0,,,,,,,,,147.36182300001383,None,148.16051110066473,None,l,1,0.5228921007364988,148.16051110066473,None,None,None,,,,,,,7,22,male,7,2022_May_05_1535,Partial repeat,2021.2.3,59.89645084092524,
8,8,0,1,2,3,1,2,0,0,0,0,1,0,0,0,15,15,15,,,,,,,,,,,,,,,,,,,,,,,,,,,,,,7,22,male,7,2022_May_05_1535,Partial repeat,2021.2.3,59.89645084092524,
3,7,0,1,3,3,1,2,0,0,1,0,1,0,0,0,16,16,16,0,0,0,0,,,,,,,148.6979253012687,None,149.33391810022295,None,150.14748040027916,None,s,0,0.6080162990838289,150.14748040027916,None,150.7664535008371,None,,,,,,,7,22,male,7,2022_May_05_1535,Partial repeat,2021.2.3,59.89645084092524,
3,7,0,1,3,3,1,2,0,0,1,0,1,0,0,0,16,16,16,1,0,1,0,,,,,,,,,151.27099550142884,None,152.16797100007534,None,l,1,0.763485599309206,152.16797100007534,None,None,None,,,,,,,7,22,male,7,2022_May_05_1535,Partial repeat,2021.2.3,59.89645084092524,
3,7,0,1,3,3,1,2,0,0,1,0,1,0,0,0,16,16,16,,,,,,,,,,,,,,,,,,,,,,,,,,,,,,7,22,male,7,2022_May_05_1535,Partial repeat,2021.2.3,59.89645084092524,
4,7,0,1,3,2,2,1,1,1,0,0,1,0,0,0,17,17,17,0,0,0,0,,,,,,,152.96145039983094,None,159.16973640024662,None,160.11786620132625,None,s,1,0.7335478998720646,160.11786620132625,None,None,None,,,,,,,7,22,male,7,2022_May_05_1535,Partial repeat,2021.2.3,59.89645084092524,
4,7,0,1,3,2,2,1,1,1,0,0,1,0,0,0,17,17,17,1,0,1,0,,,,,,,,,160.86318000033498,None,161.60310390032828,None,s,1,0.7203599996864796,161.60310390032828,None,None,None,,,,,,,7,22,male,7,2022_May_05_1535,Partial repeat,2021.2.3,59.89645084092524,
4,7,0,1,3,2,2,1,1,1,0,0,1,0,0,0,17,17,17,,,,,,,,,,,,,,,,,,,,,,,,,,,,,,7,22,male,7,2022_May_05_1535,Partial repeat,2021.2.3,59.89645084092524,
8,5,0,1,2,3,1,2,1,0,0,0,0,0,0,0,18,18,18,0,0,0,0,,,,,,,162.3538010008633,None,163.81208960153162,None,164.75942100025713,None,s,1,0.6039863992482424,164.75942100025713,None,None,None,,,,,,,7,22,male,7,2022_May_05_1535,Partial repeat,2021.2.3,59.89645084092524,
8,5,0,1,2,3,1,2,1,0,0,0,0,0,0,0,18,18,18,1,0,1,0,,,,,,,,,165.38224760070443,None,166.16189100034535,None,s,0,0.697579899802804,166.16189100034535,None,166.86921090073884,None,,,,,,,7,22,male,7,2022_May_05_1535,Partial repeat,2021.2.3,59.89645084092524,
8,5,0,1,2,3,1,2,1,0,0,0,0,0,0,0,18,18,18,,,,,,,,,,,,,,,,,,,,,,,,,,,,,,7,22,male,7,2022_May_05_1535,Partial repeat,2021.2.3,59.89645084092524,
1,8,0,1,3,2,2,2,0,1,0,1,0,0,0,0,19,19,19,0,0,0,0,,,,,,,167.3690089005977,None,168.78845630027354,None,169.6022440008819,None,l,1,0.7051672004163265,169.6022440008819,None,None,None,,,,,,,7,22,male,7,2022_May_05_1535,Partial repeat,2021.2.3,59.89645084092524,
1,8,0,1,3,2,2,2,0,1,0,1,0,0,0,0,19,19,19,1,0,1,0,,,,,,,,,170.32626740075648,None,171.0716680008918,None,s,1,0.6677470989525318,171.0716680008918,None,None,None,,,,,,,7,22,male,7,2022_May_05_1535,Partial repeat,2021.2.3,59.89645084092524,
1,8,0,1,3,2,2,2,0,1,0,1,0,0,0,0,19,19,19,,,,,,,,,,,,,,,,,,,,,,,,,,,,,,7,22,male,7,2022_May_05_1535,Partial repeat,2021.2.3,59.89645084092524,
1,5,0,1,2,2,2,1,0,1,1,0,0,0,0,0,20,20,20,0,0,0,0,,,,,,,171.76730320043862,None,173.09683260135353,None,174.0107563007623,None,l,1,0.9206629991531372,174.0107563007623,None,None,None,,,,,,,7,22,male,7,2022_May_05_1535,Partial repeat,2021.2.3,59.89645084092524,
1,5,0,1,2,2,2,1,0,1,1,0,0,0,0,0,20,20,20,1,0,1,0,,,,,,,,,174.94774280115962,None,175.9477239008993,None,s,1,0.5277164001017809,175.9477239008993,None,None,None,,,,,,,7,22,male,7,2022_May_05_1535,Partial repeat,2021.2.3,59.89645084092524,
1,5,0,1,2,2,2,1,0,1,1,0,0,0,0,0,20,20,20,,,,,,,,,,,,,,,,,,,,,,,,,,,,,,7,22,male,7,2022_May_05_1535,Partial repeat,2021.2.3,59.89645084092524,
1,4,0,1,3,3,1,1,0,1,1,1,0,0,0,0,21,21,21,0,0,0,0,,,,,,,176.49101670086384,None,177.2381985001266,None,178.13527069985867,None,l,1,0.9881426990032196,178.13527069985867,None,None,None,,,,,,,7,22,male,7,2022_May_05_1535,Partial repeat,2021.2.3,59.89645084092524,
1,4,0,1,3,3,1,1,0,1,1,1,0,0,0,0,21,21,21,1,0,1,0,,,,,,,,,179.1400584001094,None,180.08926980011165,None,s,1,0.6661705989390612,180.08926980011165,None,None,None,,,,,,,7,22,male,7,2022_May_05_1535,Partial repeat,2021.2.3,59.89645084092524,
1,4,0,1,3,3,1,1,0,1,1,1,0,0,0,0,21,21,21,,,,,,,,,,,,,,,,,,,,,,,,,,,,,,7,22,male,7,2022_May_05_1535,Partial repeat,2021.2.3,59.89645084092524,
7,4,0,1,2,2,1,1,0,1,1,1,0,0,0,0,22,22,22,0,0,0,0,,,,,,,180.7785350009799,None,181.39599550142884,None,182.14319880120456,None,l,1,0.940209299325943,182.14319880120456,None,None,None,,,,,,,7,22,male,7,2022_May_05_1535,Partial repeat,2021.2.3,59.89645084092524,
7,4,0,1,2,2,1,1,0,1,1,1,0,0,0,0,22,22,22,1,0,1,0,,,,,,,,,183.09679280035198,None,183.913239300251,None,s,1,0.5781666990369558,183.913239300251,None,None,None,,,,,,,7,22,male,7,2022_May_05_1535,Partial repeat,2021.2.3,59.89645084092524,
7,4,0,1,2,2,1,1,0,1,1,1,0,0,0,0,22,22,22,,,,,,,,,,,,,,,,,,,,,,,,,,,,,,7,22,male,7,2022_May_05_1535,Partial repeat,2021.2.3,59.89645084092524,
2,8,0,1,3,3,2,1,1,1,1,0,1,0,0,0,23,23,23,0,0,0,0,,,,,,,184.5143333002925,None,185.7380810007453,None,186.7021204009652,None,s,1,0.6213690992444754,186.7021204009652,None,None,None,,,,,,,7,22,male,7,2022_May_05_1535,Partial repeat,2021.2.3,59.89645084092524,
2,8,0,1,3,3,2,1,1,1,1,0,1,0,0,0,23,23,23,1,0,1,0,,,,,,,,,187.3418995011598,None,188.12156319990754,None,s,1,0.6738244984298944,188.12156319990754,None,None,None,,,,,,,7,22,male,7,2022_May_05_1535,Partial repeat,2021.2.3,59.89645084092524,
2,8,0,1,3,3,2,1,1,1,1,0,1,0,0,0,23,23,23,,,,,,,,,,,,,,,,,,,,,,,,,,,,,,7,22,male,7,2022_May_05_1535,Partial repeat,2021.2.3,59.89645084092524,
8,2,0,1,2,3,2,2,0,1,0,1,0,0,0,0,24,24,24,0,0,0,0,,,,,,,188.81036850064993,None,189.72917760163546,None,190.70979650132358,None,l,1,0.6296992003917694,190.70979650132358,None,None,None,,,,,,,7,22,male,7,2022_May_05_1535,Partial repeat,2021.2.3,59.89645084092524,
8,2,0,1,2,3,2,2,0,1,0,1,0,0,0,0,24,24,24,1,0,1,0,,,,,,,,,191.34772450104356,None,192.22930720075965,None,s,1,0.6300997994840145,192.22930720075965,None,None,None,,,,,,,7,22,male,7,2022_May_05_1535,Partial repeat,2021.2.3,59.89645084092524,
8,2,0,1,2,3,2,2,0,1,0,1,0,0,0,0,24,24,24,,,,,,,,,,,,,,,,,,,,,,,,,,,,,,7,22,male,7,2022_May_05_1535,Partial repeat,2021.2.3,59.89645084092524,
7,7,0,1,2,2,2,1,1,1,1,0,1,0,0,0,25,25,25,0,0,0,0,,,,,,,192.87654229998589,None,194.33812720142305,None,195.3024732004851,None,s,1,0.7569290995597839,195.3024732004851,None,None,None,,,,,,,7,22,male,7,2022_May_05_1535,Partial repeat,2021.2.3,59.89645084092524,
7,7,0,1,2,2,2,1,1,1,1,0,1,0,0,0,25,25,25,1,0,1,0,,,,,,,,,196.07301679998636,None,196.93884150125086,None,s,1,0.5445652008056641,196.93884150125086,None,None,None,,,,,,,7,22,male,7,2022_May_05_1535,Partial repeat,2021.2.3,59.89645084092524,
7,7,0,1,2,2,2,1,1,1,1,0,1,0,0,0,25,25,25,,,,,,,,,,,,,,,,,,,,,,,,,,,,,,7,22,male,7,2022_May_05_1535,Partial repeat,2021.2.3,59.89645084092524,
4,4,0,1,3,3,2,2,0,0,1,1,1,0,0,0,26,26,26,0,0,0,0,,,,,,,197.50286110118032,None,198.31256820075214,None,199.1273546013981,None,l,1,0.7640750017017126,199.1273546013981,None,None,None,,,,,,,7,22,male,7,2022_May_05_1535,Partial repeat,2021.2.3,59.89645084092524,
4,4,0,1,3,3,2,2,0,0,1,1,1,0,0,0,26,26,26,1,0,1,0,,,,,,,,,199.92019410058856,None,200.66272830031812,None,l,1,0.37268130108714104,200.66272830031812,None,None,None,,,,,,,7,22,male,7,2022_May_05_1535,Partial repeat,2021.2.3,59.89645084092524,
4,4,0,1,3,3,2,2,0,0,1,1,1,0,0,0,26,26,26,,,,,,,,,,,,,,,,,,,,,,,,,,,,,,7,22,male,7,2022_May_05_1535,Partial repeat,2021.2.3,59.89645084092524,
7,1,0,1,3,2,2,1,1,0,0,0,0,0,0,0,27,27,27,0,0,0,0,,,,,,,201.05354320071638,None,201.98635750077665,None,202.93377370014787,None,s,1,0.613620100542903,202.93377370014787,None,None,None,,,,,,,7,22,male,7,2022_May_05_1535,Partial repeat,2021.2.3,59.89645084092524,
7,1,0,1,3,2,2,1,1,0,0,0,0,0,0,0,27,27,27,1,0,1,0,,,,,,,,,203.55574270151556,None,204.57022500038147,None,s,0,0.6251484006643295,204.57022500038147,None,205.21780620142817,None,,,,,,,7,22,male,7,2022_May_05_1535,Partial repeat,2021.2.3,59.89645084092524,
7,1,0,1,3,2,2,1,1,0,0,0,0,0,0,0,27,27,27,,,,,,,,,,,,,,,,,,,,,,,,,,,,,,7,22,male,7,2022_May_05_1535,Partial repeat,2021.2.3,59.89645084092524,
2,4,0,1,2,3,2,2,0,0,0,1,1,0,0,0,28,28,28,0,0,0,0,,,,,,,205.7270220015198,None,206.79568680003285,None,207.59285810030997,None,s,0,0.5545438006520271,207.59285810030997,None,208.1699280012399,None,,,,,,,7,22,male,7,2022_May_05_1535,Partial repeat,2021.2.3,59.89645084092524,
2,4,0,1,2,3,2,2,0,0,0,1,1,0,0,0,28,28,28,1,0,1,0,,,,,,,,,208.68277770094573,None,209.6798583008349,None,l,1,0.5716131012886763,209.6798583008349,None,None,None,,,,,,,7,22,male,7,2022_May_05_1535,Partial repeat,2021.2.3,59.89645084092524,
2,4,0,1,2,3,2,2,0,0,0,1,1,0,0,0,28,28,28,,,,,,,,,,,,,,,,,,,,,,,,,,,,,,7,22,male,7,2022_May_05_1535,Partial repeat,2021.2.3,59.89645084092524,
5,8,0,1,2,2,2,1,1,0,1,0,0,0,0,0,29,29,29,0,0,0,0,,,,,,,210.28250880166888,None,211.22094620019197,None,211.9519239012152,None,s,1,0.6515887007117271,211.9519239012152,None,None,None,,,,,,,7,22,male,7,2022_May_05_1535,Partial repeat,2021.2.3,59.89645084092524,
5,8,0,1,2,2,2,1,1,0,1,0,0,0,0,0,29,29,29,1,0,1,0,,,,,,,,,212.63070259988308,None,213.57087330147624,None,l,1,0.6405108999460936,213.57087330147624,None,None,None,,,,,,,7,22,male,7,2022_May_05_1535,Partial repeat,2021.2.3,59.89645084092524,
5,8,0,1,2,2,2,1,1,0,1,0,0,0,0,0,29,29,29,,,,,,,,,,,,,,,,,,,,,,,,,,,,,,7,22,male,7,2022_May_05_1535,Partial repeat,2021.2.3,59.89645084092524,
1,3,0,1,3,2,2,2,0,0,0,1,1,0,0,0,30,30,30,0,0,0,0,,,,,,,214.23961350135505,None,216.44783990085125,None,217.21160790137947,None,l,1,0.6637924984097481,217.21160790137947,None,None,None,,,,,,,7,22,male,7,2022_May_05_1535,Partial repeat,2021.2.3,59.89645084092524,
1,3,0,1,3,2,2,2,0,0,0,1,1,0,0,0,30,30,30,1,0,1,0,,,,,,,,,217.89456280134618,None,218.69758980162442,None,s,0,0.5378136988729239,218.69758980162442,None,219.25097220018506,None,,,,,,,7,22,male,7,2022_May_05_1535,Partial repeat,2021.2.3,59.89645084092524,
1,3,0,1,3,2,2,2,0,0,0,1,1,0,0,0,30,30,30,,,,,,,,,,,,,,,,,,,,,,,,,,,,,,7,22,male,7,2022_May_05_1535,Partial repeat,2021.2.3,59.89645084092524,
3,1,0,1,2,3,1,1,1,1,0,1,1,0,0,0,31,31,31,0,0,0,0,,,,,,,219.75425390154123,None,220.30536410026252,None,221.2360313013196,None,s,1,0.6794129014015198,221.2360313013196,None,None,None,,,,,,,7,22,male,7,2022_May_05_1535,Partial repeat,2021.2.3,59.89645084092524,
3,1,0,1,2,3,1,1,1,1,0,1,1,0,0,0,31,31,31,1,0,1,0,,,,,,,,,221.92347600124776,None,222.75539030134678,None,s,1,0.7120005004107952,222.75539030134678,None,None,None,,,,,,,7,22,male,7,2022_May_05_1535,Partial repeat,2021.2.3,59.89645084092524,
3,1,0,1,2,3,1,1,1,1,0,1,1,0,0,0,31,31,31,,,,,,,,,,,,,,,,,,,,,,,,,,,,,,7,22,male,7,2022_May_05_1535,Partial repeat,2021.2.3,59.89645084092524,
3,6,0,1,3,3,1,1,1,0,1,1,0,0,0,0,32,32,32,0,0,0,0,,,,,,,223.48563390038908,None,224.96440190076828,None,225.71112760156393,None,s,1,0.6602723002433777,225.71112760156393,None,None,None,,,,,,,7,22,male,7,2022_May_05_1535,Partial repeat,2021.2.3,59.89645084092524,
3,6,0,1,3,3,1,1,1,0,1,1,0,0,0,0,32,32,32,1,0,1,0,,,,,,,,,226.393950201571,None,227.2152732014656,None,l,1,0.6281196996569633,227.2152732014656,None,None,None,,,,,,,7,22,male,7,2022_May_05_1535,Partial repeat,2021.2.3,59.89645084092524,
3,6,0,1,3,3,1,1,1,0,1,1,0,0,0,0,32,32,32,,,,,,,,,,,,,,,,,,,,,,,,,,,,,,7,22,male,7,2022_May_05_1535,Partial repeat,2021.2.3,59.89645084092524,
5,7,0,1,2,2,2,2,1,1,1,1,1,0,0,0,33,33,33,0,0,0,0,,,,,,,227.8601021002978,None,228.60483670048416,None,229.46969030052423,None,s,1,0.5897125992923975,229.46969030052423,None,None,None,,,,,,,7,22,male,7,2022_May_05_1535,Partial repeat,2021.2.3,59.89645084092524,
5,7,0,1,2,2,2,2,1,1,1,1,1,0,0,0,33,33,33,1,0,1,0,,,,,,,,,230.0726374015212,None,231.089345600456,None,s,1,0.8180556986480951,231.089345600456,None,None,None,,,,,,,7,22,male,7,2022_May_05_1535,Partial repeat,2021.2.3,59.89645084092524,
5,7,0,1,2,2,2,2,1,1,1,1,1,0,0,0,33,33,33,,,,,,,,,,,,,,,,,,,,,,,,,,,,,,7,22,male,7,2022_May_05_1535,Partial repeat,2021.2.3,59.89645084092524,
2,7,0,1,2,3,1,1,0,0,0,1,1,0,0,0,34,34,34,0,0,0,0,,,,,,,231.93526440113783,None,232.57916350103915,None,233.45964760147035,None,l,1,0.7117557004094124,233.45964760147035,None,None,None,,,,,,,7,22,male,7,2022_May_05_1535,Partial repeat,2021.2.3,59.89645084092524,
2,7,0,1,2,3,1,1,0,0,0,1,1,0,0,0,34,34,34,1,0,1,0,,,,,,,,,234.19337790086865,None,235.19671769998968,None,l,1,0.534722900018096,235.19671769998968,None,None,None,,,,,,,7,22,male,7,2022_May_05_1535,Partial repeat,2021.2.3,59.89645084092524,
2,7,0,1,2,3,1,1,0,0,0,1,1,0,0,0,34,34,34,,,,,,,,,,,,,,,,,,,,,,,,,,,,,,7,22,male,7,2022_May_05_1535,Partial repeat,2021.2.3,59.89645084092524,
7,6,0,1,3,3,2,2,1,1,1,1,1,0,0,0,35,35,35,0,0,0,0,,,,,,,235.75692920014262,None,238.1066270004958,None,239.05375520139933,None,s,1,0.6776801999658346,239.05375520139933,None,None,None,,,,,,,7,22,male,7,2022_May_05_1535,Partial repeat,2021.2.3,59.89645084092524,
7,6,0,1,3,3,2,2,1,1,1,1,1,0,0,0,35,35,35,1,0,1,0,,,,,,,,,239.75925460085273,None,240.54106410034,None,s,1,0.5423764996230602,240.54106410034,None,None,None,,,,,,,7,22,male,7,2022_May_05_1535,Partial repeat,2021.2.3,59.89645084092524,
7,6,0,1,3,3,2,2,1,1,1,1,1,0,0,0,35,35,35,,,,,,,,,,,,,,,,,,,,,,,,,,,,,,7,22,male,7,2022_May_05_1535,Partial repeat,2021.2.3,59.89645084092524,
3,4,0,1,2,2,1,2,0,1,1,0,0,0,0,0,36,36,36,0,0,0,0,,,,,,,241.10394209995866,None,241.8639330007136,None,242.66162900067866,None,s,0,0.5977841001003981,242.66162900067866,None,243.2709744013846,None,,,,,,,7,22,male,7,2022_May_05_1535,Partial repeat,2021.2.3,59.89645084092524,
3,4,0,1,2,2,1,2,0,1,1,0,0,0,0,0,36,36,36,1,0,1,0,,,,,,,,,243.78432790003717,None,244.63236430101097,None,s,1,0.5870443992316723,244.63236430101097,None,None,None,,,,,,,7,22,male,7,2022_May_05_1535,Partial repeat,2021.2.3,59.89645084092524,
3,4,0,1,2,2,1,2,0,1,1,0,0,0,0,0,36,36,36,,,,,,,,,,,,,,,,,,,,,,,,,,,,,,7,22,male,7,2022_May_05_1535,Partial repeat,2021.2.3,59.89645084092524,
7,2,0,1,2,2,1,1,0,0,1,1,1,0,0,0,37,37,37,0,0,0,0,,,,,,,245.2418460007757,None,246.20573730021715,None,247.16977030038834,None,l,1,0.521594600751996,247.16977030038834,None,None,None,,,,,,,7,22,male,7,2022_May_05_1535,Partial repeat,2021.2.3,59.89645084092524,
7,2,0,1,2,2,1,1,0,0,1,1,1,0,0,0,37,37,37,1,0,1,0,,,,,,,,,247.70587900094688,None,248.539700999856,None,l,1,0.6077344007790089,248.539700999856,None,None,None,,,,,,,7,22,male,7,2022_May_05_1535,Partial repeat,2021.2.3,59.89645084092524,
7,2,0,1,2,2,1,1,0,0,1,1,1,0,0,0,37,37,37,,,,,,,,,,,,,,,,,,,,,,,,,,,,,,7,22,male,7,2022_May_05_1535,Partial repeat,2021.2.3,59.89645084092524,
3,8,0,1,3,2,1,1,0,0,0,1,1,0,0,0,38,38,38,0,0,0,0,,,,,,,249.16752500087023,None,249.86278210021555,None,250.71014109998941,None,l,1,0.605255700647831,250.71014109998941,None,None,None,,,,,,,7,22,male,7,2022_May_05_1535,Partial repeat,2021.2.3,59.89645084092524,
3,8,0,1,3,2,1,1,0,0,0,1,1,0,0,0,38,38,38,1,0,1,0,,,,,,,,,251.32849830016494,None,252.22979560121894,None,l,1,0.6135946996510029,252.22979560121894,None,None,None,,,,,,,7,22,male,7,2022_May_05_1535,Partial repeat,2021.2.3,59.89645084092524,
3,8,0,1,3,2,1,1,0,0,0,1,1,0,0,0,38,38,38,,,,,,,,,,,,,,,,,,,,,,,,,,,,,,7,22,male,7,2022_May_05_1535,Partial repeat,2021.2.3,59.89645084092524,
6,7,0,1,3,2,1,2,0,0,0,0,1,0,0,0,39,39,39,0,0,0,0,,,,,,,252.8603281006217,None,253.72034469991922,None,254.6009812001139,None,l,1,0.4984073992818594,254.6009812001139,None,None,None,,,,,,,7,22,male,7,2022_May_05_1535,Partial repeat,2021.2.3,59.89645084092524,
6,7,0,1,3,2,1,2,0,0,0,0,1,0,0,0,39,39,39,1,0,1,0,,,,,,,,,255.11798610165715,None,255.97031440027058,None,l,1,0.521068999543786,255.97031440027058,None,None,None,,,,,,,7,22,male,7,2022_May_05_1535,Partial repeat,2021.2.3,59.89645084092524,
6,7,0,1,3,2,1,2,0,0,0,0,1,0,0,0,39,39,39,,,,,,,,,,,,,,,,,,,,,,,,,,,,,,7,22,male,7,2022_May_05_1535,Partial repeat,2021.2.3,59.89645084092524,
6,1,0,1,3,2,2,2,1,0,0,1,0,0,0,0,40,40,40,0,0,0,0,,,,,,,256.51276050135493,None,257.3941096998751,None,258.39215420000255,None,s,1,0.6432458013296127,258.39215420000255,None,None,None,,,,,,,7,22,male,7,2022_May_05_1535,Partial repeat,2021.2.3,59.89645084092524,
6,1,0,1,3,2,2,2,1,0,0,1,0,0,0,0,40,40,40,1,0,1,0,,,,,,,,,259.05640340037644,None,259.9279645010829,None,l,1,0.5794303994625807,259.9279645010829,None,None,None,,,,,,,7,22,male,7,2022_May_05_1535,Partial repeat,2021.2.3,59.89645084092524,
6,1,0,1,3,2,2,2,1,0,0,1,0,0,0,0,40,40,40,,,,,,,,,,,,,,,,,,,,,,,,,,,,,,7,22,male,7,2022_May_05_1535,Partial repeat,2021.2.3,59.89645084092524,
4,5,0,1,2,3,2,1,0,0,0,0,1,0,0,0,41,41,41,0,0,0,0,,,,,,,260.5362560003996,None,261.4520751014352,None,262.36606690101326,None,l,1,0.5733157005161047,262.36606690101326,None,None,None,,,,,,,7,22,male,7,2022_May_05_1535,Partial repeat,2021.2.3,59.89645084092524,
4,5,0,1,2,3,2,1,0,0,0,0,1,0,0,0,41,41,41,1,0,1,0,,,,,,,,,262.9638303015381,None,263.86879970133305,None,l,1,0.5186005998402834,263.86879970133305,None,None,None,,,,,,,7,22,male,7,2022_May_05_1535,Partial repeat,2021.2.3,59.89645084092524,
4,5,0,1,2,3,2,1,0,0,0,0,1,0,0,0,41,41,41,,,,,,,,,,,,,,,,,,,,,,,,,,,,,,7,22,male,7,2022_May_05_1535,Partial repeat,2021.2.3,59.89645084092524,
4,6,0,1,3,3,2,1,0,1,1,0,0,0,0,0,42,42,42,0,0,0,0,,,,,,,264.41175630129874,None,265.09243290126324,None,265.9561119005084,None,l,1,0.5032506007701159,265.9561119005084,None,None,None,,,,,,,7,22,male,7,2022_May_05_1535,Partial repeat,2021.2.3,59.89645084092524,
4,6,0,1,3,3,2,1,0,1,1,0,0,0,0,0,42,42,42,1,0,1,0,,,,,,,,,266.47080020047724,None,267.44237009994686,None,s,1,0.6571499016135931,267.44237009994686,None,None,None,,,,,,,7,22,male,7,2022_May_05_1535,Partial repeat,2021.2.3,59.89645084092524,
4,6,0,1,3,3,2,1,0,1,1,0,0,0,0,0,42,42,42,,,,,,,,,,,,,,,,,,,,,,,,,,,,,,7,22,male,7,2022_May_05_1535,Partial repeat,2021.2.3,59.89645084092524,
4,8,0,1,3,2,2,2,1,1,0,1,1,0,0,0,43,43,43,0,0,0,0,,,,,,,268.12968990020454,None,269.05015050061047,None,269.8147091008723,None,s,1,0.6127211004495621,269.8147091008723,None,None,None,,,,,,,7,22,male,7,2022_May_05_1535,Partial repeat,2021.2.3,59.89645084092524,
4,8,0,1,3,2,2,2,1,1,0,1,1,0,0,0,43,43,43,1,0,1,0,,,,,,,,,270.4534592013806,None,271.40009320154786,None,s,1,0.7393070999532938,271.40009320154786,None,None,None,,,,,,,7,22,male,7,2022_May_05_1535,Partial repeat,2021.2.3,59.89645084092524,
4,8,0,1,3,2,2,2,1,1,0,1,1,0,0,0,43,43,43,,,,,,,,,,,,,,,,,,,,,,,,,,,,,,7,22,male,7,2022_May_05_1535,Partial repeat,2021.2.3,59.89645084092524,
1,2,0,1,3,3,2,2,1,0,1,1,0,0,0,0,44,44,44,0,0,0,0,,,,,,,272.1545350011438,None,273.4086594004184,None,274.1554127000272,None,s,1,0.6159855015575886,274.1554127000272,None,None,None,,,,,,,7,22,male,7,2022_May_05_1535,Partial repeat,2021.2.3,59.89645084092524,
1,2,0,1,3,3,2,2,1,0,1,1,0,0,0,0,44,44,44,1,0,1,0,,,,,,,,,274.79798169992864,None,275.67947780154645,None,l,1,0.6279196999967098,275.67947780154645,None,None,None,,,,,,,7,22,male,7,2022_May_05_1535,Partial repeat,2021.2.3,59.89645084092524,
1,2,0,1,3,3,2,2,1,0,1,1,0,0,0,0,44,44,44,,,,,,,,,,,,,,,,,,,,,,,,,,,,,,7,22,male,7,2022_May_05_1535,Partial repeat,2021.2.3,59.89645084092524,
2,1,0,1,2,2,1,2,1,1,1,0,1,0,0,0,45,45,45,0,0,0,0,,,,,,,276.32843560166657,None,277.6335617005825,None,278.48081330023706,None,s,1,0.6746251992881298,278.48081330023706,None,None,None,,,,,,,7,22,male,7,2022_May_05_1535,Partial repeat,2021.2.3,59.89645084092524,
2,1,0,1,2,2,1,2,1,1,1,0,1,0,0,0,45,45,45,1,0,1,0,,,,,,,,,279.16344130039215,None,280.1170115005225,None,s,1,0.5903652999550104,280.1170115005225,None,None,None,,,,,,,7,22,male,7,2022_May_05_1535,Partial repeat,2021.2.3,59.89645084092524,
2,1,0,1,2,2,1,2,1,1,1,0,1,0,0,0,45,45,45,,,,,,,,,,,,,,,,,,,,,,,,,,,,,,7,22,male,7,2022_May_05_1535,Partial repeat,2021.2.3,59.89645084092524,
3,5,0,1,2,3,2,1,1,1,0,0,1,0,0,0,46,46,46,0,0,0,0,,,,,,,280.7218563016504,None,281.4743384998292,None,282.35603720135987,None,s,1,0.535360200330615,282.35603720135987,None,None,None,,,,,,,7,22,male,7,2022_May_05_1535,Partial repeat,2021.2.3,59.89645084092524,
3,5,0,1,2,3,2,1,1,1,0,0,1,0,0,0,46,46,46,1,0,1,0,,,,,,,,,282.91505140066147,None,283.857673401013,None,s,1,0.5697511006146669,283.857673401013,None,None,None,,,,,,,7,22,male,7,2022_May_05_1535,Partial repeat,2021.2.3,59.89645084092524,
3,5,0,1,2,3,2,1,1,1,0,0,1,0,0,0,46,46,46,,,,,,,,,,,,,,,,,,,,,,,,,,,,,,7,22,male,7,2022_May_05_1535,Partial repeat,2021.2.3,59.89645084092524,
5,2,0,1,2,2,2,2,0,0,1,1,1,0,0,0,47,47,47,0,0,0,0,,,,,,,284.437965400517,None,284.9811388012022,None,285.9951434005052,None,l,1,0.4802513998001814,285.9951434005052,None,None,None,,,,,,,7,22,male,7,2022_May_05_1535,Partial repeat,2021.2.3,59.89645084092524,
5,2,0,1,2,2,2,2,0,0,1,1,1,0,0,0,47,47,47,1,0,1,0,,,,,,,,,286.48884719982743,None,287.24769140034914,None,l,1,0.49169620126485825,287.24769140034914,None,None,None,,,,,,,7,22,male,7,2022_May_05_1535,Partial repeat,2021.2.3,59.89645084092524,
5,2,0,1,2,2,2,2,0,0,1,1,1,0,0,0,47,47,47,,,,,,,,,,,,,,,,,,,,,,,,,,,,,,7,22,male,7,2022_May_05_1535,Partial repeat,2021.2.3,59.89645084092524,
4,2,0,1,2,3,1,1,0,1,0,1,0,0,0,0,48,48,48,0,0,0,0,,,,,,,287.76798029989004,None,288.55481470003724,None,289.30164880119264,None,l,1,0.6217365004122257,289.30164880119264,None,None,None,,,,,,,7,22,male,7,2022_May_05_1535,Partial repeat,2021.2.3,59.89645084092524,
4,2,0,1,2,3,1,1,0,1,0,1,0,0,0,0,48,48,48,1,0,1,0,,,,,,,,,289.9475084003061,None,290.7045276015997,None,s,1,0.6108983997255564,290.7045276015997,None,None,None,,,,,,,7,22,male,7,2022_May_05_1535,Partial repeat,2021.2.3,59.89645084092524,
4,2,0,1,2,3,1,1,0,1,0,1,0,0,0,0,48,48,48,,,,,,,,,,,,,,,,,,,,,,,,,,,,,,7,22,male,7,2022_May_05_1535,Partial repeat,2021.2.3,59.89645084092524,
8,1,0,1,3,3,2,1,1,0,1,0,0,0,0,0,49,49,49,0,0,0,0,,,,,,,291.326283801347,None,292.0616641007364,None,293.025586200878,None,s,1,0.6738109011203051,293.025586200878,None,None,None,,,,,,,7,22,male,7,2022_May_05_1535,Partial repeat,2021.2.3,59.89645084092524,
8,1,0,1,3,3,2,1,1,0,1,0,0,0,0,0,49,49,49,1,0,1,0,,,,,,,,,293.71297390013933,None,294.47832440026104,None,l,1,0.533110000193119,294.47832440026104,None,None,None,,,,,,,7,22,male,7,2022_May_05_1535,Partial repeat,2021.2.3,59.89645084092524,
8,1,0,1,3,3,2,1,1,0,1,0,0,0,0,0,49,49,49,,,,,,,,,,,,,,,,,,,,,,,,,,,,,,7,22,male,7,2022_May_05_1535,Partial repeat,2021.2.3,59.89645084092524,
4,3,0,1,3,2,1,1,1,1,0,1,1,0,0,0,50,50,50,0,0,0,0,,,,,,,295.021785100922,None,296.1195379011333,None,296.9834405016154,None,s,1,0.7079169005155563,296.9834405016154,None,None,None,,,,,,,7,22,male,7,2022_May_05_1535,Partial repeat,2021.2.3,59.89645084092524,
4,3,0,1,3,2,1,1,1,1,0,1,1,0,0,0,50,50,50,1,0,1,0,,,,,,,,,297.70868040062487,None,298.5029985010624,None,s,1,0.5244896002113819,298.5029985010624,None,None,None,,,,,,,7,22,male,7,2022_May_05_1535,Partial repeat,2021.2.3,59.89645084092524,
4,3,0,1,3,2,1,1,1,1,0,1,1,0,0,0,50,50,50,,,,,,,,,,,,,,,,,,,,,,,,,,,,,,7,22,male,7,2022_May_05_1535,Partial repeat,2021.2.3,59.89645084092524,
5,1,0,1,3,3,1,1,1,1,1,1,1,0,0,0,51,51,51,0,0,0,0,,,,,,,299.04086280055344,None,299.8768180999905,None,300.7571876998991,None,s,1,0.6782545000314713,300.7571876998991,None,None,None,,,,,,,7,22,male,7,2022_May_05_1535,Partial repeat,2021.2.3,59.89645084092524,
5,1,0,1,3,3,1,1,1,1,1,1,1,0,0,0,51,51,51,1,0,1,0,,,,,,,,,301.4438803009689,None,302.3937394004315,None,s,1,0.513654500246048,302.3937394004315,None,None,None,,,,,,,7,22,male,7,2022_May_05_1535,Partial repeat,2021.2.3,59.89645084092524,
5,1,0,1,3,3,1,1,1,1,1,1,1,0,0,0,51,51,51,,,,,,,,,,,,,,,,,,,,,,,,,,,,,,7,22,male,7,2022_May_05_1535,Partial repeat,2021.2.3,59.89645084092524,
2,3,0,1,2,3,2,2,1,0,0,1,0,0,0,0,52,52,52,0,0,0,0,,,,,,,302.9350684005767,None,303.95140260085464,None,304.9321934003383,None,s,1,0.639191098511219,304.9321934003383,None,None,None,,,,,,,7,22,male,7,2022_May_05_1535,Partial repeat,2021.2.3,59.89645084092524,
2,3,0,1,2,3,2,2,1,0,0,1,0,0,0,0,52,52,52,1,0,1,0,,,,,,,,,305.5960537008941,None,306.4850481003523,None,l,1,0.5904297009110451,306.4850481003523,None,None,None,,,,,,,7,22,male,7,2022_May_05_1535,Partial repeat,2021.2.3,59.89645084092524,
2,3,0,1,2,3,2,2,1,0,0,1,0,0,0,0,52,52,52,,,,,,,,,,,,,,,,,,,,,,,,,,,,,,7,22,male,7,2022_May_05_1535,Partial repeat,2021.2.3,59.89645084092524,
6,3,0,1,2,3,2,1,1,0,0,0,0,0,0,0,53,53,53,0,0,0,0,,,,,,,307.0885407011956,None,307.84233550168574,None,308.8585732001811,None,s,1,0.8168231006711721,308.8585732001811,None,None,None,,,,,,,7,22,male,7,2022_May_05_1535,Partial repeat,2021.2.3,59.89645084092524,
6,3,0,1,2,3,2,1,1,0,0,0,0,0,0,0,53,53,53,1,0,1,0,,,,,,,,,309.68930250033736,None,310.5933141000569,None,l,1,0.6821141000837088,310.5933141000569,None,None,None,,,,,,,7,22,male,7,2022_May_05_1535,Partial repeat,2021.2.3,59.89645084092524,
6,3,0,1,2,3,2,1,1,0,0,0,0,0,0,0,53,53,53,,,,,,,,,,,,,,,,,,,,,,,,,,,,,,7,22,male,7,2022_May_05_1535,Partial repeat,2021.2.3,59.89645084092524,
2,6,0,1,3,3,1,2,0,1,1,0,0,0,0,0,54,54,54,0,0,0,0,,,,,,,311.2865818012506,None,312.28431380167603,None,313.0646227002144,None,l,1,0.6987707000225782,313.0646227002144,None,None,None,,,,,,,7,22,male,7,2022_May_05_1535,Partial repeat,2021.2.3,59.89645084092524,
2,6,0,1,3,3,1,2,0,1,1,0,0,0,0,0,54,54,54,1,0,1,0,,,,,,,,,313.7856550011784,None,314.78454519994557,None,s,1,0.6107966993004084,314.78454519994557,None,None,None,,,,,,,7,22,male,7,2022_May_05_1535,Partial repeat,2021.2.3,59.89645084092524,
2,6,0,1,3,3,1,2,0,1,1,0,0,0,0,0,54,54,54,,,,,,,,,,,,,,,,,,,,,,,,,,,,,,7,22,male,7,2022_May_05_1535,Partial repeat,2021.2.3,59.89645084092524,
8,4,0,1,3,2,1,2,0,1,0,0,0,0,0,0,55,55,55,0,0,0,0,,,,,,,315.4106997009367,None,316.4089970011264,None,317.3729126006365,None,l,1,1.0145223997533321,317.3729126006365,None,None,None,,,,,,,7,22,male,7,2022_May_05_1535,Partial repeat,2021.2.3,59.89645084092524,
8,4,0,1,3,2,1,2,0,1,0,0,0,0,0,0,55,55,55,1,0,1,0,,,,,,,,,318.39544410072267,None,319.14309220016,None,s,1,0.780290499329567,319.14309220016,None,None,None,,,,,,,7,22,male,7,2022_May_05_1535,Partial repeat,2021.2.3,59.89645084092524,
8,4,0,1,3,2,1,2,0,1,0,0,0,0,0,0,55,55,55,,,,,,,,,,,,,,,,,,,,,,,,,,,,,,7,22,male,7,2022_May_05_1535,Partial repeat,2021.2.3,59.89645084092524,
8,7,0,1,3,2,2,1,0,1,0,0,0,0,0,0,56,56,56,0,0,0,0,,,,,,,319.93737060017884,None,320.7507835011929,None,321.53093420155346,None,l,1,0.5924527999013662,321.53093420155346,None,None,None,,,,,,,7,22,male,7,2022_May_05_1535,Partial repeat,2021.2.3,59.89645084092524,
8,7,0,1,3,2,2,1,0,1,0,0,0,0,0,0,56,56,56,1,0,1,0,,,,,,,,,322.1497410014272,None,323.0844557005912,None,s,1,0.662890600040555,323.0844557005912,None,None,None,,,,,,,7,22,male,7,2022_May_05_1535,Partial repeat,2021.2.3,59.89645084092524,
8,7,0,1,3,2,2,1,0,1,0,0,0,0,0,0,56,56,56,,,,,,,,,,,,,,,,,,,,,,,,,,,,,,7,22,male,7,2022_May_05_1535,Partial repeat,2021.2.3,59.89645084092524,
2,2,0,1,2,2,1,1,1,1,1,1,1,0,0,0,57,57,57,0,0,0,0,,,,,,,323.77096600085497,None,324.57477810047567,None,325.53872469998896,None,s,1,0.5766723994165659,325.53872469998896,None,None,None,,,,,,,7,22,male,7,2022_May_05_1535,Partial repeat,2021.2.3,59.89645084092524,
2,2,0,1,2,2,1,1,1,1,1,1,1,0,0,0,57,57,57,1,0,1,0,,,,,,,,,326.13902270048857,None,326.92471290007234,None,s,1,0.5746721010655165,326.92471290007234,None,None,None,,,,,,,7,22,male,7,2022_May_05_1535,Partial repeat,2021.2.3,59.89645084092524,
2,2,0,1,2,2,1,1,1,1,1,1,1,0,0,0,57,57,57,,,,,,,,,,,,,,,,,,,,,,,,,,,,,,7,22,male,7,2022_May_05_1535,Partial repeat,2021.2.3,59.89645084092524,
1,1,0,1,2,3,2,2,1,1,0,1,1,0,0,0,58,58,58,0,0,0,0,,,,,,,327.5268593002111,None,328.14845190010965,None,328.8953106999397,None,s,1,0.5721227992326021,328.8953106999397,None,None,None,,,,,,,7,22,male,7,2022_May_05_1535,Partial repeat,2021.2.3,59.89645084092524,
1,1,0,1,2,3,2,2,1,1,0,1,1,0,0,0,58,58,58,1,0,1,0,,,,,,,,,329.4764282014221,None,330.21575020067394,None,s,1,0.49968549981713295,330.21575020067394,None,None,None,,,,,,,7,22,male,7,2022_May_05_1535,Partial repeat,2021.2.3,59.89645084092524,
1,1,0,1,2,3,2,2,1,1,0,1,1,0,0,0,58,58,58,,,,,,,,,,,,,,,,,,,,,,,,,,,,,,7,22,male,7,2022_May_05_1535,Partial repeat,2021.2.3,59.89645084092524,
5,4,0,1,3,3,1,2,1,0,1,0,0,0,0,0,59,59,59,0,0,0,0,,,,,,,330.7327967006713,None,331.33803460001945,None,332.2518310006708,None,s,1,0.5675533004105091,332.2518310006708,None,None,None,,,,,,,7,22,male,7,2022_May_05_1535,Partial repeat,2021.2.3,59.89645084092524,
5,4,0,1,3,3,1,2,1,0,1,0,0,0,0,0,59,59,59,1,0,1,0,,,,,,,,,332.83679640106857,None,333.7215518001467,None,l,1,0.5378388985991478,333.7215518001467,None,None,None,,,,,,,7,22,male,7,2022_May_05_1535,Partial repeat,2021.2.3,59.89645084092524,
5,4,0,1,3,3,1,2,1,0,1,0,0,0,0,0,59,59,59,,,,,,,,,,,,,,,,,,,,,,,,,,,,,,7,22,male,7,2022_May_05_1535,Partial repeat,2021.2.3,59.89645084092524,
3,3,0,1,3,2,2,1,0,0,0,0,1,0,0,0,60,60,60,0,0,0,0,,,,,,,334.28411090001464,None,335.06189750134945,None,336.0091885998845,None,l,1,0.6342152990400791,336.0091885998845,None,None,None,,,,,,,7,22,male,7,2022_May_05_1535,Partial repeat,2021.2.3,59.89645084092524,
3,3,0,1,3,2,2,1,0,0,0,0,1,0,0,0,60,60,60,1,0,1,0,,,,,,,,,336.6554045006633,None,337.52869680151343,None,l,1,0.6026964988559484,337.52869680151343,None,None,None,,,,,,,7,22,male,7,2022_May_05_1535,Partial repeat,2021.2.3,59.89645084092524,
3,3,0,1,3,2,2,1,0,0,0,0,1,0,0,0,60,60,60,,,,,,,,,,,,,,,,,,,,,,,,,,,,,,7,22,male,7,2022_May_05_1535,Partial repeat,2021.2.3,59.89645084092524,
6,4,0,1,3,3,2,2,0,1,1,1,0,0,0,0,61,61,61,0,0,0,0,,,,,,,338.15541240014136,None,338.9528672005981,None,339.833208700642,None,l,1,0.5381763000041246,339.833208700642,None,None,None,,,,,,,7,22,male,7,2022_May_05_1535,Partial repeat,2021.2.3,59.89645084092524,
6,4,0,1,3,3,2,2,0,1,1,1,0,0,0,0,61,61,61,1,0,1,0,,,,,,,,,340.3903801999986,None,341.1360213011503,None,s,1,0.5873699989169836,341.1360213011503,None,None,None,,,,,,,7,22,male,7,2022_May_05_1535,Partial repeat,2021.2.3,59.89645084092524,
6,4,0,1,3,3,2,2,0,1,1,1,0,0,0,0,61,61,61,,,,,,,,,,,,,,,,,,,,,,,,,,,,,,7,22,male,7,2022_May_05_1535,Partial repeat,2021.2.3,59.89645084092524,
6,2,0,1,2,2,1,1,1,0,1,1,0,0,0,0,62,62,62,0,0,0,0,,,,,,,341.73955330066383,None,342.5932852998376,None,343.3901096004993,None,s,1,0.7572724986821413,343.3901096004993,None,None,None,,,,,,,7,22,male,7,2022_May_05_1535,Partial repeat,2021.2.3,59.89645084092524,
6,2,0,1,2,2,1,1,1,0,1,1,0,0,0,0,62,62,62,1,0,1,0,,,,,,,,,344.15879240073264,None,345.0100614000112,None,l,1,0.673309899866581,345.0100614000112,None,None,None,,,,,,,7,22,male,7,2022_May_05_1535,Partial repeat,2021.2.3,59.89645084092524,
6,2,0,1,2,2,1,1,1,0,1,1,0,0,0,0,62,62,62,,,,,,,,,,,,,,,,,,,,,,,,,,,,,,7,22,male,7,2022_May_05_1535,Partial repeat,2021.2.3,59.89645084092524,
7,8,0,1,2,3,1,2,1,1,0,0,1,0,0,0,63,63,63,0,0,0,0,,,,,,,345.6969379000366,None,348.1707811001688,None,348.967573300004,None,s,1,0.6918109003454447,348.967573300004,None,None,None,,,,,,,7,22,male,7,2022_May_05_1535,Partial repeat,2021.2.3,59.89645084092524,
7,8,0,1,2,3,1,2,1,1,0,0,1,0,0,0,63,63,63,1,0,1,0,,,,,,,,,349.67081650160253,None,350.53746050037444,None,s,1,0.553889499977231,350.53746050037444,None,None,None,,,,,,,7,22,male,7,2022_May_05_1535,Partial repeat,2021.2.3,59.89645084092524,
7,8,0,1,2,3,1,2,1,1,0,0,1,0,0,0,63,63,63,,,,,,,,,,,,,,,,,,,,,,,,,,,,,,7,22,male,7,2022_May_05_1535,Partial repeat,2021.2.3,59.89645084092524,
4,4,0,1,3,2,2,1,0,1,0,0,0,1,0,0,64,64,64,0,0,0,0,,,,,,,364.33881550095975,None,365.85510670021176,None,366.8212994001806,None,l,1,0.6861776001751423,366.8212994001806,None,None,None,,,,,,,7,22,male,7,2022_May_05_1535,Partial repeat,2021.2.3,59.89645084092524,
4,4,0,1,3,2,2,1,0,1,0,0,0,1,0,0,64,64,64,1,0,1,0,,,,,,,,,367.51695980131626,None,368.3056580014527,None,s,1,0.6817269995808601,368.3056580014527,None,None,None,,,,,,,7,22,male,7,2022_May_05_1535,Partial repeat,2021.2.3,59.89645084092524,
4,4,0,1,3,2,2,1,0,1,0,0,0,1,0,0,64,64,64,,,,,,,,,,,,,,,,,,,,,,,,,,,,,,7,22,male,7,2022_May_05_1535,Partial repeat,2021.2.3,59.89645084092524,
4,4,0,1,2,2,2,2,1,1,1,1,1,1,0,0,65,65,65,0,0,0,0,,,,,,,369.01537200063467,None,371.69991720095277,None,372.5470671001822,None,s,1,0.6963768992573023,372.5470671001822,None,None,None,,,,,,,7,22,male,7,2022_May_05_1535,Partial repeat,2021.2.3,59.89645084092524,
4,4,0,1,2,2,2,2,1,1,1,1,1,1,0,0,65,65,65,1,0,1,0,,,,,,,,,373.25910760089755,None,374.21711710095406,None,s,1,0.45026799850165844,374.21711710095406,None,None,None,,,,,,,7,22,male,7,2022_May_05_1535,Partial repeat,2021.2.3,59.89645084092524,
4,4,0,1,2,2,2,2,1,1,1,1,1,1,0,0,65,65,65,,,,,,,,,,,,,,,,,,,,,,,,,,,,,,7,22,male,7,2022_May_05_1535,Partial repeat,2021.2.3,59.89645084092524,
4,4,0,1,3,3,2,2,0,0,1,1,1,1,0,0,66,66,66,0,0,0,0,,,,,,,374.6957003008574,None,375.323627801612,None,376.1706321015954,None,l,1,0.5927937999367714,376.1706321015954,None,None,None,,,,,,,7,22,male,7,2022_May_05_1535,Partial repeat,2021.2.3,59.89645084092524,
4,4,0,1,3,3,2,2,0,0,1,1,1,1,0,0,66,66,66,1,0,1,0,,,,,,,,,376.79157200083137,None,377.52325920015574,None,l,1,0.4320893995463848,377.52325920015574,None,None,None,,,,,,,7,22,male,7,2022_May_05_1535,Partial repeat,2021.2.3,59.89645084092524,
4,4,0,1,3,3,2,2,0,0,1,1,1,1,0,0,66,66,66,,,,,,,,,,,,,,,,,,,,,,,,,,,,,,7,22,male,7,2022_May_05_1535,Partial repeat,2021.2.3,59.89645084092524,
4,4,0,1,3,2,2,2,0,1,0,1,0,1,0,0,67,67,67,0,0,0,0,,,,,,,377.9799449015409,None,378.8637998010963,None,379.86138010025024,None,l,1,0.5100403986871243,379.86138010025024,None,None,None,,,,,,,7,22,male,7,2022_May_05_1535,Partial repeat,2021.2.3,59.89645084092524,
4,4,0,1,3,2,2,2,0,1,0,1,0,1,0,0,67,67,67,1,0,1,0,,,,,,,,,380.39960850030184,None,381.13059139996767,None,s,1,0.4168235994875431,381.13059139996767,None,None,None,,,,,,,7,22,male,7,2022_May_05_1535,Partial repeat,2021.2.3,59.89645084092524,
4,4,0,1,3,2,2,2,0,1,0,1,0,1,0,0,67,67,67,,,,,,,,,,,,,,,,,,,,,,,,,,,,,,7,22,male,7,2022_May_05_1535,Partial repeat,2021.2.3,59.89645084092524,
4,4,0,1,2,2,1,1,0,0,1,1,1,1,0,0,68,68,68,0,0,0,0,,,,,,,381.5641099009663,None,383.7901033014059,None,384.63719820044935,None,l,1,0.5262196008116007,384.63719820044935,None,None,None,,,,,,,7,22,male,7,2022_May_05_1535,Partial repeat,2021.2.3,59.89645084092524,
4,4,0,1,2,2,1,1,0,0,1,1,1,1,0,0,68,68,68,1,0,1,0,,,,,,,,,385.17778060026467,None,386.15678790025413,None,l,1,0.43059360049664974,386.15678790025413,None,None,None,,,,,,,7,22,male,7,2022_May_05_1535,Partial repeat,2021.2.3,59.89645084092524,
4,4,0,1,2,2,1,1,0,0,1,1,1,1,0,0,68,68,68,,,,,,,,,,,,,,,,,,,,,,,,,,,,,,7,22,male,7,2022_May_05_1535,Partial repeat,2021.2.3,59.89645084092524,
4,4,0,1,2,2,2,2,0,1,1,1,0,1,0,0,69,69,69,0,0,0,0,,,,,,,386.61440670117736,None,388.43244650028646,None,389.2474038004875,None,l,1,0.6119532007724047,389.2474038004875,None,None,None,,,,,,,7,22,male,7,2022_May_05_1535,Partial repeat,2021.2.3,59.89645084092524,
4,4,0,1,2,2,2,2,0,1,1,1,0,1,0,0,69,69,69,1,0,1,0,,,,,,,,,389.8688773009926,None,390.8327641002834,None,s,1,0.6186455991119146,390.8327641002834,None,None,None,,,,,,,7,22,male,7,2022_May_05_1535,Partial repeat,2021.2.3,59.89645084092524,
4,4,0,1,2,2,2,2,0,1,1,1,0,1,0,0,69,69,69,,,,,,,,,,,,,,,,,,,,,,,,,,,,,,7,22,male,7,2022_May_05_1535,Partial repeat,2021.2.3,59.89645084092524,
4,4,0,1,3,2,1,2,1,0,0,0,0,1,0,0,70,70,70,0,0,0,0,,,,,,,391.48002099990845,None,394.3439668007195,None,395.3415565006435,None,s,1,1.2298108004033566,395.3415565006435,None,None,None,,,,,,,7,22,male,7,2022_May_05_1535,Partial repeat,2021.2.3,59.89645084092524,
4,4,0,1,3,2,1,2,1,0,0,0,0,1,0,0,70,70,70,1,0,1,0,,,,,,,,,396.5989824011922,None,397.46228240057826,None,l,1,0.5250899009406567,397.46228240057826,None,None,None,,,,,,,7,22,male,7,2022_May_05_1535,Partial repeat,2021.2.3,59.89645084092524,
4,4,0,1,3,2,1,2,1,0,0,0,0,1,0,0,70,70,70,,,,,,,,,,,,,,,,,,,,,,,,,,,,,,7,22,male,7,2022_May_05_1535,Partial repeat,2021.2.3,59.89645084092524,
4,4,0,1,3,2,1,2,0,0,0,0,1,1,0,0,71,71,71,0,0,0,0,,,,,,,398.0021439008415,None,399.58748700097203,None,400.4847640004009,None,l,1,0.5026035010814667,400.4847640004009,None,None,None,,,,,,,7,22,male,7,2022_May_05_1535,Partial repeat,2021.2.3,59.89645084092524,
4,4,0,1,3,2,1,2,0,0,0,0,1,1,0,0,71,71,71,1,0,1,0,,,,,,,,,401.00120270065963,None,401.92092060111463,None,l,1,0.4424531999975443,401.92092060111463,None,None,None,,,,,,,7,22,male,7,2022_May_05_1535,Partial repeat,2021.2.3,59.89645084092524,
4,4,0,1,3,2,1,2,0,0,0,0,1,1,0,0,71,71,71,,,,,,,,,,,,,,,,,,,,,,,,,,,,,,7,22,male,7,2022_May_05_1535,Partial repeat,2021.2.3,59.89645084092524,
4,4,0,1,2,3,2,1,1,0,0,0,0,1,0,0,72,72,72,0,0,0,0,,,,,,,402.38011390157044,None,403.5117474999279,None,404.4756542015821,None,s,1,0.5436927005648613,404.4756542015821,None,None,None,,,,,,,7,22,male,7,2022_May_05_1535,Partial repeat,2021.2.3,59.89645084092524,
4,4,0,1,2,3,2,1,1,0,0,0,0,1,0,0,72,72,72,1,0,1,0,,,,,,,,,405.0336607005447,None,406.04573520086706,None,l,1,0.4136413000524044,406.04573520086706,None,None,None,,,,,,,7,22,male,7,2022_May_05_1535,Partial repeat,2021.2.3,59.89645084092524,
4,4,0,1,2,3,2,1,1,0,0,0,0,1,0,0,72,72,72,,,,,,,,,,,,,,,,,,,,,,,,,,,,,,7,22,male,7,2022_May_05_1535,Partial repeat,2021.2.3,59.89645084092524,
4,4,0,1,3,3,1,2,0,0,1,0,1,1,0,0,73,73,73,0,0,0,0,,,,,,,406.47663830034435,None,407.50285840034485,None,408.48387080058455,None,l,1,0.575508700683713,408.48387080058455,None,None,None,,,,,,,7,22,male,7,2022_May_05_1535,Partial repeat,2021.2.3,59.89645084092524,
4,4,0,1,3,3,1,2,0,0,1,0,1,1,0,0,73,73,73,1,0,1,0,,,,,,,,,409.08377140015364,None,410.05321010015905,None,l,1,0.478158101439476,410.05321010015905,None,None,None,,,,,,,7,22,male,7,2022_May_05_1535,Partial repeat,2021.2.3,59.89645084092524,
4,4,0,1,3,3,1,2,0,0,1,0,1,1,0,0,73,73,73,,,,,,,,,,,,,,,,,,,,,,,,,,,,,,7,22,male,7,2022_May_05_1535,Partial repeat,2021.2.3,59.89645084092524,
4,4,0,1,2,3,2,2,1,1,0,1,1,1,0,0,74,74,74,0,0,0,0,,,,,,,410.5482287015766,None,411.47730350121856,None,412.4088327009231,None,s,1,0.5145442001521587,412.4088327009231,None,None,None,,,,,,,7,22,male,7,2022_May_05_1535,Partial repeat,2021.2.3,59.89645084092524,
4,4,0,1,2,3,2,2,1,1,0,1,1,1,0,0,74,74,74,1,0,1,0,,,,,,,,,412.9479956999421,None,413.69399090111256,None,s,1,0.5333902016282082,413.69399090111256,None,None,None,,,,,,,7,22,male,7,2022_May_05_1535,Partial repeat,2021.2.3,59.89645084092524,
4,4,0,1,2,3,2,2,1,1,0,1,1,1,0,0,74,74,74,,,,,,,,,,,,,,,,,,,,,,,,,,,,,,7,22,male,7,2022_May_05_1535,Partial repeat,2021.2.3,59.89645084092524,
4,4,0,1,3,3,2,2,0,1,1,1,0,1,0,0,75,75,75,0,0,0,0,,,,,,,414.2557903006673,None,415.2179174013436,None,415.964901201427,None,l,1,0.5424694996327162,415.964901201427,None,None,None,,,,,,,7,22,male,7,2022_May_05_1535,Partial repeat,2021.2.3,59.89645084092524,
4,4,0,1,3,3,2,2,0,1,1,1,0,1,0,0,75,75,75,1,0,1,0,,,,,,,,,416.52032379992306,None,417.4344600010663,None,s,1,0.45690719969570637,417.4344600010663,None,None,None,,,,,,,7,22,male,7,2022_May_05_1535,Partial repeat,2021.2.3,59.89645084092524,
4,4,0,1,3,3,2,2,0,1,1,1,0,1,0,0,75,75,75,,,,,,,,,,,,,,,,,,,,,,,,,,,,,,7,22,male,7,2022_May_05_1535,Partial repeat,2021.2.3,59.89645084092524,
4,4,0,1,2,3,2,2,1,0,0,1,0,1,0,0,76,76,76,0,0,0,0,,,,,,,417.9138483013958,None,418.8583347015083,None,419.7220218013972,None,s,1,0.6973630990833044,419.7220218013972,None,None,None,,,,,,,7,22,male,7,2022_May_05_1535,Partial repeat,2021.2.3,59.89645084092524,
4,4,0,1,2,3,2,2,1,0,0,1,0,1,0,0,76,76,76,1,0,1,0,,,,,,,,,420.42766000144184,None,421.22522599995136,None,l,1,0.5621488988399506,421.22522599995136,None,None,None,,,,,,,7,22,male,7,2022_May_05_1535,Partial repeat,2021.2.3,59.89645084092524,
4,4,0,1,2,3,2,2,1,0,0,1,0,1,0,0,76,76,76,,,,,,,,,,,,,,,,,,,,,,,,,,,,,,7,22,male,7,2022_May_05_1535,Partial repeat,2021.2.3,59.89645084092524,
4,4,0,1,3,2,2,2,1,1,0,1,1,1,0,0,77,77,77,0,0,0,0,,,,,,,421.80625880137086,None,423.4339020010084,None,424.1973482016474,None,s,1,0.6380196996033192,424.1973482016474,None,None,None,,,,,,,7,22,male,7,2022_May_05_1535,Partial repeat,2021.2.3,59.89645084092524,
4,4,0,1,3,2,2,2,1,1,0,1,1,1,0,0,77,77,77,1,0,1,0,,,,,,,,,424.8609632998705,None,425.5834118016064,None,s,1,0.5080741010606289,425.5834118016064,None,None,None,,,,,,,7,22,male,7,2022_May_05_1535,Partial repeat,2021.2.3,59.89645084092524,
4,4,0,1,3,2,2,2,1,1,0,1,1,1,0,0,77,77,77,,,,,,,,,,,,,,,,,,,,,,,,,,,,,,7,22,male,7,2022_May_05_1535,Partial repeat,2021.2.3,59.89645084092524,
4,4,0,1,2,3,2,2,0,1,0,1,0,1,0,0,78,78,78,0,0,0,0,,,,,,,426.1223468016833,None,426.8405019007623,None,427.6877000015229,None,l,1,0.7476768996566534,427.6877000015229,None,None,None,,,,,,,7,22,male,7,2022_May_05_1535,Partial repeat,2021.2.3,59.89645084092524,
4,4,0,1,2,3,2,2,0,1,0,1,0,1,0,0,78,78,78,1,0,1,0,,,,,,,,,428.45699080079794,None,429.1736626010388,None,s,1,0.4538050014525652,429.1736626010388,None,None,None,,,,,,,7,22,male,7,2022_May_05_1535,Partial repeat,2021.2.3,59.89645084092524,
4,4,0,1,2,3,2,2,0,1,0,1,0,1,0,0,78,78,78,,,,,,,,,,,,,,,,,,,,,,,,,,,,,,7,22,male,7,2022_May_05_1535,Partial repeat,2021.2.3,59.89645084092524,
4,4,0,1,3,3,1,2,1,1,1,0,1,1,0,0,79,79,79,0,0,0,0,,,,,,,429.65260430052876,None,430.948535900563,None,431.8790341001004,None,s,1,0.5963441003113985,431.8790341001004,None,None,None,,,,,,,7,22,male,7,2022_May_05_1535,Partial repeat,2021.2.3,59.89645084092524,
4,4,0,1,3,3,1,2,1,1,1,0,1,1,0,0,79,79,79,1,0,1,0,,,,,,,,,432.50074939988554,None,433.3653195016086,None,s,1,0.4620617013424635,433.3653195016086,None,None,None,,,,,,,7,22,male,7,2022_May_05_1535,Partial repeat,2021.2.3,59.89645084092524,
4,4,0,1,3,3,1,2,1,1,1,0,1,1,0,0,79,79,79,,,,,,,,,,,,,,,,,,,,,,,,,,,,,,7,22,male,7,2022_May_05_1535,Partial repeat,2021.2.3,59.89645084092524,
4,4,0,1,3,2,1,1,0,1,0,1,0,1,0,0,80,80,80,0,0,0,0,,,,,,,433.84176180139184,None,434.55551700107753,None,435.4694268014282,None,l,1,0.7179851997643709,435.4694268014282,None,None,None,,,,,,,7,22,male,7,2022_May_05_1535,Partial repeat,2021.2.3,59.89645084092524,
4,4,0,1,3,2,1,1,0,1,0,1,0,1,0,0,80,80,80,1,0,1,0,,,,,,,,,436.2151023000479,None,437.1225308999419,None,s,1,0.5049153994768858,437.1225308999419,None,None,None,,,,,,,7,22,male,7,2022_May_05_1535,Partial repeat,2021.2.3,59.89645084092524,
4,4,0,1,3,2,1,1,0,1,0,1,0,1,0,0,80,80,80,,,,,,,,,,,,,,,,,,,,,,,,,,,,,,7,22,male,7,2022_May_05_1535,Partial repeat,2021.2.3,59.89645084092524,
4,4,0,1,3,3,1,1,1,0,1,1,0,1,0,0,81,81,81,0,0,0,0,,,,,,,437.6399947013706,None,438.36294919997454,None,439.3602638002485,None,s,1,0.6350753009319305,439.3602638002485,None,None,None,,,,,,,7,22,male,7,2022_May_05_1535,Partial repeat,2021.2.3,59.89645084092524,
4,4,0,1,3,3,1,1,1,0,1,1,0,1,0,0,81,81,81,1,0,1,0,,,,,,,,,440.02355509996414,None,440.7798049002886,None,l,1,0.5515319984406233,440.7798049002886,None,None,None,,,,,,,7,22,male,7,2022_May_05_1535,Partial repeat,2021.2.3,59.89645084092524,
4,4,0,1,3,3,1,1,1,0,1,1,0,1,0,0,81,81,81,,,,,,,,,,,,,,,,,,,,,,,,,,,,,,7,22,male,7,2022_May_05_1535,Partial repeat,2021.2.3,59.89645084092524,
4,4,0,1,3,3,2,1,1,1,1,0,1,1,0,0,82,82,82,0,0,0,0,,,,,,,441.3431414999068,None,442.35401850007474,None,443.08437569998205,None,s,1,0.6150582991540432,443.08437569998205,None,None,None,,,,,,,7,22,male,7,2022_May_05_1535,Partial repeat,2021.2.3,59.89645084092524,
4,4,0,1,3,3,2,1,1,1,1,0,1,1,0,0,82,82,82,1,0,1,0,,,,,,,,,443.723766701296,None,444.6537854000926,None,s,1,0.46963700093328953,444.6537854000926,None,None,None,,,,,,,7,22,male,7,2022_May_05_1535,Partial repeat,2021.2.3,59.89645084092524,
4,4,0,1,3,3,2,1,1,1,1,0,1,1,0,0,82,82,82,,,,,,,,,,,,,,,,,,,,,,,,,,,,,,7,22,male,7,2022_May_05_1535,Partial repeat,2021.2.3,59.89645084092524,
4,4,0,1,2,3,1,1,0,0,0,1,1,1,0,0,83,83,83,0,0,0,0,,,,,,,445.1526390016079,None,445.77739260159433,None,446.640960900113,None,l,1,0.48248619958758354,446.640960900113,None,None,None,,,,,,,7,22,male,7,2022_May_05_1535,Partial repeat,2021.2.3,59.89645084092524,
4,4,0,1,2,3,1,1,0,0,0,1,1,1,0,0,83,83,83,1,0,1,0,,,,,,,,,447.13297070004046,None,447.8601480014622,None,l,1,0.4072740003466606,447.8601480014622,None,None,None,,,,,,,7,22,male,7,2022_May_05_1535,Partial repeat,2021.2.3,59.89645084092524,
4,4,0,1,2,3,1,1,0,0,0,1,1,1,0,0,83,83,83,,,,,,,,,,,,,,,,,,,,,,,,,,,,,,7,22,male,7,2022_May_05_1535,Partial repeat,2021.2.3,59.89645084092524,
4,4,0,1,2,3,1,2,0,1,0,0,0,1,0,0,84,84,84,0,0,0,0,,,,,,,448.2974161002785,None,449.0170219000429,None,449.9808895010501,None,l,1,0.4784808997064829,449.9808895010501,None,None,None,,,,,,,7,22,male,7,2022_May_05_1535,Partial repeat,2021.2.3,59.89645084092524,
4,4,0,1,2,3,1,2,0,1,0,0,0,1,0,0,84,84,84,1,0,1,0,,,,,,,,,450.47288690134883,None,451.19989870116115,None,s,1,0.5075121987611055,451.19989870116115,None,None,None,,,,,,,7,22,male,7,2022_May_05_1535,Partial repeat,2021.2.3,59.89645084092524,
4,4,0,1,2,3,1,2,0,1,0,0,0,1,0,0,84,84,84,,,,,,,,,,,,,,,,,,,,,,,,,,,,,,7,22,male,7,2022_May_05_1535,Partial repeat,2021.2.3,59.89645084092524,
4,4,0,1,3,2,1,1,0,0,0,1,1,1,0,0,85,85,85,0,0,0,0,,,,,,,451.7185777015984,None,452.3902280014008,None,453.22076690010726,None,l,1,0.5746374987065792,453.22076690010726,None,None,None,,,,,,,7,22,male,7,2022_May_05_1535,Partial repeat,2021.2.3,59.89645084092524,
4,4,0,1,3,2,1,1,0,0,0,1,1,1,0,0,85,85,85,1,0,1,0,,,,,,,,,453.822186101228,None,454.6069525014609,None,l,1,0.5484258998185396,454.6069525014609,None,None,None,,,,,,,7,22,male,7,2022_May_05_1535,Partial repeat,2021.2.3,59.89645084092524,
4,4,0,1,3,2,1,1,0,0,0,1,1,1,0,0,85,85,85,,,,,,,,,,,,,,,,,,,,,,,,,,,,,,7,22,male,7,2022_May_05_1535,Partial repeat,2021.2.3,59.89645084092524,
4,4,0,1,2,3,2,1,0,0,0,0,1,1,0,0,86,86,86,0,0,0,0,,,,,,,455.17007330060005,None,455.8135763015598,None,456.62739589996636,None,l,1,0.4960059989243746,456.62739589996636,None,None,None,,,,,,,7,22,male,7,2022_May_05_1535,Partial repeat,2021.2.3,59.89645084092524,
4,4,0,1,2,3,2,1,0,0,0,0,1,1,0,0,86,86,86,1,0,1,0,,,,,,,,,457.13967780023813,None,457.91323150135577,None,l,1,0.41825690120458603,457.91323150135577,None,None,None,,,,,,,7,22,male,7,2022_May_05_1535,Partial repeat,2021.2.3,59.89645084092524,
4,4,0,1,2,3,2,1,0,0,0,0,1,1,0,0,86,86,86,,,,,,,,,,,,,,,,,,,,,,,,,,,,,,7,22,male,7,2022_May_05_1535,Partial repeat,2021.2.3,59.89645084092524,
4,4,0,1,3,2,2,1,1,1,0,0,1,1,0,0,87,87,87,0,0,0,0,,,,,,,458.3456656001508,None,458.98640220053494,None,459.9335630014539,None,s,1,0.5817801002413034,459.9335630014539,None,None,None,,,,,,,7,22,male,7,2022_May_05_1535,Partial repeat,2021.2.3,59.89645084092524,
4,4,0,1,3,2,2,1,1,1,0,0,1,1,0,0,87,87,87,1,0,1,0,,,,,,,,,460.53235620073974,None,461.48689839988947,None,s,1,0.6604749001562595,461.48689839988947,None,None,None,,,,,,,7,22,male,7,2022_May_05_1535,Partial repeat,2021.2.3,59.89645084092524,
4,4,0,1,3,2,2,1,1,1,0,0,1,1,0,0,87,87,87,,,,,,,,,,,,,,,,,,,,,,,,,,,,,,7,22,male,7,2022_May_05_1535,Partial repeat,2021.2.3,59.89645084092524,
4,4,0,1,3,3,2,1,0,1,1,0,0,1,0,0,88,88,88,0,0,0,0,,,,,,,462.1743864007294,None,463.0443007014692,None,464.0257220007479,None,l,1,0.5296947006136179,464.0257220007479,None,None,None,,,,,,,7,22,male,7,2022_May_05_1535,Partial repeat,2021.2.3,59.89645084092524,
4,4,0,1,3,3,2,1,0,1,1,0,0,1,0,0,88,88,88,1,0,1,0,,,,,,,,,464.5826948005706,None,465.5120668001473,None,s,1,0.5953774992376566,465.5120668001473,None,None,None,,,,,,,7,22,male,7,2022_May_05_1535,Partial repeat,2021.2.3,59.89645084092524,
4,4,0,1,3,3,2,1,0,1,1,0,0,1,0,0,88,88,88,,,,,,,,,,,,,,,,,,,,,,,,,,,,,,7,22,male,7,2022_May_05_1535,Partial repeat,2021.2.3,59.89645084092524,
4,4,0,1,2,3,1,2,1,1,0,0,1,1,0,0,89,89,89,0,0,0,0,,,,,,,466.1365761011839,None,467.25249100103974,None,467.99955790117383,None,s,1,0.8358118999749422,467.99955790117383,None,None,None,,,,,,,7,22,male,7,2022_May_05_1535,Partial repeat,2021.2.3,59.89645084092524,
4,4,0,1,2,3,1,2,1,1,0,0,1,1,0,0,89,89,89,1,0,1,0,,,,,,,,,468.85304700024426,None,469.78604190051556,None,s,1,0.4014365002512932,469.78604190051556,None,None,None,,,,,,,7,22,male,7,2022_May_05_1535,Partial repeat,2021.2.3,59.89645084092524,
4,4,0,1,2,3,1,2,1,1,0,0,1,1,0,0,89,89,89,,,,,,,,,,,,,,,,,,,,,,,,,,,,,,7,22,male,7,2022_May_05_1535,Partial repeat,2021.2.3,59.89645084092524,
4,4,0,1,2,2,1,1,0,1,1,1,0,1,0,0,90,90,90,0,0,0,0,,,,,,,470.2009250000119,None,470.9096000008285,None,471.7233014013618,None,l,1,0.6241242997348309,471.7233014013618,None,None,None,,,,,,,7,22,male,7,2022_May_05_1535,Partial repeat,2021.2.3,59.89645084092524,
4,4,0,1,2,2,1,1,0,1,1,1,0,1,0,0,90,90,90,1,0,1,0,,,,,,,,,472.376296101138,None,473.3598314002156,None,s,1,0.435547299683094,473.3598314002156,None,None,None,,,,,,,7,22,male,7,2022_May_05_1535,Partial repeat,2021.2.3,59.89645084092524,
4,4,0,1,2,2,1,1,0,1,1,1,0,1,0,0,90,90,90,,,,,,,,,,,,,,,,,,,,,,,,,,,,,,7,22,male,7,2022_May_05_1535,Partial repeat,2021.2.3,59.89645084092524,
4,4,0,1,2,3,2,1,1,1,0,0,1,1,0,0,91,91,91,0,0,0,0,,,,,,,473.81886260025203,None,474.616829700768,None,475.3469026014209,None,s,1,0.5285081993788481,475.3469026014209,None,None,None,,,,,,,7,22,male,7,2022_May_05_1535,Partial repeat,2021.2.3,59.89645084092524,
4,4,0,1,2,3,2,1,1,1,0,0,1,1,0,0,91,91,91,1,0,1,0,,,,,,,,,475.88425880111754,None,476.76683910004795,None,s,1,0.4205622002482414,476.76683910004795,None,None,None,,,,,,,7,22,male,7,2022_May_05_1535,Partial repeat,2021.2.3,59.89645084092524,
4,4,0,1,2,3,2,1,1,1,0,0,1,1,0,0,91,91,91,,,,,,,,,,,,,,,,,,,,,,,,,,,,,,7,22,male,7,2022_May_05_1535,Partial repeat,2021.2.3,59.89645084092524,
4,4,0,1,2,3,1,1,1,1,0,1,1,1,0,0,92,92,92,0,0,0,0,,,,,,,477.20455050095916,None,477.73957009986043,None,478.7033442016691,None,s,1,0.5000411998480558,478.7033442016691,None,None,None,,,,,,,7,22,male,7,2022_May_05_1535,Partial repeat,2021.2.3,59.89645084092524,
4,4,0,1,2,3,1,1,1,1,0,1,1,1,0,0,92,92,92,1,0,1,0,,,,,,,,,479.21518569998443,None,480.1729497015476,None,s,1,0.4464695993810892,480.1729497015476,None,None,None,,,,,,,7,22,male,7,2022_May_05_1535,Partial repeat,2021.2.3,59.89645084092524,
4,4,0,1,2,3,1,1,1,1,0,1,1,1,0,0,92,92,92,,,,,,,,,,,,,,,,,,,,,,,,,,,,,,7,22,male,7,2022_May_05_1535,Partial repeat,2021.2.3,59.89645084092524,
4,4,0,1,2,2,1,1,1,0,1,1,0,1,0,0,93,93,93,0,0,0,0,,,,,,,480.64981160126626,None,481.22967190109193,None,482.2272280007601,None,s,1,0.6001120004802942,482.2272280007601,None,None,None,,,,,,,7,22,male,7,2022_May_05_1535,Partial repeat,2021.2.3,59.89645084092524,
4,4,0,1,2,2,1,1,1,0,1,1,0,1,0,0,93,93,93,1,0,1,0,,,,,,,,,482.836656300351,None,483.71344440057874,None,l,1,0.5619320999830961,483.71344440057874,None,None,None,,,,,,,7,22,male,7,2022_May_05_1535,Partial repeat,2021.2.3,59.89645084092524,
4,4,0,1,2,2,1,1,1,0,1,1,0,1,0,0,93,93,93,,,,,,,,,,,,,,,,,,,,,,,,,,,,,,7,22,male,7,2022_May_05_1535,Partial repeat,2021.2.3,59.89645084092524,
4,4,0,1,3,3,1,1,0,1,1,1,0,1,0,0,94,94,94,0,0,0,0,,,,,,,484.29375520162284,None,487.29148540087044,None,488.25566940009594,None,l,1,0.8596823997795582,488.25566940009594,None,None,None,,,,,,,7,22,male,7,2022_May_05_1535,Partial repeat,2021.2.3,59.89645084092524,
4,4,0,1,3,3,1,1,0,1,1,1,0,1,0,0,94,94,94,1,0,1,0,,,,,,,,,489.1289408002049,None,489.9256638009101,None,s,1,0.4616886992007494,489.9256638009101,None,None,None,,,,,,,7,22,male,7,2022_May_05_1535,Partial repeat,2021.2.3,59.89645084092524,
4,4,0,1,3,3,1,1,0,1,1,1,0,1,0,0,94,94,94,,,,,,,,,,,,,,,,,,,,,,,,,,,,,,7,22,male,7,2022_May_05_1535,Partial repeat,2021.2.3,59.89645084092524,
4,4,0,1,3,2,2,1,1,0,0,0,0,1,0,0,95,95,95,0,0,0,0,,,,,,,490.40582460165024,None,491.0488035008311,None,491.9962394014001,None,s,1,0.6710892990231514,491.9962394014001,None,None,None,,,,,,,7,22,male,7,2022_May_05_1535,Partial repeat,2021.2.3,59.89645084092524,
4,4,0,1,3,2,2,1,1,0,0,0,0,1,0,0,95,95,95,1,0,1,0,,,,,,,,,492.67883600108325,None,493.66591390036047,None,l,1,0.44953679852187634,493.66591390036047,None,None,None,,,,,,,7,22,male,7,2022_May_05_1535,Partial repeat,2021.2.3,59.89645084092524,
4,4,0,1,3,2,2,1,1,0,0,0,0,1,0,0,95,95,95,,,,,,,,,,,,,,,,,,,,,,,,,,,,,,7,22,male,7,2022_May_05_1535,Partial repeat,2021.2.3,59.89645084092524,
4,4,0,1,3,3,2,1,0,0,1,0,1,1,0,0,96,96,96,0,0,0,0,,,,,,,494.12582880072296,None,495.1066775005311,None,495.8538991007954,None,l,1,0.49344070069491863,495.8538991007954,None,None,None,,,,,,,7,22,male,7,2022_May_05_1535,Partial repeat,2021.2.3,59.89645084092524,
4,4,0,1,3,3,2,1,0,0,1,0,1,1,0,0,96,96,96,1,0,1,0,,,,,,,,,496.36833230033517,None,497.37334450148046,None,l,1,0.5420246999710798,497.37334450148046,None,None,None,,,,,,,7,22,male,7,2022_May_05_1535,Partial repeat,2021.2.3,59.89645084092524,
4,4,0,1,3,3,2,1,0,0,1,0,1,1,0,0,96,96,96,,,,,,,,,,,,,,,,,,,,,,,,,,,,,,7,22,male,7,2022_May_05_1535,Partial repeat,2021.2.3,59.89645084092524,
4,4,0,1,3,2,1,2,1,1,0,0,1,1,0,0,97,97,97,0,0,0,0,,,,,,,497.93722090125084,None,498.4799295011908,None,499.3605692014098,None,s,1,0.5707978997379541,499.3605692014098,None,None,None,,,,,,,7,22,male,7,2022_May_05_1535,Partial repeat,2021.2.3,59.89645084092524,
4,4,0,1,3,2,1,2,1,1,0,0,1,1,0,0,97,97,97,1,0,1,0,,,,,,,,,499.94095460139215,None,500.96343720145524,None,s,1,0.6719582993537188,500.96343720145524,None,None,None,,,,,,,7,22,male,7,2022_May_05_1535,Partial repeat,2021.2.3,59.89645084092524,
4,4,0,1,3,2,1,2,1,1,0,0,1,1,0,0,97,97,97,,,,,,,,,,,,,,,,,,,,,,,,,,,,,,7,22,male,7,2022_May_05_1535,Partial repeat,2021.2.3,59.89645084092524,
4,4,0,1,3,3,2,2,1,0,1,1,0,1,0,0,98,98,98,0,0,0,0,,,,,,,501.6562582012266,None,502.30406760051847,None,503.2521289009601,None,s,1,0.7592785004526377,503.2521289009601,None,None,None,,,,,,,7,22,male,7,2022_May_05_1535,Partial repeat,2021.2.3,59.89645084092524,
4,4,0,1,3,3,2,2,1,0,1,1,0,1,0,0,98,98,98,1,0,1,0,,,,,,,,,504.0199833009392,None,504.9548224005848,None,l,1,0.8005446996539831,504.9548224005848,None,None,None,,,,,,,7,22,male,7,2022_May_05_1535,Partial repeat,2021.2.3,59.89645084092524,
4,4,0,1,3,3,2,2,1,0,1,1,0,1,0,0,98,98,98,,,,,,,,,,,,,,,,,,,,,,,,,,,,,,7,22,male,7,2022_May_05_1535,Partial repeat,2021.2.3,59.89645084092524,
4,4,0,1,3,2,2,2,0,0,0,1,1,1,0,0,99,99,99,0,0,0,0,,,,,,,505.7742968015373,None,507.3638624008745,None,508.2120076008141,None,l,1,0.631359999999404,508.2120076008141,None,None,None,,,,,,,7,22,male,7,2022_May_05_1535,Partial repeat,2021.2.3,59.89645084092524,
4,4,0,1,3,2,2,2,0,0,0,1,1,1,0,0,99,99,99,1,0,1,0,,,,,,,,,508.85734220035374,None,509.5972036011517,None,l,1,0.43815580010414124,509.5972036011517,None,None,None,,,,,,,7,22,male,7,2022_May_05_1535,Partial repeat,2021.2.3,59.89645084092524,
4,4,0,1,3,2,2,2,0,0,0,1,1,1,0,0,99,99,99,,,,,,,,,,,,,,,,,,,,,,,,,,,,,,7,22,male,7,2022_May_05_1535,Partial repeat,2021.2.3,59.89645084092524,
4,4,0,1,3,2,2,1,0,0,0,0,1,1,0,0,100,100,100,0,0,0,0,,,,,,,510.0508873015642,None,510.60350570082664,None,511.36697360128164,None,l,1,0.5003947000950575,511.36697360128164,None,None,None,,,,,,,7,22,male,7,2022_May_05_1535,Partial repeat,2021.2.3,59.89645084092524,
4,4,0,1,3,2,2,1,0,0,0,0,1,1,0,0,100,100,100,1,0,1,0,,,,,,,,,511.88249670155346,None,512.736341400072,None,l,1,0.3950300011783838,512.736341400072,None,None,None,,,,,,,7,22,male,7,2022_May_05_1535,Partial repeat,2021.2.3,59.89645084092524,
4,4,0,1,3,2,2,1,0,0,0,0,1,1,0,0,100,100,100,,,,,,,,,,,,,,,,,,,,,,,,,,,,,,7,22,male,7,2022_May_05_1535,Partial repeat,2021.2.3,59.89645084092524,
4,4,0,1,3,2,2,2,1,0,0,1,0,1,0,0,101,101,101,0,0,0,0,,,,,,,513.15200840123,None,513.6092763002962,None,514.5078992005438,None,s,1,0.5194660983979702,514.5078992005438,None,None,None,,,,,,,7,22,male,7,2022_May_05_1535,Partial repeat,2021.2.3,59.89645084092524,
4,4,0,1,3,2,2,2,1,0,0,1,0,1,0,0,101,101,101,1,0,1,0,,,,,,,,,515.0427101012319,None,515.9762213006616,None,l,1,0.4191455990076065,515.9762213006616,None,None,None,,,,,,,7,22,male,7,2022_May_05_1535,Partial repeat,2021.2.3,59.89645084092524,
4,4,0,1,3,2,2,2,1,0,0,1,0,1,0,0,101,101,101,,,,,,,,,,,,,,,,,,,,,,,,,,,,,,7,22,male,7,2022_May_05_1535,Partial repeat,2021.2.3,59.89645084092524,
4,4,0,1,2,2,2,2,0,0,1,1,1,1,0,0,102,102,102,0,0,0,0,,,,,,,516.4114061016589,None,516.9491784013808,None,517.8801479004323,None,l,1,0.70720100030303,517.8801479004323,None,None,None,,,,,,,7,22,male,7,2022_May_05_1535,Partial repeat,2021.2.3,59.89645084092524,
4,4,0,1,2,2,2,2,0,0,1,1,1,1,0,0,102,102,102,1,0,1,0,,,,,,,,,518.6072009000927,None,519.5328173004091,None,l,1,0.49454279989004135,519.5328173004091,None,None,None,,,,,,,7,22,male,7,2022_May_05_1535,Partial repeat,2021.2.3,59.89645084092524,
4,4,0,1,2,2,2,2,0,0,1,1,1,1,0,0,102,102,102,,,,,,,,,,,,,,,,,,,,,,,,,,,,,,7,22,male,7,2022_May_05_1535,Partial repeat,2021.2.3,59.89645084092524,
4,4,0,1,2,3,1,2,1,0,0,0,0,1,0,0,103,103,103,0,0,0,0,,,,,,,520.0510832015425,None,520.6562996003777,None,521.6539161000401,None,s,1,0.557447599247098,521.6539161000401,None,None,None,,,,,,,7,22,male,7,2022_May_05_1535,Partial repeat,2021.2.3,59.89645084092524,
4,4,0,1,2,3,1,2,1,0,0,0,0,1,0,0,103,103,103,1,0,1,0,,,,,,,,,522.2309250999242,None,522.9560906011611,None,l,1,0.5832327008247375,522.9560906011611,None,None,None,,,,,,,7,22,male,7,2022_May_05_1535,Partial repeat,2021.2.3,59.89645084092524,
4,4,0,1,2,3,1,2,1,0,0,0,0,1,0,0,103,103,103,,,,,,,,,,,,,,,,,,,,,,,,,,,,,,7,22,male,7,2022_May_05_1535,Partial repeat,2021.2.3,59.89645084092524,
4,4,0,1,2,2,1,2,1,0,1,0,0,1,0,0,104,104,104,0,0,0,0,,,,,,,523.5627987012267,None,524.0964254010469,None,525.0269464999437,None,s,1,0.6164209004491568,525.0269464999437,None,None,None,,,,,,,7,22,male,7,2022_May_05_1535,Partial repeat,2021.2.3,59.89645084092524,
4,4,0,1,2,2,1,2,1,0,1,0,0,1,0,0,104,104,104,1,0,1,0,,,,,,,,,525.6701044999063,None,526.5644452013075,None,l,1,0.4308906998485327,526.5644452013075,None,None,None,,,,,,,7,22,male,7,2022_May_05_1535,Partial repeat,2021.2.3,59.89645084092524,
4,4,0,1,2,2,1,2,1,0,1,0,0,1,0,0,104,104,104,,,,,,,,,,,,,,,,,,,,,,,,,,,,,,7,22,male,7,2022_May_05_1535,Partial repeat,2021.2.3,59.89645084092524,
4,4,0,1,3,3,1,2,1,0,1,0,0,1,0,0,105,105,105,0,0,0,0,,,,,,,527.0193814001977,None,527.4696025010198,None,528.4337895009667,None,s,1,0.48158250004053116,528.4337895009667,None,None,None,,,,,,,7,22,male,7,2022_May_05_1535,Partial repeat,2021.2.3,59.89645084092524,
4,4,0,1,3,3,1,2,1,0,1,0,0,1,0,0,105,105,105,1,0,1,0,,,,,,,,,528.9292616005987,None,529.8696987014264,None,l,1,0.661658700555563,529.8696987014264,None,None,None,,,,,,,7,22,male,7,2022_May_05_1535,Partial repeat,2021.2.3,59.89645084092524,
4,4,0,1,3,3,1,2,1,0,1,0,0,1,0,0,105,105,105,,,,,,,,,,,,,,,,,,,,,,,,,,,,,,7,22,male,7,2022_May_05_1535,Partial repeat,2021.2.3,59.89645084092524,
4,4,0,1,3,2,1,1,1,1,0,1,1,1,0,0,106,106,106,0,0,0,0,,,,,,,530.5569490008056,None,531.1100832000375,None,532.0405734013766,None,s,1,0.658747399225831,532.0405734013766,None,None,None,,,,,,,7,22,male,7,2022_May_05_1535,Partial repeat,2021.2.3,59.89645084092524,
4,4,0,1,3,2,1,1,1,1,0,1,1,1,0,0,106,106,106,1,0,1,0,,,,,,,,,532.7235416006297,None,533.7113075014204,None,s,1,0.45205239951610565,533.7113075014204,None,None,None,,,,,,,7,22,male,7,2022_May_05_1535,Partial repeat,2021.2.3,59.89645084092524,
4,4,0,1,3,2,1,1,1,1,0,1,1,1,0,0,106,106,106,,,,,,,,,,,,,,,,,,,,,,,,,,,,,,7,22,male,7,2022_May_05_1535,Partial repeat,2021.2.3,59.89645084092524,
4,4,0,1,2,2,1,1,1,1,1,1,1,1,0,0,107,107,107,0,0,0,0,,,,,,,534.1897716000676,None,534.6836891006678,None,535.4304446000606,None,s,1,0.7809943985193968,535.4304446000606,None,None,None,,,,,,,7,22,male,7,2022_May_05_1535,Partial repeat,2021.2.3,59.89645084092524,
4,4,0,1,2,2,1,1,1,1,1,1,1,1,0,0,107,107,107,1,0,1,0,,,,,,,,,536.2208255007863,None,537.0842289999127,None,s,1,0.5111932996660471,537.0842289999127,None,None,None,,,,,,,7,22,male,7,2022_May_05_1535,Partial repeat,2021.2.3,59.89645084092524,
4,4,0,1,2,2,1,1,1,1,1,1,1,1,0,0,107,107,107,,,,,,,,,,,,,,,,,,,,,,,,,,,,,,7,22,male,7,2022_May_05_1535,Partial repeat,2021.2.3,59.89645084092524,
4,4,0,1,3,3,2,1,1,0,1,0,0,1,0,0,108,108,108,0,0,0,0,,,,,,,537.6066865008324,None,538.0735503006727,None,538.9205756001174,None,s,1,0.5547844003885984,538.9205756001174,None,None,None,,,,,,,7,22,male,7,2022_May_05_1535,Partial repeat,2021.2.3,59.89645084092524,
4,4,0,1,3,3,2,1,1,0,1,0,0,1,0,0,108,108,108,1,0,1,0,,,,,,,,,539.5004744008183,None,540.507900301367,None,l,1,0.5034587010741234,540.507900301367,None,None,None,,,,,,,7,22,male,7,2022_May_05_1535,Partial repeat,2021.2.3,59.89645084092524,
4,4,0,1,3,3,2,1,1,0,1,0,0,1,0,0,108,108,108,,,,,,,,,,,,,,,,,,,,,,,,,,,,,,7,22,male,7,2022_May_05_1535,Partial repeat,2021.2.3,59.89645084092524,
4,4,0,1,2,2,2,1,1,0,1,0,0,1,0,0,109,109,109,0,0,0,0,,,,,,,541.030003901571,None,541.4969447012991,None,542.260886201635,None,s,1,0.6624723002314568,542.260886201635,None,None,None,,,,,,,7,22,male,7,2022_May_05_1535,Partial repeat,2021.2.3,59.89645084092524,
4,4,0,1,2,2,2,1,1,0,1,0,0,1,0,0,109,109,109,1,0,1,0,,,,,,,,,542.9489426016808,None,543.964025400579,None,l,1,0.527334600687027,543.964025400579,None,None,None,,,,,,,7,22,male,7,2022_May_05_1535,Partial repeat,2021.2.3,59.89645084092524,
4,4,0,1,2,2,2,1,1,0,1,0,0,1,0,0,109,109,109,,,,,,,,,,,,,,,,,,,,,,,,,,,,,,7,22,male,7,2022_May_05_1535,Partial repeat,2021.2.3,59.89645084092524,
4,4,0,1,3,2,1,1,1,0,0,1,0,1,0,0,110,110,110,0,0,0,0,,,,,,,544.5066837016493,None,544.9870788007975,None,545.8009887002409,None,s,1,0.44234810024499893,545.8009887002409,None,None,None,,,,,,,7,22,male,7,2022_May_05_1535,Partial repeat,2021.2.3,59.89645084092524,
4,4,0,1,3,2,1,1,1,0,0,1,0,1,0,0,110,110,110,1,0,1,0,,,,,,,,,546.251730600372,None,547.0197942014784,None,l,1,0.4795677997171879,547.0197942014784,None,None,None,,,,,,,7,22,male,7,2022_May_05_1535,Partial repeat,2021.2.3,59.89645084092524,
4,4,0,1,3,2,1,1,1,0,0,1,0,1,0,0,110,110,110,,,,,,,,,,,,,,,,,,,,,,,,,,,,,,7,22,male,7,2022_May_05_1535,Partial repeat,2021.2.3,59.89645084092524,
4,4,0,1,2,2,2,2,1,0,1,1,0,1,0,0,111,111,111,0,0,0,0,,,,,,,547.5164283011109,None,548.1265294011682,None,548.9071579016745,None,s,1,0.4562050998210907,548.9071579016745,None,None,None,,,,,,,7,22,male,7,2022_May_05_1535,Partial repeat,2021.2.3,59.89645084092524,
4,4,0,1,2,2,2,2,1,0,1,1,0,1,0,0,111,111,111,1,0,1,0,,,,,,,,,549.3799662012607,None,550.3263028003275,None,l,1,0.6210952997207642,550.3263028003275,None,None,None,,,,,,,7,22,male,7,2022_May_05_1535,Partial repeat,2021.2.3,59.89645084092524,
4,4,0,1,2,2,2,2,1,0,1,1,0,1,0,0,111,111,111,,,,,,,,,,,,,,,,,,,,,,,,,,,,,,7,22,male,7,2022_May_05_1535,Partial repeat,2021.2.3,59.89645084092524,
4,4,0,1,3,3,1,2,0,1,1,0,0,1,0,0,112,112,112,0,0,0,0,,,,,,,550.9577194005251,None,551.4663543011993,None,552.2473169006407,None,l,1,0.540013499557972,552.2473169006407,None,None,None,,,,,,,7,22,male,7,2022_May_05_1535,Partial repeat,2021.2.3,59.89645084092524,
4,4,0,1,3,3,1,2,0,1,1,0,0,1,0,0,112,112,112,1,0,1,0,,,,,,,,,552.8035863004625,None,553.5664926003665,None,l,0,0.6128391996026039,553.5664926003665,None,554.2070585004985,None,,,,,,,7,22,male,7,2022_May_05_1535,Partial repeat,2021.2.3,59.89645084092524,
4,4,0,1,3,3,1,2,0,1,1,0,0,1,0,0,112,112,112,,,,,,,,,,,,,,,,,,,,,,,,,,,,,,7,22,male,7,2022_May_05_1535,Partial repeat,2021.2.3,59.89645084092524,
4,4,0,1,3,2,1,2,0,1,0,0,0,1,0,0,113,113,113,0,0,0,0,,,,,,,554.722733899951,None,555.474081300199,None,556.4548973012716,None,l,1,0.8044630009680986,556.4548973012716,None,None,None,,,,,,,7,22,male,7,2022_May_05_1535,Partial repeat,2021.2.3,59.89645084092524,
4,4,0,1,3,2,1,2,0,1,0,0,0,1,0,0,113,113,113,1,0,1,0,,,,,,,,,557.2836316004395,None,558.2250613998622,None,s,1,0.5543409008532763,558.2250613998622,None,None,None,,,,,,,7,22,male,7,2022_May_05_1535,Partial repeat,2021.2.3,59.89645084092524,
4,4,0,1,3,2,1,2,0,1,0,0,0,1,0,0,113,113,113,,,,,,,,,,,,,,,,,,,,,,,,,,,,,,7,22,male,7,2022_May_05_1535,Partial repeat,2021.2.3,59.89645084092524,
4,4,0,1,2,2,2,1,1,1,1,0,1,1,0,0,114,114,114,0,0,0,0,,,,,,,558.8088816013187,None,559.2481626011431,None,560.2120930999517,None,s,1,0.5752523001283407,560.2120930999517,None,None,None,,,,,,,7,22,male,7,2022_May_05_1535,Partial repeat,2021.2.3,59.89645084092524,
4,4,0,1,2,2,2,1,1,1,1,0,1,1,0,0,114,114,114,1,0,1,0,,,,,,,,,560.8110807016492,None,561.6991547010839,None,s,1,0.46419830061495304,561.6991547010839,None,None,None,,,,,,,7,22,male,7,2022_May_05_1535,Partial repeat,2021.2.3,59.89645084092524,
4,4,0,1,2,2,2,1,1,1,1,0,1,1,0,0,114,114,114,,,,,,,,,,,,,,,,,,,,,,,,,,,,,,7,22,male,7,2022_May_05_1535,Partial repeat,2021.2.3,59.89645084092524,
4,4,0,1,3,3,1,1,0,0,1,1,1,1,0,0,115,115,115,0,0,0,0,,,,,,,562.1789737008512,None,562.6715182010084,None,563.4352194014937,None,l,1,0.6561759989708662,563.4352194014937,None,None,None,,,,,,,7,22,male,7,2022_May_05_1535,Partial repeat,2021.2.3,59.89645084092524,
4,4,0,1,3,3,1,1,0,0,1,1,1,1,0,0,115,115,115,1,0,1,0,,,,,,,,,564.1008940003812,None,564.9713487010449,None,l,1,0.48800800181925297,564.9713487010449,None,None,None,,,,,,,7,22,male,7,2022_May_05_1535,Partial repeat,2021.2.3,59.89645084092524,
4,4,0,1,3,3,1,1,0,0,1,1,1,1,0,0,115,115,115,,,,,,,,,,,,,,,,,,,,,,,,,,,,,,7,22,male,7,2022_May_05_1535,Partial repeat,2021.2.3,59.89645084092524,
4,4,0,1,2,2,2,1,0,1,1,0,0,1,0,0,116,116,116,0,0,0,0,,,,,,,565.4876981005073,None,565.9612560998648,None,566.8917121011764,None,l,1,1.055647898465395,566.8917121011764,None,None,None,,,,,,,7,22,male,7,2022_May_05_1535,Partial repeat,2021.2.3,59.89645084092524,
4,4,0,1,2,2,2,1,0,1,1,0,0,1,0,0,116,116,116,1,0,1,0,,,,,,,,,567.9593052007258,None,568.7623109016567,None,s,1,0.657031899318099,568.7623109016567,None,None,None,,,,,,,7,22,male,7,2022_May_05_1535,Partial repeat,2021.2.3,59.89645084092524,
4,4,0,1,2,2,2,1,0,1,1,0,0,1,0,0,116,116,116,,,,,,,,,,,,,,,,,,,,,,,,,,,,,,7,22,male,7,2022_May_05_1535,Partial repeat,2021.2.3,59.89645084092524,
4,4,0,1,2,3,1,2,0,0,0,0,1,1,0,0,117,117,117,0,0,0,0,,,,,,,569.4477377012372,None,570.1693537011743,None,571.0498273000121,None,l,1,0.8255795985460281,571.0498273000121,None,None,None,,,,,,,7,22,male,7,2022_May_05_1535,Partial repeat,2021.2.3,59.89645084092524,
4,4,0,1,2,3,1,2,0,0,0,0,1,1,0,0,117,117,117,1,0,1,0,,,,,,,,,571.8845253009349,None,572.853248000145,None,l,1,0.7260746993124485,572.853248000145,None,None,None,,,,,,,7,22,male,7,2022_May_05_1535,Partial repeat,2021.2.3,59.89645084092524,
4,4,0,1,2,3,1,2,0,0,0,0,1,1,0,0,117,117,117,,,,,,,,,,,,,,,,,,,,,,,,,,,,,,7,22,male,7,2022_May_05_1535,Partial repeat,2021.2.3,59.89645084092524,
4,4,0,1,2,2,1,2,0,1,1,0,0,1,0,0,118,118,118,0,0,0,0,,,,,,,573.6037250012159,None,574.4109848011285,None,575.3332113008946,None,l,1,0.5740975011140108,575.3332113008946,None,None,None,,,,,,,7,22,male,7,2022_May_05_1535,Partial repeat,2021.2.3,59.89645084092524,
4,4,0,1,2,2,1,2,0,1,1,0,0,1,0,0,118,118,118,1,0,1,0,,,,,,,,,575.9352870006114,None,576.6774401012808,None,s,1,0.7179217003285885,576.6774401012808,None,None,None,,,,,,,7,22,male,7,2022_May_05_1535,Partial repeat,2021.2.3,59.89645084092524,
4,4,0,1,2,2,1,2,0,1,1,0,0,1,0,0,118,118,118,,,,,,,,,,,,,,,,,,,,,,,,,,,,,,7,22,male,7,2022_May_05_1535,Partial repeat,2021.2.3,59.89645084092524,
4,4,0,1,2,2,1,2,0,0,1,0,1,1,0,0,119,119,119,0,0,0,0,,,,,,,577.4115056004375,None,577.8343045003712,None,578.7315974999219,None,l,1,0.6718539986759424,578.7315974999219,None,None,None,,,,,,,7,22,male,7,2022_May_05_1535,Partial repeat,2021.2.3,59.89645084092524,
4,4,0,1,2,2,1,2,0,0,1,0,1,1,0,0,119,119,119,1,0,1,0,,,,,,,,,579.4132697004825,None,580.1511056013405,None,l,1,0.45225160010159016,580.1511056013405,None,None,None,,,,,,,7,22,male,7,2022_May_05_1535,Partial repeat,2021.2.3,59.89645084092524,
4,4,0,1,2,2,1,2,0,0,1,0,1,1,0,0,119,119,119,,,,,,,,,,,,,,,,,,,,,,,,,,,,,,7,22,male,7,2022_May_05_1535,Partial repeat,2021.2.3,59.89645084092524,
4,4,0,1,3,3,2,2,1,1,1,1,1,1,0,0,120,120,120,0,0,0,0,,,,,,,580.6290653012693,None,581.0572217013687,None,581.8880164008588,None,s,1,0.5713372007012367,581.8880164008588,None,None,None,,,,,,,7,22,male,7,2022_May_05_1535,Partial repeat,2021.2.3,59.89645084092524,
4,4,0,1,3,3,2,2,1,1,1,1,1,1,0,0,120,120,120,1,0,1,0,,,,,,,,,582.4835723005235,None,583.2067713998258,None,s,1,0.4526387006044388,583.2067713998258,None,None,None,,,,,,,7,22,male,7,2022_May_05_1535,Partial repeat,2021.2.3,59.89645084092524,
4,4,0,1,3,3,2,2,1,1,1,1,1,1,0,0,120,120,120,,,,,,,,,,,,,,,,,,,,,,,,,,,,,,7,22,male,7,2022_May_05_1535,Partial repeat,2021.2.3,59.89645084092524,
4,4,0,1,2,3,1,1,1,0,0,1,0,1,0,0,121,121,121,0,0,0,0,,,,,,,583.6878545004874,None,584.0630607008934,None,584.9102009013295,None,s,1,0.6291609983891249,584.9102009013295,None,None,None,,,,,,,7,22,male,7,2022_May_05_1535,Partial repeat,2021.2.3,59.89645084092524,
4,4,0,1,2,3,1,1,1,0,0,1,0,1,0,0,121,121,121,1,0,1,0,,,,,,,,,585.5551114007831,None,586.4299596007913,None,l,1,0.5334256011992693,586.4299596007913,None,None,None,,,,,,,7,22,male,7,2022_May_05_1535,Partial repeat,2021.2.3,59.89645084092524,
4,4,0,1,2,3,1,1,1,0,0,1,0,1,0,0,121,121,121,,,,,,,,,,,,,,,,,,,,,,,,,,,,,,7,22,male,7,2022_May_05_1535,Partial repeat,2021.2.3,59.89645084092524,
4,4,0,1,2,2,1,2,1,1,1,0,1,1,0,0,122,122,122,0,0,0,0,,,,,,,586.9946769010276,None,587.4529951009899,None,588.2669636011124,None,s,1,0.4963899999856949,588.2669636011124,None,None,None,,,,,,,7,22,male,7,2022_May_05_1535,Partial repeat,2021.2.3,59.89645084092524,
4,4,0,1,2,2,1,2,1,1,1,0,1,1,0,0,122,122,122,1,0,1,0,,,,,,,,,588.7775773014873,None,589.7862264011055,None,s,1,0.5770950000733137,589.7862264011055,None,None,None,,,,,,,7,22,male,7,2022_May_05_1535,Partial repeat,2021.2.3,59.89645084092524,
4,4,0,1,2,2,1,2,1,1,1,0,1,1,0,0,122,122,122,,,,,,,,,,,,,,,,,,,,,,,,,,,,,,7,22,male,7,2022_May_05_1535,Partial repeat,2021.2.3,59.89645084092524,
4,4,0,1,2,3,2,1,0,1,0,0,0,1,0,0,123,123,123,0,0,0,0,,,,,,,590.3917591013014,None,590.8095777016133,None,591.7233151011169,None,l,1,0.5680760014802217,591.7233151011169,None,None,None,,,,,,,7,22,male,7,2022_May_05_1535,Partial repeat,2021.2.3,59.89645084092524,
4,4,0,1,2,3,2,1,0,1,0,0,0,1,0,0,123,123,123,1,0,1,0,,,,,,,,,592.2998780999333,None,593.2950477004051,None,s,1,0.5163912996649742,593.2950477004051,None,None,None,,,,,,,7,22,male,7,2022_May_05_1535,Partial repeat,2021.2.3,59.89645084092524,
4,4,0,1,2,3,2,1,0,1,0,0,0,1,0,0,123,123,123,,,,,,,,,,,,,,,,,,,,,,,,,,,,,,7,22,male,7,2022_May_05_1535,Partial repeat,2021.2.3,59.89645084092524,
4,4,0,1,3,3,1,1,1,1,1,1,1,1,0,0,124,124,124,0,0,0,0,,,,,,,593.8245894014835,None,594.2162013016641,None,595.1304320003837,None,s,1,0.520923301577568,595.1304320003837,None,None,None,,,,,,,7,22,male,7,2022_May_05_1535,Partial repeat,2021.2.3,59.89645084092524,
4,4,0,1,3,3,1,1,1,1,1,1,1,1,0,0,124,124,124,1,0,1,0,,,,,,,,,595.6633934006095,None,596.4327651001513,None,s,1,0.7066191006451845,596.4327651001513,None,None,None,,,,,,,7,22,male,7,2022_May_05_1535,Partial repeat,2021.2.3,59.89645084092524,
4,4,0,1,3,3,1,1,1,1,1,1,1,1,0,0,124,124,124,,,,,,,,,,,,,,,,,,,,,,,,,,,,,,7,22,male,7,2022_May_05_1535,Partial repeat,2021.2.3,59.89645084092524,
4,4,0,1,2,3,2,2,0,0,0,1,1,1,0,0,125,125,125,0,0,0,0,,,,,,,597.1618356015533,None,597.9066695999354,None,598.8706577010453,None,l,1,0.6766943987458944,598.8706577010453,None,None,None,,,,,,,7,22,male,7,2022_May_05_1535,Partial repeat,2021.2.3,59.89645084092524,
4,4,0,1,2,3,2,2,0,0,0,1,1,1,0,0,125,125,125,1,0,1,0,,,,,,,,,599.5737377014011,None,600.3735461998731,None,l,1,0.5338047984987497,600.3735461998731,None,None,None,,,,,,,7,22,male,7,2022_May_05_1535,Partial repeat,2021.2.3,59.89645084092524,
4,4,0,1,2,3,2,2,0,0,0,1,1,1,0,0,125,125,125,,,,,,,,,,,,,,,,,,,,,,,,,,,,,,7,22,male,7,2022_May_05_1535,Partial repeat,2021.2.3,59.89645084092524,
4,4,0,1,2,3,1,1,0,1,0,1,0,1,0,0,126,126,126,0,0,0,0,,,,,,,600.9342046007514,None,601.3633735012263,None,602.3774444013834,None,l,1,0.5539503991603851,602.3774444013834,None,None,None,,,,,,,7,22,male,7,2022_May_05_1535,Partial repeat,2021.2.3,59.89645084092524,
4,4,0,1,2,3,1,1,0,1,0,1,0,1,0,0,126,126,126,1,0,1,0,,,,,,,,,602.9596675001085,None,603.8974817004055,None,s,1,0.4899065997451544,603.8974817004055,None,None,None,,,,,,,7,22,male,7,2022_May_05_1535,Partial repeat,2021.2.3,59.89645084092524,
4,4,0,1,2,3,1,1,0,1,0,1,0,1,0,0,126,126,126,,,,,,,,,,,,,,,,,,,,,,,,,,,,,,7,22,male,7,2022_May_05_1535,Partial repeat,2021.2.3,59.89645084092524,
4,4,0,1,2,2,2,1,0,0,1,0,1,1,0,0,127,127,127,0,0,0,0,,,,,,,604.3977858014405,None,604.8534853998572,None,605.5670340005308,None,l,1,0.7003409992903471,605.5670340005308,None,None,None,,,,,,,7,22,male,7,2022_May_05_1535,Partial repeat,2021.2.3,59.89645084092524,
4,4,0,1,2,2,2,1,0,0,1,0,1,1,0,0,127,127,127,1,0,1,0,,,,,,,,,606.2940969001502,None,607.171069201082,None,l,1,0.544294498860836,607.171069201082,None,None,None,,,,,,,7,22,male,7,2022_May_05_1535,Partial repeat,2021.2.3,59.89645084092524,
4,4,0,1,2,2,2,1,0,0,1,0,1,1,0,0,127,127,127,,,,,,,,,,,,,,,,,,,,,,,,,,,,,,7,22,male,7,2022_May_05_1535,Partial repeat,2021.2.3,59.89645084092524,
4,7,0,1,2,2,1,2,1,1,1,0,1,0,0,0,128,128,128,0,0,0,0,,,,,,,612.2827717009932,None,613.4033458009362,None,614.2350689005107,None,s,1,0.6882802993059158,614.2350689005107,None,None,None,,,,,,,7,22,male,7,2022_May_05_1535,Partial repeat,2021.2.3,59.89645084092524,
4,7,0,1,2,2,1,2,1,1,1,0,1,0,0,0,128,128,128,1,0,1,0,,,,,,,,,614.9491275008768,None,615.8035709001124,None,s,1,0.7517940010875463,615.8035709001124,None,None,None,,,,,,,7,22,male,7,2022_May_05_1535,Partial repeat,2021.2.3,59.89645084092524,
4,7,0,1,2,2,1,2,1,1,1,0,1,0,0,0,128,128,128,,,,,,,,,,,,,,,,,,,,,,,,,,,,,,7,22,male,7,2022_May_05_1535,Partial repeat,2021.2.3,59.89645084092524,
2,4,0,1,2,2,2,2,1,1,1,1,1,0,0,0,129,129,129,0,0,0,0,,,,,,,616.574659300968,None,617.1775406002998,None,618.0259675011039,None,l,0,0.6573952995240688,618.0259675011039,None,618.7066507004201,None,,,,,,,7,22,male,7,2022_May_05_1535,Partial repeat,2021.2.3,59.89645084092524,
2,4,0,1,2,2,2,2,1,1,1,1,1,0,0,0,129,129,129,1,0,1,0,,,,,,,,,619.2148471008986,None,619.961617000401,None,s,1,0.49774800054728985,619.961617000401,None,None,None,,,,,,,7,22,male,7,2022_May_05_1535,Partial repeat,2021.2.3,59.89645084092524,
2,4,0,1,2,2,2,2,1,1,1,1,1,0,0,0,129,129,129,,,,,,,,,,,,,,,,,,,,,,,,,,,,,,7,22,male,7,2022_May_05_1535,Partial repeat,2021.2.3,59.89645084092524,
7,8,0,1,2,2,1,2,0,0,1,0,1,0,0,0,130,130,130,0,0,0,0,,,,,,,620.4837022013962,None,621.1018377002329,None,621.9991644006222,None,l,1,0.6441947985440493,621.9991644006222,None,None,None,,,,,,,7,22,male,7,2022_May_05_1535,Partial repeat,2021.2.3,59.89645084092524,
7,8,0,1,2,2,1,2,0,0,1,0,1,0,0,0,130,130,130,1,0,1,0,,,,,,,,,622.6622218005359,None,623.6355454009026,None,s,0,0.5278897006064653,623.6355454009026,None,624.1746615003794,None,,,,,,,7,22,male,7,2022_May_05_1535,Partial repeat,2021.2.3,59.89645084092524,
7,8,0,1,2,2,1,2,0,0,1,0,1,0,0,0,130,130,130,,,,,,,,,,,,,,,,,,,,,,,,,,,,,,7,22,male,7,2022_May_05_1535,Partial repeat,2021.2.3,59.89645084092524,
7,6,0,1,3,2,2,2,1,0,0,1,0,0,0,0,131,131,131,0,0,0,0,,,,,,,624.6754467003047,None,625.1763741001487,None,626.190758600831,None,s,1,0.6205922998487949,626.190758600831,None,None,None,,,,,,,7,22,male,7,2022_May_05_1535,Partial repeat,2021.2.3,59.89645084092524,
7,6,0,1,3,2,2,2,1,0,0,1,0,0,0,0,131,131,131,1,0,1,0,,,,,,,,,626.8326584007591,None,627.6265189014375,None,l,1,0.6488331016153097,627.6265189014375,None,None,None,,,,,,,7,22,male,7,2022_May_05_1535,Partial repeat,2021.2.3,59.89645084092524,
7,6,0,1,3,2,2,2,1,0,0,1,0,0,0,0,131,131,131,,,,,,,,,,,,,,,,,,,,,,,,,,,,,,7,22,male,7,2022_May_05_1535,Partial repeat,2021.2.3,59.89645084092524,
3,1,0,1,3,2,2,1,0,1,0,0,0,0,0,0,132,132,132,0,0,0,0,,,,,,,628.2968108002096,None,629.1341329012066,None,630.1317121013999,None,l,1,0.7516369000077248,630.1317121013999,None,None,None,,,,,,,7,22,male,7,2022_May_05_1535,Partial repeat,2021.2.3,59.89645084092524,
3,1,0,1,3,2,2,1,0,1,0,0,0,0,0,0,132,132,132,1,0,1,0,,,,,,,,,630.8964193016291,None,631.6844159010798,None,s,1,0.6229249015450478,631.6844159010798,None,None,None,,,,,,,7,22,male,7,2022_May_05_1535,Partial repeat,2021.2.3,59.89645084092524,
3,1,0,1,3,2,2,1,0,1,0,0,0,0,0,0,132,132,132,,,,,,,,,,,,,,,,,,,,,,,,,,,,,,7,22,male,7,2022_May_05_1535,Partial repeat,2021.2.3,59.89645084092524,
5,2,0,1,3,2,1,2,1,1,0,0,1,0,0,0,133,133,133,0,0,0,0,,,,,,,632.3302145004272,None,633.0417469013482,None,633.9723984003067,None,s,1,0.8709160014986992,633.9723984003067,None,None,None,,,,,,,7,22,male,7,2022_May_05_1535,Partial repeat,2021.2.3,59.89645084092524,
5,2,0,1,3,2,1,2,1,1,0,0,1,0,0,0,133,133,133,1,0,1,0,,,,,,,,,634.8680048007518,None,635.7258867006749,None,s,1,0.8454391993582249,635.7258867006749,None,None,None,,,,,,,7,22,male,7,2022_May_05_1535,Partial repeat,2021.2.3,59.89645084092524,
5,2,0,1,3,2,1,2,1,1,0,0,1,0,0,0,133,133,133,,,,,,,,,,,,,,,,,,,,,,,,,,,,,,7,22,male,7,2022_May_05_1535,Partial repeat,2021.2.3,59.89645084092524,
5,7,0,1,2,2,2,2,0,0,1,1,1,0,0,0,134,134,134,0,0,0,0,,,,,,,636.602367900312,None,637.0996179003268,None,638.0637363009155,None,l,1,0.5956165008246899,638.0637363009155,None,None,None,,,,,,,7,22,male,7,2022_May_05_1535,Partial repeat,2021.2.3,59.89645084092524,
5,7,0,1,2,2,2,2,0,0,1,1,1,0,0,0,134,134,134,1,0,1,0,,,,,,,,,638.6853449009359,None,639.4996096007526,None,l,1,0.5997432991862297,639.4996096007526,None,None,None,,,,,,,7,22,male,7,2022_May_05_1535,Partial repeat,2021.2.3,59.89645084092524,
5,7,0,1,2,2,2,2,0,0,1,1,1,0,0,0,134,134,134,,,,,,,,,,,,,,,,,,,,,,,,,,,,,,7,22,male,7,2022_May_05_1535,Partial repeat,2021.2.3,59.89645084092524,
5,6,0,1,3,2,1,2,0,0,0,0,1,0,0,0,135,135,135,0,0,0,0,,,,,,,640.1245852001011,None,640.5897681005299,None,641.5706198010594,None,l,1,0.5287916995584965,641.5706198010594,None,None,None,,,,,,,7,22,male,7,2022_May_05_1535,Partial repeat,2021.2.3,59.89645084092524,
5,6,0,1,3,2,1,2,0,0,0,0,1,0,0,0,135,135,135,1,0,1,0,,,,,,,,,642.1104537006468,None,643.1066169012338,None,l,1,0.5606718994677067,643.1066169012338,None,None,None,,,,,,,7,22,male,7,2022_May_05_1535,Partial repeat,2021.2.3,59.89645084092524,
5,6,0,1,3,2,1,2,0,0,0,0,1,0,0,0,135,135,135,,,,,,,,,,,,,,,,,,,,,,,,,,,,,,7,22,male,7,2022_May_05_1535,Partial repeat,2021.2.3,59.89645084092524,
5,3,0,1,2,2,1,1,0,1,1,1,0,0,0,0,136,136,136,0,0,0,0,,,,,,,643.6911642011255,None,644.1967545002699,None,645.1609029006213,None,l,1,0.6105170007795095,645.1609029006213,None,None,None,,,,,,,7,22,male,7,2022_May_05_1535,Partial repeat,2021.2.3,59.89645084092524,
5,3,0,1,2,2,1,1,0,1,1,1,0,0,0,0,136,136,136,1,0,1,0,,,,,,,,,645.7831099014729,None,646.6472442001104,None,s,1,0.5640740003436804,646.6472442001104,None,None,None,,,,,,,7,22,male,7,2022_May_05_1535,Partial repeat,2021.2.3,59.89645084092524,
5,3,0,1,2,2,1,1,0,1,1,1,0,0,0,0,136,136,136,,,,,,,,,,,,,,,,,,,,,,,,,,,,,,7,22,male,7,2022_May_05_1535,Partial repeat,2021.2.3,59.89645084092524,
1,6,0,1,3,3,2,2,1,0,1,1,0,0,0,0,137,137,137,0,0,0,0,,,,,,,647.2279268000275,None,648.5051591005176,None,649.5025482010096,None,s,1,0.6528683993965387,649.5025482010096,None,None,None,,,,,,,7,22,male,7,2022_May_05_1535,Partial repeat,2021.2.3,59.89645084092524,
1,6,0,1,3,3,2,2,1,0,1,1,0,0,0,0,137,137,137,1,0,1,0,,,,,,,,,650.1657099016011,None,651.1723543014377,None,l,1,0.606997100636363,651.1723543014377,None,None,None,,,,,,,7,22,male,7,2022_May_05_1535,Partial repeat,2021.2.3,59.89645084092524,
1,6,0,1,3,3,2,2,1,0,1,1,0,0,0,0,137,137,137,,,,,,,,,,,,,,,,,,,,,,,,,,,,,,7,22,male,7,2022_May_05_1535,Partial repeat,2021.2.3,59.89645084092524,
7,1,0,1,3,2,2,1,0,0,0,0,1,0,0,0,138,138,138,0,0,0,0,,,,,,,651.7943257000297,None,652.2624706998467,None,653.0426636002958,None,l,1,0.5526526011526585,653.0426636002958,None,None,None,,,,,,,7,22,male,7,2022_May_05_1535,Partial repeat,2021.2.3,59.89645084092524,
7,1,0,1,3,2,2,1,0,0,0,0,1,0,0,0,138,138,138,1,0,1,0,,,,,,,,,653.6239972002804,None,654.4620810002089,None,l,1,0.5492677986621857,654.4620810002089,None,None,None,,,,,,,7,22,male,7,2022_May_05_1535,Partial repeat,2021.2.3,59.89645084092524,
7,1,0,1,3,2,2,1,0,0,0,0,1,0,0,0,138,138,138,,,,,,,,,,,,,,,,,,,,,,,,,,,,,,7,22,male,7,2022_May_05_1535,Partial repeat,2021.2.3,59.89645084092524,
3,5,0,1,3,3,1,1,1,1,1,1,1,0,0,0,139,139,139,0,0,0,0,,,,,,,655.025770701468,None,655.4853700008243,None,656.2825261000544,None,s,1,0.7048304993659258,656.2825261000544,None,None,None,,,,,,,7,22,male,7,2022_May_05_1535,Partial repeat,2021.2.3,59.89645084092524,
3,5,0,1,3,3,1,1,1,1,1,1,1,0,0,0,139,139,139,1,0,1,0,,,,,,,,,656.9956195000559,None,657.8686963003129,None,s,1,0.7187501005828381,657.8686963003129,None,None,None,,,,,,,7,22,male,7,2022_May_05_1535,Partial repeat,2021.2.3,59.89645084092524,
3,5,0,1,3,3,1,1,1,1,1,1,1,0,0,0,139,139,139,,,,,,,,,,,,,,,,,,,,,,,,,,,,,,7,22,male,7,2022_May_05_1535,Partial repeat,2021.2.3,59.89645084092524,
4,3,0,1,3,3,2,2,0,0,1,1,1,0,0,0,140,140,140,0,0,0,0,,,,,,,658.6007138006389,None,659.008912101388,None,659.9395560007542,None,l,1,0.7597790006548166,659.9395560007542,None,None,None,,,,,,,7,22,male,7,2022_May_05_1535,Partial repeat,2021.2.3,59.89645084092524,
4,3,0,1,3,3,2,2,0,0,1,1,1,0,0,0,140,140,140,1,0,1,0,,,,,,,,,660.7086164001375,None,661.5261224005371,None,l,1,0.6612232998013496,661.5261224005371,None,None,None,,,,,,,7,22,male,7,2022_May_05_1535,Partial repeat,2021.2.3,59.89645084092524,
4,3,0,1,3,3,2,2,0,0,1,1,1,0,0,0,140,140,140,,,,,,,,,,,,,,,,,,,,,,,,,,,,,,7,22,male,7,2022_May_05_1535,Partial repeat,2021.2.3,59.89645084092524,
1,5,0,1,3,2,2,1,1,0,0,0,0,0,0,0,141,141,141,0,0,0,0,,,,,,,662.2161998003721,None,662.6493184007704,None,663.5635794010013,None,s,1,0.5517695993185043,663.5635794010013,None,None,None,,,,,,,7,22,male,7,2022_May_05_1535,Partial repeat,2021.2.3,59.89645084092524,
1,5,0,1,3,2,2,1,1,0,0,0,0,0,0,0,141,141,141,1,0,1,0,,,,,,,,,664.1411267016083,None,664.8995967004448,None,l,1,0.5997553002089262,664.8995967004448,None,None,None,,,,,,,7,22,male,7,2022_May_05_1535,Partial repeat,2021.2.3,59.89645084092524,
1,5,0,1,3,2,2,1,1,0,0,0,0,0,0,0,141,141,141,,,,,,,,,,,,,,,,,,,,,,,,,,,,,,7,22,male,7,2022_May_05_1535,Partial repeat,2021.2.3,59.89645084092524,
6,4,0,1,3,2,1,1,1,1,0,1,1,0,0,0,142,142,142,0,0,0,0,,,,,,,665.5274510011077,None,665.9557403009385,None,666.7693661004305,None,s,1,0.8179831001907587,666.7693661004305,None,None,None,,,,,,,7,22,male,7,2022_May_05_1535,Partial repeat,2021.2.3,59.89645084092524,
6,4,0,1,3,2,1,1,1,1,0,1,1,0,0,0,142,142,142,1,0,1,0,,,,,,,,,667.6009554006159,None,668.4394873008132,None,s,1,0.603889798745513,668.4394873008132,None,None,None,,,,,,,7,22,male,7,2022_May_05_1535,Partial repeat,2021.2.3,59.89645084092524,
6,4,0,1,3,2,1,1,1,1,0,1,1,0,0,0,142,142,142,,,,,,,,,,,,,,,,,,,,,,,,,,,,,,7,22,male,7,2022_May_05_1535,Partial repeat,2021.2.3,59.89645084092524,
3,7,0,1,2,2,1,1,1,0,1,1,0,0,0,0,143,143,143,0,0,0,0,,,,,,,669.0662118010223,None,669.5126224011183,None,670.4434475004673,None,s,1,0.7438968010246754,670.4434475004673,None,None,None,,,,,,,7,22,male,7,2022_May_05_1535,Partial repeat,2021.2.3,59.89645084092524,
3,7,0,1,2,2,1,1,1,0,1,1,0,0,0,0,143,143,143,1,0,1,0,,,,,,,,,671.2126444000751,None,672.0632812008262,None,l,1,0.5800545997917652,672.0632812008262,None,None,None,,,,,,,7,22,male,7,2022_May_05_1535,Partial repeat,2021.2.3,59.89645084092524,
3,7,0,1,2,2,1,1,1,0,1,1,0,0,0,0,143,143,143,,,,,,,,,,,,,,,,,,,,,,,,,,,,,,7,22,male,7,2022_May_05_1535,Partial repeat,2021.2.3,59.89645084092524,
3,4,0,1,2,2,2,2,1,0,1,1,0,0,0,0,144,144,144,0,0,0,0,,,,,,,672.6658578012139,None,673.1030170004815,None,673.833338400349,None,s,1,0.5860065016895533,673.833338400349,None,None,None,,,,,,,7,22,male,7,2022_May_05_1535,Partial repeat,2021.2.3,59.89645084092524,
3,4,0,1,2,2,2,2,1,0,1,1,0,0,0,0,144,144,144,1,0,1,0,,,,,,,,,674.4337150007486,None,675.3360497001559,None,l,1,0.6193000003695488,675.3360497001559,None,None,None,,,,,,,7,22,male,7,2022_May_05_1535,Partial repeat,2021.2.3,59.89645084092524,
3,4,0,1,2,2,2,2,1,0,1,1,0,0,0,0,144,144,144,,,,,,,,,,,,,,,,,,,,,,,,,,,,,,7,22,male,7,2022_May_05_1535,Partial repeat,2021.2.3,59.89645084092524,
3,2,0,1,3,3,2,1,0,1,1,0,0,0,0,0,145,145,145,0,0,0,0,,,,,,,675.9841534998268,None,676.4094275012612,None,677.3732604999095,None,l,1,0.9821649994701147,677.3732604999095,None,None,None,,,,,,,7,22,male,7,2022_May_05_1535,Partial repeat,2021.2.3,59.89645084092524,
3,2,0,1,3,3,2,1,0,1,1,0,0,0,0,0,145,145,145,1,0,1,0,,,,,,,,,678.3660972006619,None,679.093812700361,None,l,0,0.5335702002048492,679.093812700361,None,679.6542148012668,None,,,,,,,7,22,male,7,2022_May_05_1535,Partial repeat,2021.2.3,59.89645084092524,
3,2,0,1,3,3,2,1,0,1,1,0,0,0,0,0,145,145,145,,,,,,,,,,,,,,,,,,,,,,,,,,,,,,7,22,male,7,2022_May_05_1535,Partial repeat,2021.2.3,59.89645084092524,
8,6,0,1,3,3,2,1,0,0,1,0,1,0,0,0,146,146,146,0,0,0,0,,,,,,,680.1668161004782,None,680.818037699908,None,681.648374600336,None,l,1,0.6110282000154257,681.648374600336,None,None,None,,,,,,,7,22,male,7,2022_May_05_1535,Partial repeat,2021.2.3,59.89645084092524,
8,6,0,1,3,3,2,1,0,0,1,0,1,0,0,0,146,146,146,1,0,1,0,,,,,,,,,682.268268501386,None,683.0843981001526,None,l,1,0.5509980004280806,683.0843981001526,None,None,None,,,,,,,7,22,male,7,2022_May_05_1535,Partial repeat,2021.2.3,59.89645084092524,
8,6,0,1,3,3,2,1,0,0,1,0,1,0,0,0,146,146,146,,,,,,,,,,,,,,,,,,,,,,,,,,,,,,7,22,male,7,2022_May_05_1535,Partial repeat,2021.2.3,59.89645084092524,
7,2,0,1,2,3,2,1,1,0,0,0,0,0,0,0,147,147,147,0,0,0,0,,,,,,,683.6666579004377,None,684.090987501666,None,684.8210713006556,None,s,1,0.6783396992832422,684.8210713006556,None,None,None,,,,,,,7,22,male,7,2022_May_05_1535,Partial repeat,2021.2.3,59.89645084092524,
7,2,0,1,2,3,2,1,1,0,0,0,0,0,0,0,147,147,147,1,0,1,0,,,,,,,,,685.5088837016374,None,686.4413153007627,None,l,1,0.7220657002180815,686.4413153007627,None,None,None,,,,,,,7,22,male,7,2022_May_05_1535,Partial repeat,2021.2.3,59.89645084092524,
7,2,0,1,2,3,2,1,1,0,0,0,0,0,0,0,147,147,147,,,,,,,,,,,,,,,,,,,,,,,,,,,,,,7,22,male,7,2022_May_05_1535,Partial repeat,2021.2.3,59.89645084092524,
5,4,0,1,2,2,2,1,1,1,1,0,1,0,0,0,148,148,148,0,0,0,0,,,,,,,687.1736275013536,None,688.2324772011489,None,689.1976746004075,None,s,1,0.6137185990810394,689.1976746004075,None,None,None,,,,,,,7,22,male,7,2022_May_05_1535,Partial repeat,2021.2.3,59.89645084092524,
5,4,0,1,2,2,2,1,1,1,1,0,1,0,0,0,148,148,148,1,0,1,0,,,,,,,,,689.8192745000124,None,690.7996671013534,None,s,1,0.5957411006093025,690.7996671013534,None,None,None,,,,,,,7,22,male,7,2022_May_05_1535,Partial repeat,2021.2.3,59.89645084092524,
5,4,0,1,2,2,2,1,1,1,1,0,1,0,0,0,148,148,148,,,,,,,,,,,,,,,,,,,,,,,,,,,,,,7,22,male,7,2022_May_05_1535,Partial repeat,2021.2.3,59.89645084092524,
7,3,0,1,2,3,1,2,0,0,0,0,1,0,0,0,149,149,149,0,0,0,0,,,,,,,691.4082600008696,None,691.9229781012982,None,692.8873266000301,None,l,1,0.6520288996398449,692.8873266000301,None,None,None,,,,,,,7,22,male,7,2022_May_05_1535,Partial repeat,2021.2.3,59.89645084092524,
7,3,0,1,2,3,1,2,0,0,0,0,1,0,0,0,149,149,149,1,0,1,0,,,,,,,,,693.555754000321,None,694.3565847016871,None,l,1,0.7267427016049623,694.3565847016871,None,None,None,,,,,,,7,22,male,7,2022_May_05_1535,Partial repeat,2021.2.3,59.89645084092524,
7,3,0,1,2,3,1,2,0,0,0,0,1,0,0,0,149,149,149,,,,,,,,,,,,,,,,,,,,,,,,,,,,,,7,22,male,7,2022_May_05_1535,Partial repeat,2021.2.3,59.89645084092524,
6,3,0,1,2,3,2,2,0,0,0,1,1,0,0,0,150,150,150,0,0,0,0,,,,,,,695.1124301012605,None,695.6300879009068,None,696.5107281003147,None,l,1,0.5806182995438576,696.5107281003147,None,None,None,,,,,,,7,22,male,7,2022_May_05_1535,Partial repeat,2021.2.3,59.89645084092524,
6,3,0,1,2,3,2,2,0,0,0,1,1,0,0,0,150,150,150,1,0,1,0,,,,,,,,,697.113517800346,None,697.8966353014112,None,l,1,0.850730400532484,697.8966353014112,None,None,None,,,,,,,7,22,male,7,2022_May_05_1535,Partial repeat,2021.2.3,59.89645084092524,
6,3,0,1,2,3,2,2,0,0,0,1,1,0,0,0,150,150,150,,,,,,,,,,,,,,,,,,,,,,,,,,,,,,7,22,male,7,2022_May_05_1535,Partial repeat,2021.2.3,59.89645084092524,
5,8,0,1,3,3,2,1,1,0,1,0,0,0,0,0,151,151,151,0,0,0,0,,,,,,,698.7580505013466,None,699.3373757004738,None,700.2683036010712,None,s,1,0.831054599955678,700.2683036010712,None,None,None,,,,,,,7,22,male,7,2022_May_05_1535,Partial repeat,2021.2.3,59.89645084092524,
5,8,0,1,3,3,2,1,1,0,1,0,0,0,0,0,151,151,151,1,0,1,0,,,,,,,,,701.1076675001532,None,701.9213045015931,None,l,1,0.5700679011642933,701.9213045015931,None,None,None,,,,,,,7,22,male,7,2022_May_05_1535,Partial repeat,2021.2.3,59.89645084092524,
5,8,0,1,3,3,2,1,1,0,1,0,0,0,0,0,151,151,151,,,,,,,,,,,,,,,,,,,,,,,,,,,,,,7,22,male,7,2022_May_05_1535,Partial repeat,2021.2.3,59.89645084092524,
8,8,0,1,2,2,1,2,1,0,1,0,0,0,0,0,152,152,152,0,0,0,0,,,,,,,702.52285740152,None,703.1114033013582,None,703.8751731999218,None,s,1,0.6562136001884937,703.8751731999218,None,None,None,,,,,,,7,22,male,7,2022_May_05_1535,Partial repeat,2021.2.3,59.89645084092524,
8,8,0,1,2,2,1,2,1,0,1,0,0,0,0,0,152,152,152,1,0,1,0,,,,,,,,,704.5586371012032,None,705.4789368007332,None,l,1,0.6124942004680634,705.4789368007332,None,None,None,,,,,,,7,22,male,7,2022_May_05_1535,Partial repeat,2021.2.3,59.89645084092524,
8,8,0,1,2,2,1,2,1,0,1,0,0,0,0,0,152,152,152,,,,,,,,,,,,,,,,,,,,,,,,,,,,,,7,22,male,7,2022_May_05_1535,Partial repeat,2021.2.3,59.89645084092524,
1,3,0,1,3,2,1,1,1,0,0,1,0,0,0,0,153,153,153,0,0,0,0,,,,,,,706.104793401435,None,707.1025304999202,None,707.9160058014095,None,s,1,0.5753004997968674,707.9160058014095,None,None,None,,,,,,,7,22,male,7,2022_May_05_1535,Partial repeat,2021.2.3,59.89645084092524,
1,3,0,1,3,2,1,1,1,0,0,1,0,0,0,0,153,153,153,1,0,1,0,,,,,,,,,708.5040386002511,None,709.3359262999147,None,l,1,0.4834195002913475,709.3359262999147,None,None,None,,,,,,,7,22,male,7,2022_May_05_1535,Partial repeat,2021.2.3,59.89645084092524,
