prime_tar_pos,probe_tar_pos,dimension,tar_color,prime_dist_color,probe_dist_color,prime_dist_shape,probe_dist_shape,prime_tar_dot_pos,probe_tar_dot_pos,col_rep,shape_rep,resp_rep,pos_fixed,sparse,MainLoop.thisRepN,MainLoop.thisTrialN,MainLoop.thisN,MainLoop.thisIndex,PrimeProbe.thisRepN,PrimeProbe.thisTrialN,PrimeProbe.thisN,PrimeProbe.thisIndex,Instruction.started,Instruction.stopped,instruction_key.keys,instruction_key.rt,instruction_key.started,instruction_key.stopped,PairStartText.started,PairStartText.stopped,FixCross.started,FixCross.stopped,SearchFixCross.started,SearchFixCross.stopped,key_resp.keys,key_resp.corr,key_resp.rt,key_resp.started,key_resp.stopped,feedback_text.started,feedback_text.stopped,text_finish.started,text_finish.stopped,finish_key.keys,finish_key.rt,finish_key.started,finish_key.stopped,participant,age,gender,group,date,expName,psychopyVersion,frameRate,
,,,,,,,,,,,,,,,,,,,,,,,249.88980570062995,None,space,63.44805750064552,249.88980570062995,None,,,,,,,,,,,,,,,,,,,,8,21,female,8,2022_May_06_0914,Partial repeat,2021.2.3,59.89114147857275,
4,4,0,1,2,2,1,2,1,0,1,0,0,1,0,0,0,0,0,0,0,0,0,,,,,,,313.53430560044944,None,315.397317700088,None,316.1482126004994,None,s,1,2.917315199971199,316.1482126004994,None,None,None,,,,,,,8,21,female,8,2022_May_06_0914,Partial repeat,2021.2.3,59.89114147857275,
4,4,0,1,2,2,1,2,1,0,1,0,0,1,0,0,0,0,0,1,0,1,0,,,,,,,,,319.08987369947135,None,320.0353884007782,None,l,1,0.7261203993111849,320.0353884007782,None,None,None,,,,,,,8,21,female,8,2022_May_06_0914,Partial repeat,2021.2.3,59.89114147857275,
4,4,0,1,2,2,1,2,1,0,1,0,0,1,0,0,0,0,0,,,,,,,,,,,,,,,,,,,,,,,,,,,,,,8,21,female,8,2022_May_06_0914,Partial repeat,2021.2.3,59.89114147857275,
4,4,0,1,2,3,2,2,1,1,0,1,1,1,0,0,1,1,1,0,0,0,0,,,,,,,320.78362040035427,None,323.7803553007543,None,324.59600719995797,None,s,1,0.7175184991210699,324.59600719995797,None,None,None,,,,,,,8,21,female,8,2022_May_06_0914,Partial repeat,2021.2.3,59.89114147857275,
4,4,0,1,2,3,2,2,1,1,0,1,1,1,0,0,1,1,1,1,0,1,0,,,,,,,,,325.33276069909334,None,326.0974417999387,None,s,1,0.6160801984369755,326.0974417999387,None,None,None,,,,,,,8,21,female,8,2022_May_06_0914,Partial repeat,2021.2.3,59.89114147857275,
4,4,0,1,2,3,2,2,1,1,0,1,1,1,0,0,1,1,1,,,,,,,,,,,,,,,,,,,,,,,,,,,,,,8,21,female,8,2022_May_06_0914,Partial repeat,2021.2.3,59.89114147857275,
4,4,0,1,2,3,1,2,0,1,0,0,0,1,0,0,2,2,2,0,0,0,0,,,,,,,326.73645789921284,None,327.52096140012145,None,328.28476369939744,None,l,1,0.7007586006075144,328.28476369939744,None,None,None,,,,,,,8,21,female,8,2022_May_06_0914,Partial repeat,2021.2.3,59.89114147857275,
4,4,0,1,2,3,1,2,0,1,0,0,0,1,0,0,2,2,2,1,0,1,0,,,,,,,,,329.00067589990795,None,329.9547690991312,None,s,1,0.5347562003880739,329.9547690991312,None,None,None,,,,,,,8,21,female,8,2022_May_06_0914,Partial repeat,2021.2.3,59.89114147857275,
4,4,0,1,2,3,1,2,0,1,0,0,0,1,0,0,2,2,2,,,,,,,,,,,,,,,,,,,,,,,,,,,,,,8,21,female,8,2022_May_06_0914,Partial repeat,2021.2.3,59.89114147857275,
4,4,0,1,3,3,1,1,1,1,1,1,1,1,0,0,3,3,3,0,0,0,0,,,,,,,330.504523800686,None,331.1446003001183,None,331.94184619933367,None,s,1,0.5476629007607698,331.94184619933367,None,None,None,,,,,,,8,21,female,8,2022_May_06_0914,Partial repeat,2021.2.3,59.89114147857275,
4,4,0,1,3,3,1,1,1,1,1,1,1,1,0,0,3,3,3,1,0,1,0,,,,,,,,,332.5073750000447,None,333.32815700024366,None,s,1,0.4734185989946127,333.32815700024366,None,None,None,,,,,,,8,21,female,8,2022_May_06_0914,Partial repeat,2021.2.3,59.89114147857275,
4,4,0,1,3,3,1,1,1,1,1,1,1,1,0,0,3,3,3,,,,,,,,,,,,,,,,,,,,,,,,,,,,,,8,21,female,8,2022_May_06_0914,Partial repeat,2021.2.3,59.89114147857275,
4,4,0,1,3,3,2,1,1,1,1,0,1,1,0,0,4,4,4,0,0,0,0,,,,,,,333.83216140046716,None,334.4508270993829,None,335.2986488007009,None,s,1,0.5348797999322414,335.2986488007009,None,None,None,,,,,,,8,21,female,8,2022_May_06_0914,Partial repeat,2021.2.3,59.89114147857275,
4,4,0,1,3,3,2,1,1,1,1,0,1,1,0,0,4,4,4,1,0,1,0,,,,,,,,,335.8424747996032,None,336.56743600033224,None,s,1,0.3060766998678446,336.56743600033224,None,None,None,,,,,,,8,21,female,8,2022_May_06_0914,Partial repeat,2021.2.3,59.89114147857275,
4,4,0,1,3,3,2,1,1,1,1,0,1,1,0,0,4,4,4,,,,,,,,,,,,,,,,,,,,,,,,,,,,,,8,21,female,8,2022_May_06_0914,Partial repeat,2021.2.3,59.89114147857275,
4,4,0,1,3,2,1,2,0,0,0,0,1,1,0,0,5,5,5,0,0,0,0,,,,,,,336.8987441007048,None,337.99133409932256,None,338.7721437998116,None,l,1,0.7974299993366003,338.7721437998116,None,None,None,,,,,,,8,21,female,8,2022_May_06_0914,Partial repeat,2021.2.3,59.89114147857275,
4,4,0,1,3,2,1,2,0,0,0,0,1,1,0,0,5,5,5,1,0,1,0,,,,,,,,,339.59567530080676,None,340.5920104999095,None,l,1,0.40149470046162605,340.5920104999095,None,None,None,,,,,,,8,21,female,8,2022_May_06_0914,Partial repeat,2021.2.3,59.89114147857275,
4,4,0,1,3,2,1,2,0,0,0,0,1,1,0,0,5,5,5,,,,,,,,,,,,,,,,,,,,,,,,,,,,,,8,21,female,8,2022_May_06_0914,Partial repeat,2021.2.3,59.89114147857275,
4,4,0,1,2,2,2,1,1,0,1,0,0,1,0,0,6,6,6,0,0,0,0,,,,,,,341.01179919950664,None,341.38109100051224,None,342.1784183997661,None,s,1,0.5351049993187189,342.1784183997661,None,None,None,,,,,,,8,21,female,8,2022_May_06_0914,Partial repeat,2021.2.3,59.89114147857275,
4,4,0,1,2,2,2,1,1,0,1,0,0,1,0,0,6,6,6,1,0,1,0,,,,,,,,,342.7221103999764,None,343.4976001996547,None,l,1,0.48791799880564213,343.4976001996547,None,None,None,,,,,,,8,21,female,8,2022_May_06_0914,Partial repeat,2021.2.3,59.89114147857275,
4,4,0,1,2,2,2,1,1,0,1,0,0,1,0,0,6,6,6,,,,,,,,,,,,,,,,,,,,,,,,,,,,,,8,21,female,8,2022_May_06_0914,Partial repeat,2021.2.3,59.89114147857275,
4,4,0,1,3,3,1,1,1,0,1,1,0,1,0,0,7,7,7,0,0,0,0,,,,,,,344.0133631005883,None,344.45383189991117,None,345.3012188002467,None,s,1,0.48426640033721924,345.3012188002467,None,None,None,,,,,,,8,21,female,8,2022_May_06_0914,Partial repeat,2021.2.3,59.89114147857275,
4,4,0,1,3,3,1,1,1,0,1,1,0,1,0,0,7,7,7,1,0,1,0,,,,,,,,,345.8019897993654,None,346.70392549969256,None,l,1,0.43361550010740757,346.70392549969256,None,None,None,,,,,,,8,21,female,8,2022_May_06_0914,Partial repeat,2021.2.3,59.89114147857275,
4,4,0,1,3,3,1,1,1,0,1,1,0,1,0,0,7,7,7,,,,,,,,,,,,,,,,,,,,,,,,,,,,,,8,21,female,8,2022_May_06_0914,Partial repeat,2021.2.3,59.89114147857275,
4,4,0,1,2,2,2,2,1,1,1,1,1,1,0,0,8,8,8,0,0,0,0,,,,,,,347.1629316005856,None,347.5432265996933,None,348.3071350995451,None,s,1,0.4063713997602463,348.3071350995451,None,None,None,,,,,,,8,21,female,8,2022_May_06_0914,Partial repeat,2021.2.3,59.89114147857275,
4,4,0,1,2,2,2,2,1,1,1,1,1,1,0,0,8,8,8,1,0,1,0,,,,,,,,,348.72570149973035,None,349.4592246003449,None,s,1,0.3904072009027004,349.4592246003449,None,None,None,,,,,,,8,21,female,8,2022_May_06_0914,Partial repeat,2021.2.3,59.89114147857275,
4,4,0,1,2,2,2,2,1,1,1,1,1,1,0,0,8,8,8,,,,,,,,,,,,,,,,,,,,,,,,,,,,,,8,21,female,8,2022_May_06_0914,Partial repeat,2021.2.3,59.89114147857275,
4,4,0,1,3,3,1,1,0,1,1,1,0,1,0,0,9,9,9,0,0,0,0,,,,,,,349.87914160080254,None,350.2986120004207,None,351.1793683003634,None,l,1,0.5741246994584799,351.1793683003634,None,None,None,,,,,,,8,21,female,8,2022_May_06_0914,Partial repeat,2021.2.3,59.89114147857275,
4,4,0,1,3,3,1,1,0,1,1,1,0,1,0,0,9,9,9,1,0,1,0,,,,,,,,,351.7660466004163,None,352.5990251004696,None,s,1,0.3864728007465601,352.5990251004696,None,None,None,,,,,,,8,21,female,8,2022_May_06_0914,Partial repeat,2021.2.3,59.89114147857275,
4,4,0,1,3,3,1,1,0,1,1,1,0,1,0,0,9,9,9,,,,,,,,,,,,,,,,,,,,,,,,,,,,,,8,21,female,8,2022_May_06_0914,Partial repeat,2021.2.3,59.89114147857275,
4,4,0,1,3,2,2,1,0,0,0,0,1,1,0,0,10,10,10,0,0,0,0,,,,,,,352.9995850007981,None,353.4714276008308,None,354.45253350026906,None,l,1,0.6529737003147602,354.45253350026906,None,None,None,,,,,,,8,21,female,8,2022_May_06_0914,Partial repeat,2021.2.3,59.89114147857275,
4,4,0,1,3,2,2,1,0,0,0,0,1,1,0,0,10,10,10,1,0,1,0,,,,,,,,,355.1239820998162,None,355.9054113999009,None,l,1,0.4320867992937565,355.9054113999009,None,None,None,,,,,,,8,21,female,8,2022_May_06_0914,Partial repeat,2021.2.3,59.89114147857275,
4,4,0,1,3,2,2,1,0,0,0,0,1,1,0,0,10,10,10,,,,,,,,,,,,,,,,,,,,,,,,,,,,,,8,21,female,8,2022_May_06_0914,Partial repeat,2021.2.3,59.89114147857275,
4,4,0,1,3,2,1,2,1,1,0,0,1,1,0,0,11,11,11,0,0,0,0,,,,,,,356.36567570082843,None,359.28272069990635,None,360.0298948995769,None,s,1,0.5636020991951227,360.0298948995769,None,None,None,,,,,,,8,21,female,8,2022_May_06_0914,Partial repeat,2021.2.3,59.89114147857275,
4,4,0,1,3,2,1,2,1,1,0,0,1,1,0,0,11,11,11,1,0,1,0,,,,,,,,,360.615926399827,None,361.46596050076187,None,s,1,0.5436177998781204,361.46596050076187,None,None,None,,,,,,,8,21,female,8,2022_May_06_0914,Partial repeat,2021.2.3,59.89114147857275,
4,4,0,1,3,2,1,2,1,1,0,0,1,1,0,0,11,11,11,,,,,,,,,,,,,,,,,,,,,,,,,,,,,,8,21,female,8,2022_May_06_0914,Partial repeat,2021.2.3,59.89114147857275,
4,4,0,1,2,2,2,1,0,1,1,0,0,1,0,0,12,12,12,0,0,0,0,,,,,,,362.039404399693,None,362.90646469965577,None,363.7706013005227,None,l,1,0.6708864010870457,363.7706013005227,None,None,None,,,,,,,8,21,female,8,2022_May_06_0914,Partial repeat,2021.2.3,59.89114147857275,
4,4,0,1,2,2,2,1,0,1,1,0,0,1,0,0,12,12,12,1,0,1,0,,,,,,,,,364.46367199905217,None,365.22450670041144,None,s,1,0.6089827995747328,365.22450670041144,None,None,None,,,,,,,8,21,female,8,2022_May_06_0914,Partial repeat,2021.2.3,59.89114147857275,
4,4,0,1,2,2,2,1,0,1,1,0,0,1,0,0,12,12,12,,,,,,,,,,,,,,,,,,,,,,,,,,,,,,8,21,female,8,2022_May_06_0914,Partial repeat,2021.2.3,59.89114147857275,
4,4,0,1,3,2,2,1,1,0,0,0,0,1,0,0,13,13,13,0,0,0,0,,,,,,,365.85492940060794,None,366.5969926994294,None,367.3611651007086,None,s,1,0.7042950987815857,367.3611651007086,None,None,None,,,,,,,8,21,female,8,2022_May_06_0914,Partial repeat,2021.2.3,59.89114147857275,
4,4,0,1,3,2,2,1,1,0,0,0,0,1,0,0,13,13,13,1,0,1,0,,,,,,,,,368.082322800532,None,369.06411899998784,None,l,1,0.3853762988001108,369.06411899998784,None,None,None,,,,,,,8,21,female,8,2022_May_06_0914,Partial repeat,2021.2.3,59.89114147857275,
4,4,0,1,3,2,2,1,1,0,0,0,0,1,0,0,13,13,13,,,,,,,,,,,,,,,,,,,,,,,,,,,,,,8,21,female,8,2022_May_06_0914,Partial repeat,2021.2.3,59.89114147857275,
4,4,0,1,3,2,2,2,1,0,0,1,0,1,0,0,14,14,14,0,0,0,0,,,,,,,369.46455819904804,None,369.88673100061715,None,370.81749249994755,None,s,1,0.51197350025177,370.81749249994755,None,None,None,,,,,,,8,21,female,8,2022_May_06_0914,Partial repeat,2021.2.3,59.89114147857275,
4,4,0,1,3,2,2,2,1,0,0,1,0,1,0,0,14,14,14,1,0,1,0,,,,,,,,,371.3583026006818,None,372.3546977993101,None,l,1,0.42279419861733913,372.3546977993101,None,None,None,,,,,,,8,21,female,8,2022_May_06_0914,Partial repeat,2021.2.3,59.89114147857275,
4,4,0,1,3,2,2,2,1,0,0,1,0,1,0,0,14,14,14,,,,,,,,,,,,,,,,,,,,,,,,,,,,,,8,21,female,8,2022_May_06_0914,Partial repeat,2021.2.3,59.89114147857275,
4,4,0,1,2,3,2,2,0,0,0,1,1,1,0,0,15,15,15,0,0,0,0,,,,,,,372.7990616001189,None,373.1263250000775,None,373.9071012996137,None,s,0,0.670389799401164,373.9071012996137,None,374.60097900032997,None,,,,,,,8,21,female,8,2022_May_06_0914,Partial repeat,2021.2.3,59.89114147857275,
4,4,0,1,2,3,2,2,0,0,0,1,1,1,0,0,15,15,15,1,0,1,0,,,,,,,,,375.11356779932976,None,376.02766110002995,None,l,1,0.9178298003971577,376.02766110002995,None,None,None,,,,,,,8,21,female,8,2022_May_06_0914,Partial repeat,2021.2.3,59.89114147857275,
4,4,0,1,2,3,2,2,0,0,0,1,1,1,0,0,15,15,15,,,,,,,,,,,,,,,,,,,,,,,,,,,,,,8,21,female,8,2022_May_06_0914,Partial repeat,2021.2.3,59.89114147857275,
4,4,0,1,2,3,2,2,0,1,0,1,0,1,0,0,16,16,16,0,0,0,0,,,,,,,376.9730025995523,None,378.6537717990577,None,379.65135890059173,None,l,1,0.5821949001401663,379.65135890059173,None,None,None,,,,,,,8,21,female,8,2022_May_06_0914,Partial repeat,2021.2.3,59.89114147857275,
4,4,0,1,2,3,2,2,0,1,0,1,0,1,0,0,16,16,16,1,0,1,0,,,,,,,,,380.25967730022967,None,381.0043313000351,None,s,1,0.6291630994528532,381.0043313000351,None,None,None,,,,,,,8,21,female,8,2022_May_06_0914,Partial repeat,2021.2.3,59.89114147857275,
4,4,0,1,2,3,2,2,0,1,0,1,0,1,0,0,16,16,16,,,,,,,,,,,,,,,,,,,,,,,,,,,,,,8,21,female,8,2022_May_06_0914,Partial repeat,2021.2.3,59.89114147857275,
4,4,0,1,2,3,2,1,0,1,0,0,0,1,0,0,17,17,17,0,0,0,0,,,,,,,381.65903609991074,None,382.5446595996618,None,383.3437814991921,None,l,1,0.8577089998871088,383.3437814991921,None,None,None,,,,,,,8,21,female,8,2022_May_06_0914,Partial repeat,2021.2.3,59.89114147857275,
4,4,0,1,2,3,2,1,0,1,0,0,0,1,0,0,17,17,17,1,0,1,0,,,,,,,,,384.2093208003789,None,385.12875779904425,None,s,1,0.3607314992696047,385.12875779904425,None,None,None,,,,,,,8,21,female,8,2022_May_06_0914,Partial repeat,2021.2.3,59.89114147857275,
4,4,0,1,2,3,2,1,0,1,0,0,0,1,0,0,17,17,17,,,,,,,,,,,,,,,,,,,,,,,,,,,,,,8,21,female,8,2022_May_06_0914,Partial repeat,2021.2.3,59.89114147857275,
4,4,0,1,2,2,1,1,0,1,1,1,0,1,0,0,18,18,18,0,0,0,0,,,,,,,385.5076921004802,None,385.9178388006985,None,386.6649575997144,None,l,1,0.464529100805521,386.6649575997144,None,None,None,,,,,,,8,21,female,8,2022_May_06_0914,Partial repeat,2021.2.3,59.89114147857275,
4,4,0,1,2,2,1,1,0,1,1,1,0,1,0,0,18,18,18,1,0,1,0,,,,,,,,,387.1485277991742,None,387.9346104003489,None,s,1,0.5629019998013973,387.9346104003489,None,None,None,,,,,,,8,21,female,8,2022_May_06_0914,Partial repeat,2021.2.3,59.89114147857275,
4,4,0,1,2,2,1,1,0,1,1,1,0,1,0,0,18,18,18,,,,,,,,,,,,,,,,,,,,,,,,,,,,,,8,21,female,8,2022_May_06_0914,Partial repeat,2021.2.3,59.89114147857275,
4,4,0,1,3,2,2,1,1,1,0,0,1,1,0,0,19,19,19,0,0,0,0,,,,,,,388.5282818004489,None,388.94044060073793,None,389.9383374005556,None,s,1,0.46314169839024544,389.9383374005556,None,None,None,,,,,,,8,21,female,8,2022_May_06_0914,Partial repeat,2021.2.3,59.89114147857275,
4,4,0,1,3,2,2,1,1,1,0,0,1,1,0,0,19,19,19,1,0,1,0,,,,,,,,,390.4172667004168,None,391.2239346001297,None,s,1,0.36955410055816174,391.2239346001297,None,None,None,,,,,,,8,21,female,8,2022_May_06_0914,Partial repeat,2021.2.3,59.89114147857275,
4,4,0,1,3,2,2,1,1,1,0,0,1,1,0,0,19,19,19,,,,,,,,,,,,,,,,,,,,,,,,,,,,,,8,21,female,8,2022_May_06_0914,Partial repeat,2021.2.3,59.89114147857275,
4,4,0,1,3,3,1,1,0,0,1,1,1,1,0,0,20,20,20,0,0,0,0,,,,,,,391.6235879994929,None,391.9797003995627,None,392.74371879920363,None,l,1,0.4337365012615919,392.74371879920363,None,None,None,,,,,,,8,21,female,8,2022_May_06_0914,Partial repeat,2021.2.3,59.89114147857275,
4,4,0,1,3,3,1,1,0,0,1,1,1,1,0,0,20,20,20,1,0,1,0,,,,,,,,,393.20643609948456,None,394.2130348999053,None,l,1,0.34039160050451756,394.2130348999053,None,None,None,,,,,,,8,21,female,8,2022_May_06_0914,Partial repeat,2021.2.3,59.89114147857275,
4,4,0,1,3,3,1,1,0,0,1,1,1,1,0,0,20,20,20,,,,,,,,,,,,,,,,,,,,,,,,,,,,,,8,21,female,8,2022_May_06_0914,Partial repeat,2021.2.3,59.89114147857275,
4,4,0,1,3,2,1,2,0,1,0,0,0,1,0,0,21,21,21,0,0,0,0,,,,,,,394.57298110052943,None,394.9020466990769,None,395.6327570993453,None,l,1,0.6007771007716656,395.6327570993453,None,None,None,,,,,,,8,21,female,8,2022_May_06_0914,Partial repeat,2021.2.3,59.89114147857275,
4,4,0,1,3,2,1,2,0,1,0,0,0,1,0,0,21,21,21,1,0,1,0,,,,,,,,,396.24276139959693,None,397.25262350030243,None,s,1,0.4048745986074209,397.25262350030243,None,None,None,,,,,,,8,21,female,8,2022_May_06_0914,Partial repeat,2021.2.3,59.89114147857275,
4,4,0,1,3,2,1,2,0,1,0,0,0,1,0,0,21,21,21,,,,,,,,,,,,,,,,,,,,,,,,,,,,,,8,21,female,8,2022_May_06_0914,Partial repeat,2021.2.3,59.89114147857275,
4,4,0,1,3,2,1,1,0,1,0,1,0,1,0,0,22,22,22,0,0,0,0,,,,,,,397.669280199334,None,398.0915603991598,None,399.0390357002616,None,l,1,0.554525600746274,399.0390357002616,None,None,None,,,,,,,8,21,female,8,2022_May_06_0914,Partial repeat,2021.2.3,59.89114147857275,
4,4,0,1,3,2,1,1,0,1,0,1,0,1,0,0,22,22,22,1,0,1,0,,,,,,,,,399.6038048993796,None,400.40870600007474,None,s,1,0.4488235004246235,400.40870600007474,None,None,None,,,,,,,8,21,female,8,2022_May_06_0914,Partial repeat,2021.2.3,59.89114147857275,
4,4,0,1,3,2,1,1,0,1,0,1,0,1,0,0,22,22,22,,,,,,,,,,,,,,,,,,,,,,,,,,,,,,8,21,female,8,2022_May_06_0914,Partial repeat,2021.2.3,59.89114147857275,
4,4,0,1,2,2,1,1,1,0,1,1,0,1,0,0,23,23,23,0,0,0,0,,,,,,,400.8893701992929,None,401.2644047997892,None,402.07850600034,None,s,1,0.5150112994015217,402.07850600034,None,None,None,,,,,,,8,21,female,8,2022_May_06_0914,Partial repeat,2021.2.3,59.89114147857275,
4,4,0,1,2,2,1,1,1,0,1,1,0,1,0,0,23,23,23,1,0,1,0,,,,,,,,,402.6212751995772,None,403.5979679003358,None,l,1,0.48350940085947514,403.5979679003358,None,None,None,,,,,,,8,21,female,8,2022_May_06_0914,Partial repeat,2021.2.3,59.89114147857275,
4,4,0,1,2,2,1,1,1,0,1,1,0,1,0,0,23,23,23,,,,,,,,,,,,,,,,,,,,,,,,,,,,,,8,21,female,8,2022_May_06_0914,Partial repeat,2021.2.3,59.89114147857275,
4,4,0,1,3,2,2,2,0,1,0,1,0,1,0,0,24,24,24,0,0,0,0,,,,,,,404.1053037997335,None,404.57083229906857,None,405.3513565007597,None,l,1,1.1061152014881372,405.3513565007597,None,None,None,,,,,,,8,21,female,8,2022_May_06_0914,Partial repeat,2021.2.3,59.89114147857275,
4,4,0,1,3,2,2,2,0,1,0,1,0,1,0,0,24,24,24,1,0,1,0,,,,,,,,,406.4788122996688,None,407.48882259987295,None,s,1,0.47261410020291805,407.48882259987295,None,None,None,,,,,,,8,21,female,8,2022_May_06_0914,Partial repeat,2021.2.3,59.89114147857275,
4,4,0,1,3,2,2,2,0,1,0,1,0,1,0,0,24,24,24,,,,,,,,,,,,,,,,,,,,,,,,,,,,,,8,21,female,8,2022_May_06_0914,Partial repeat,2021.2.3,59.89114147857275,
4,4,0,1,3,2,1,1,0,0,0,1,1,1,0,0,25,25,25,0,0,0,0,,,,,,,407.97550559975207,None,408.54523460008204,None,409.3761624991894,None,l,1,0.5773582998663187,409.3761624991894,None,None,None,,,,,,,8,21,female,8,2022_May_06_0914,Partial repeat,2021.2.3,59.89114147857275,
4,4,0,1,3,2,1,1,0,0,0,1,1,1,0,0,25,25,25,1,0,1,0,,,,,,,,,409.96469279937446,None,410.9127239994705,None,l,1,0.4247436001896858,410.9127239994705,None,None,None,,,,,,,8,21,female,8,2022_May_06_0914,Partial repeat,2021.2.3,59.89114147857275,
4,4,0,1,3,2,1,1,0,0,0,1,1,1,0,0,25,25,25,,,,,,,,,,,,,,,,,,,,,,,,,,,,,,8,21,female,8,2022_May_06_0914,Partial repeat,2021.2.3,59.89114147857275,
4,4,0,1,2,2,2,2,0,0,1,1,1,1,0,0,26,26,26,0,0,0,0,,,,,,,411.35884499922395,None,411.71791579946876,None,412.6987842991948,None,l,1,0.5186893995851278,412.6987842991948,None,None,None,,,,,,,8,21,female,8,2022_May_06_0914,Partial repeat,2021.2.3,59.89114147857275,
4,4,0,1,2,2,2,2,0,0,1,1,1,1,0,0,26,26,26,1,0,1,0,,,,,,,,,413.2424164991826,None,414.20218429900706,None,l,1,0.3192771002650261,414.20218429900706,None,None,None,,,,,,,8,21,female,8,2022_May_06_0914,Partial repeat,2021.2.3,59.89114147857275,
4,4,0,1,2,2,2,2,0,0,1,1,1,1,0,0,26,26,26,,,,,,,,,,,,,,,,,,,,,,,,,,,,,,8,21,female,8,2022_May_06_0914,Partial repeat,2021.2.3,59.89114147857275,
4,4,0,1,3,3,2,1,1,0,1,0,0,1,0,0,27,27,27,0,0,0,0,,,,,,,414.53697259910405,None,414.8575276006013,None,415.7716473005712,None,s,1,0.4938688986003399,415.7716473005712,None,None,None,,,,,,,8,21,female,8,2022_May_06_0914,Partial repeat,2021.2.3,59.89114147857275,
4,4,0,1,3,3,2,1,1,0,1,0,0,1,0,0,27,27,27,1,0,1,0,,,,,,,,,416.29382519982755,None,417.2580315005034,None,l,1,0.3914748001843691,417.2580315005034,None,None,None,,,,,,,8,21,female,8,2022_May_06_0914,Partial repeat,2021.2.3,59.89114147857275,
4,4,0,1,3,3,2,1,1,0,1,0,0,1,0,0,27,27,27,,,,,,,,,,,,,,,,,,,,,,,,,,,,,,8,21,female,8,2022_May_06_0914,Partial repeat,2021.2.3,59.89114147857275,
4,4,0,1,2,2,1,1,1,1,1,1,1,1,0,0,28,28,28,0,0,0,0,,,,,,,417.67905879952013,None,417.9802640993148,None,418.9782148003578,None,s,1,0.6952455993741751,418.9782148003578,None,None,None,,,,,,,8,21,female,8,2022_May_06_0914,Partial repeat,2021.2.3,59.89114147857275,
4,4,0,1,2,2,1,1,1,1,1,1,1,1,0,0,28,28,28,1,0,1,0,,,,,,,,,419.69846729934216,None,420.4322402998805,None,s,1,0.3372224997729063,420.4322402998805,None,None,None,,,,,,,8,21,female,8,2022_May_06_0914,Partial repeat,2021.2.3,59.89114147857275,
4,4,0,1,2,2,1,1,1,1,1,1,1,1,0,0,28,28,28,,,,,,,,,,,,,,,,,,,,,,,,,,,,,,8,21,female,8,2022_May_06_0914,Partial repeat,2021.2.3,59.89114147857275,
4,4,0,1,3,3,2,2,0,0,1,1,1,1,0,0,29,29,29,0,0,0,0,,,,,,,420.7886621002108,None,421.0861467998475,None,422.1007873993367,None,l,1,0.6126688998192549,422.1007873993367,None,None,None,,,,,,,8,21,female,8,2022_May_06_0914,Partial repeat,2021.2.3,59.89114147857275,
4,4,0,1,3,3,2,2,0,0,1,1,1,1,0,0,29,29,29,1,0,1,0,,,,,,,,,422.73391800001264,None,423.62046550028026,None,l,1,0.3890569005161524,423.62046550028026,None,None,None,,,,,,,8,21,female,8,2022_May_06_0914,Partial repeat,2021.2.3,59.89114147857275,
4,4,0,1,3,3,2,2,0,0,1,1,1,1,0,0,29,29,29,,,,,,,,,,,,,,,,,,,,,,,,,,,,,,8,21,female,8,2022_May_06_0914,Partial repeat,2021.2.3,59.89114147857275,
4,4,0,1,2,2,1,2,0,1,1,0,0,1,0,0,30,30,30,0,0,0,0,,,,,,,424.04130499996245,None,424.3426338005811,None,425.30705190077424,None,l,1,0.5105935987085104,425.30705190077424,None,None,None,,,,,,,8,21,female,8,2022_May_06_0914,Partial repeat,2021.2.3,59.89114147857275,
4,4,0,1,2,2,1,2,0,1,1,0,0,1,0,0,30,30,30,1,0,1,0,,,,,,,,,425.8293210994452,None,426.72652379982173,None,s,1,0.6269786991178989,426.72652379982173,None,None,None,,,,,,,8,21,female,8,2022_May_06_0914,Partial repeat,2021.2.3,59.89114147857275,
4,4,0,1,2,2,1,2,0,1,1,0,0,1,0,0,30,30,30,,,,,,,,,,,,,,,,,,,,,,,,,,,,,,8,21,female,8,2022_May_06_0914,Partial repeat,2021.2.3,59.89114147857275,
4,4,0,1,2,2,1,2,1,1,1,0,1,1,0,0,31,31,31,0,0,0,0,,,,,,,427.384444700554,None,427.6657787989825,None,428.4298743996769,None,l,0,0.475577799603343,428.4298743996769,None,428.9308720994741,None,,,,,,,8,21,female,8,2022_May_06_0914,Partial repeat,2021.2.3,59.89114147857275,
4,4,0,1,2,2,1,2,1,1,1,0,1,1,0,0,31,31,31,1,0,1,0,,,,,,,,,429.43587340041995,None,430.3665456008166,None,s,1,0.6910003013908863,430.3665456008166,None,None,None,,,,,,,8,21,female,8,2022_May_06_0914,Partial repeat,2021.2.3,59.89114147857275,
4,4,0,1,2,2,1,2,1,1,1,0,1,1,0,0,31,31,31,,,,,,,,,,,,,,,,,,,,,,,,,,,,,,8,21,female,8,2022_May_06_0914,Partial repeat,2021.2.3,59.89114147857275,
4,4,0,1,3,3,2,2,1,1,1,1,1,1,0,0,32,32,32,0,0,0,0,,,,,,,431.07041559927166,None,431.38969339989126,None,432.3708142992109,None,s,1,0.47071330063045025,432.3708142992109,None,None,None,,,,,,,8,21,female,8,2022_May_06_0914,Partial repeat,2021.2.3,59.89114147857275,
4,4,0,1,3,3,2,2,1,1,1,1,1,1,0,0,32,32,32,1,0,1,0,,,,,,,,,432.8501948993653,None,433.63994440063834,None,s,1,0.41750899888575077,433.63994440063834,None,None,None,,,,,,,8,21,female,8,2022_May_06_0914,Partial repeat,2021.2.3,59.89114147857275,
4,4,0,1,3,3,2,2,1,1,1,1,1,1,0,0,32,32,32,,,,,,,,,,,,,,,,,,,,,,,,,,,,,,8,21,female,8,2022_May_06_0914,Partial repeat,2021.2.3,59.89114147857275,
4,4,0,1,2,2,2,1,1,1,1,0,1,1,0,0,33,33,33,0,0,0,0,,,,,,,434.0808524005115,None,434.5291639007628,None,435.52678319998085,None,s,1,0.4426688998937607,435.52678319998085,None,None,None,,,,,,,8,21,female,8,2022_May_06_0914,Partial repeat,2021.2.3,59.89114147857275,
4,4,0,1,2,2,2,1,1,1,1,0,1,1,0,0,33,33,33,1,0,1,0,,,,,,,,,435.9869356006384,None,436.77911959961057,None,s,1,0.3263454996049404,436.77911959961057,None,None,None,,,,,,,8,21,female,8,2022_May_06_0914,Partial repeat,2021.2.3,59.89114147857275,
4,4,0,1,2,2,2,1,1,1,1,0,1,1,0,0,33,33,33,,,,,,,,,,,,,,,,,,,,,,,,,,,,,,8,21,female,8,2022_May_06_0914,Partial repeat,2021.2.3,59.89114147857275,
4,4,0,1,3,3,1,2,0,1,1,0,0,1,0,0,34,34,34,0,0,0,0,,,,,,,437.13452129997313,None,437.4514488000423,None,438.2486004997045,None,l,1,0.6248991992324591,438.2486004997045,None,None,None,,,,,,,8,21,female,8,2022_May_06_0914,Partial repeat,2021.2.3,59.89114147857275,
4,4,0,1,3,3,1,2,0,1,1,0,0,1,0,0,34,34,34,1,0,1,0,,,,,,,,,438.90070349909365,None,439.9018565006554,None,s,1,0.4435926005244255,439.9018565006554,None,None,None,,,,,,,8,21,female,8,2022_May_06_0914,Partial repeat,2021.2.3,59.89114147857275,
4,4,0,1,3,3,1,2,0,1,1,0,0,1,0,0,34,34,34,,,,,,,,,,,,,,,,,,,,,,,,,,,,,,8,21,female,8,2022_May_06_0914,Partial repeat,2021.2.3,59.89114147857275,
4,4,0,1,2,3,2,2,1,0,0,1,0,1,0,0,35,35,35,0,0,0,0,,,,,,,440.36560820043087,None,440.7578525003046,None,441.706645000726,None,s,1,0.6708088014274836,441.706645000726,None,None,None,,,,,,,8,21,female,8,2022_May_06_0914,Partial repeat,2021.2.3,59.89114147857275,
4,4,0,1,2,3,2,2,1,0,0,1,0,1,0,0,35,35,35,1,0,1,0,,,,,,,,,442.4031873997301,None,443.15850299969316,None,l,1,0.5070195998996496,443.15850299969316,None,None,None,,,,,,,8,21,female,8,2022_May_06_0914,Partial repeat,2021.2.3,59.89114147857275,
4,4,0,1,2,3,2,2,1,0,0,1,0,1,0,0,35,35,35,,,,,,,,,,,,,,,,,,,,,,,,,,,,,,8,21,female,8,2022_May_06_0914,Partial repeat,2021.2.3,59.89114147857275,
4,4,0,1,3,3,2,2,0,1,1,1,0,1,0,0,36,36,36,0,0,0,0,,,,,,,443.68808390013874,None,443.99743119999766,None,444.7782719004899,None,s,0,0.45518309995532036,444.7782719004899,None,445.2582399994135,None,,,,,,,8,21,female,8,2022_May_06_0914,Partial repeat,2021.2.3,59.89114147857275,
4,4,0,1,3,3,2,2,0,1,1,1,0,1,0,0,36,36,36,1,0,1,0,,,,,,,,,445.7676106002182,None,446.6485194992274,None,s,1,0.5929310005158186,446.6485194992274,None,None,None,,,,,,,8,21,female,8,2022_May_06_0914,Partial repeat,2021.2.3,59.89114147857275,
4,4,0,1,3,3,2,2,0,1,1,1,0,1,0,0,36,36,36,,,,,,,,,,,,,,,,,,,,,,,,,,,,,,8,21,female,8,2022_May_06_0914,Partial repeat,2021.2.3,59.89114147857275,
4,4,0,1,2,3,1,2,0,0,0,0,1,1,0,0,37,37,37,0,0,0,0,,,,,,,447.2627763003111,None,447.77146320044994,None,448.68589759990573,None,l,1,0.5715372990816832,448.68589759990573,None,None,None,,,,,,,8,21,female,8,2022_May_06_0914,Partial repeat,2021.2.3,59.89114147857275,
4,4,0,1,2,3,1,2,0,0,0,0,1,1,0,0,37,37,37,1,0,1,0,,,,,,,,,449.2715512998402,None,450.2223444990814,None,l,1,0.6110753994435072,450.2223444990814,None,None,None,,,,,,,8,21,female,8,2022_May_06_0914,Partial repeat,2021.2.3,59.89114147857275,
4,4,0,1,2,3,1,2,0,0,0,0,1,1,0,0,37,37,37,,,,,,,,,,,,,,,,,,,,,,,,,,,,,,8,21,female,8,2022_May_06_0914,Partial repeat,2021.2.3,59.89114147857275,
4,4,0,1,3,3,1,2,1,1,1,0,1,1,0,0,38,38,38,0,0,0,0,,,,,,,450.84970239922404,None,451.2783754002303,None,452.025494299829,None,s,1,0.6239484995603561,452.025494299829,None,None,None,,,,,,,8,21,female,8,2022_May_06_0914,Partial repeat,2021.2.3,59.89114147857275,
4,4,0,1,3,3,1,2,1,1,1,0,1,1,0,0,38,38,38,1,0,1,0,,,,,,,,,452.6773837991059,None,453.61186780035496,None,s,1,0.4455741010606289,453.61186780035496,None,None,None,,,,,,,8,21,female,8,2022_May_06_0914,Partial repeat,2021.2.3,59.89114147857275,
4,4,0,1,3,3,1,2,1,1,1,0,1,1,0,0,38,38,38,,,,,,,,,,,,,,,,,,,,,,,,,,,,,,8,21,female,8,2022_May_06_0914,Partial repeat,2021.2.3,59.89114147857275,
4,4,0,1,3,2,2,1,0,1,0,0,0,1,0,0,39,39,39,0,0,0,0,,,,,,,454.0775223001838,None,454.4011253993958,None,455.2820785995573,None,l,1,0.4714040011167526,455.2820785995573,None,None,None,,,,,,,8,21,female,8,2022_May_06_0914,Partial repeat,2021.2.3,59.89114147857275,
4,4,0,1,3,2,2,1,0,1,0,0,0,1,0,0,39,39,39,1,0,1,0,,,,,,,,,455.76649189926684,None,456.7680673003197,None,s,1,0.48938459903001785,456.7680673003197,None,None,None,,,,,,,8,21,female,8,2022_May_06_0914,Partial repeat,2021.2.3,59.89114147857275,
4,4,0,1,3,2,2,1,0,1,0,0,0,1,0,0,39,39,39,,,,,,,,,,,,,,,,,,,,,,,,,,,,,,8,21,female,8,2022_May_06_0914,Partial repeat,2021.2.3,59.89114147857275,
4,4,0,1,3,3,2,2,1,0,1,1,0,1,0,0,40,40,40,0,0,0,0,,,,,,,457.2750725001097,None,457.5571455992758,None,458.30456439964473,None,s,1,0.6968475002795458,458.30456439964473,None,None,None,,,,,,,8,21,female,8,2022_May_06_0914,Partial repeat,2021.2.3,59.89114147857275,
4,4,0,1,3,3,2,2,1,0,1,1,0,1,0,0,40,40,40,1,0,1,0,,,,,,,,,459.0190031006932,None,459.8914189003408,None,l,1,0.47802620008587837,459.8914189003408,None,None,None,,,,,,,8,21,female,8,2022_May_06_0914,Partial repeat,2021.2.3,59.89114147857275,
4,4,0,1,3,3,2,2,1,0,1,1,0,1,0,0,40,40,40,,,,,,,,,,,,,,,,,,,,,,,,,,,,,,8,21,female,8,2022_May_06_0914,Partial repeat,2021.2.3,59.89114147857275,
4,4,0,1,2,2,2,2,0,1,1,1,0,1,0,0,41,41,41,0,0,0,0,,,,,,,460.3969320990145,None,460.71340939961374,None,461.46079510077834,None,l,1,0.5326544009149075,461.46079510077834,None,None,None,,,,,,,8,21,female,8,2022_May_06_0914,Partial repeat,2021.2.3,59.89114147857275,
4,4,0,1,2,2,2,2,0,1,1,1,0,1,0,0,41,41,41,1,0,1,0,,,,,,,,,462.0077213998884,None,462.8301074001938,None,s,1,0.4194016996771097,462.8301074001938,None,None,None,,,,,,,8,21,female,8,2022_May_06_0914,Partial repeat,2021.2.3,59.89114147857275,
4,4,0,1,2,2,2,2,0,1,1,1,0,1,0,0,41,41,41,,,,,,,,,,,,,,,,,,,,,,,,,,,,,,8,21,female,8,2022_May_06_0914,Partial repeat,2021.2.3,59.89114147857275,
4,4,0,1,2,3,1,2,1,1,0,0,1,1,0,0,42,42,42,0,0,0,0,,,,,,,463.2711225990206,None,463.58566110022366,None,464.46639510057867,None,s,1,0.4950534999370575,464.46639510057867,None,None,None,,,,,,,8,21,female,8,2022_May_06_0914,Partial repeat,2021.2.3,59.89114147857275,
4,4,0,1,2,3,1,2,1,1,0,0,1,1,0,0,42,42,42,1,0,1,0,,,,,,,,,464.9734598007053,None,465.93609200045466,None,s,1,0.4013552013784647,465.93609200045466,None,None,None,,,,,,,8,21,female,8,2022_May_06_0914,Partial repeat,2021.2.3,59.89114147857275,
4,4,0,1,2,3,1,2,1,1,0,0,1,1,0,0,42,42,42,,,,,,,,,,,,,,,,,,,,,,,,,,,,,,8,21,female,8,2022_May_06_0914,Partial repeat,2021.2.3,59.89114147857275,
4,4,0,1,2,3,1,1,0,1,0,1,0,1,0,0,43,43,43,0,0,0,0,,,,,,,466.354043899104,None,466.741784799844,None,467.5899954997003,None,l,1,0.5553885009139776,467.5899954997003,None,None,None,,,,,,,8,21,female,8,2022_May_06_0914,Partial repeat,2021.2.3,59.89114147857275,
4,4,0,1,2,3,1,1,0,1,0,1,0,1,0,0,43,43,43,1,0,1,0,,,,,,,,,468.1587882004678,None,468.99172350019217,None,s,1,0.3857493009418249,468.99172350019217,None,None,None,,,,,,,8,21,female,8,2022_May_06_0914,Partial repeat,2021.2.3,59.89114147857275,
4,4,0,1,2,3,1,1,0,1,0,1,0,1,0,0,43,43,43,,,,,,,,,,,,,,,,,,,,,,,,,,,,,,8,21,female,8,2022_May_06_0914,Partial repeat,2021.2.3,59.89114147857275,
4,4,0,1,2,2,2,1,0,0,1,0,1,1,0,0,44,44,44,0,0,0,0,,,,,,,469.3916864003986,None,469.66412669979036,None,470.5457847006619,None,s,0,0.39965940080583096,470.5457847006619,None,470.96121519990265,None,,,,,,,8,21,female,8,2022_May_06_0914,Partial repeat,2021.2.3,59.89114147857275,
4,4,0,1,2,2,2,1,0,0,1,0,1,1,0,0,44,44,44,1,0,1,0,,,,,,,,,471.467600800097,None,472.36481280066073,None,l,1,0.6926776003092527,472.36481280066073,None,None,None,,,,,,,8,21,female,8,2022_May_06_0914,Partial repeat,2021.2.3,59.89114147857275,
4,4,0,1,2,2,2,1,0,0,1,0,1,1,0,0,44,44,44,,,,,,,,,,,,,,,,,,,,,,,,,,,,,,8,21,female,8,2022_May_06_0914,Partial repeat,2021.2.3,59.89114147857275,
4,4,0,1,2,3,2,1,0,0,0,0,1,1,0,0,45,45,45,0,0,0,0,,,,,,,473.0875800997019,None,473.3546200990677,None,474.13515369966626,None,l,1,0.6582784000784159,474.13515369966626,None,None,None,,,,,,,8,21,female,8,2022_May_06_0914,Partial repeat,2021.2.3,59.89114147857275,
4,4,0,1,2,3,2,1,0,0,0,0,1,1,0,0,45,45,45,1,0,1,0,,,,,,,,,474.80654389970005,None,475.7382545992732,None,s,0,0.5511761009693146,475.7382545992732,None,476.3080592993647,None,,,,,,,8,21,female,8,2022_May_06_0914,Partial repeat,2021.2.3,59.89114147857275,
4,4,0,1,2,3,2,1,0,0,0,0,1,1,0,0,45,45,45,,,,,,,,,,,,,,,,,,,,,,,,,,,,,,8,21,female,8,2022_May_06_0914,Partial repeat,2021.2.3,59.89114147857275,
4,4,0,1,3,3,1,2,0,0,1,0,1,1,0,0,46,46,46,0,0,0,0,,,,,,,476.8114110007882,None,480.25138969905674,None,481.09869539923966,None,l,1,0.8867482002824545,481.09869539923966,None,None,None,,,,,,,8,21,female,8,2022_May_06_0914,Partial repeat,2021.2.3,59.89114147857275,
4,4,0,1,3,3,1,2,0,0,1,0,1,1,0,0,46,46,46,1,0,1,0,,,,,,,,,482.00600009970367,None,483.0192010998726,None,l,1,0.4862370006740093,483.0192010998726,None,None,None,,,,,,,8,21,female,8,2022_May_06_0914,Partial repeat,2021.2.3,59.89114147857275,
4,4,0,1,3,3,1,2,0,0,1,0,1,1,0,0,46,46,46,,,,,,,,,,,,,,,,,,,,,,,,,,,,,,8,21,female,8,2022_May_06_0914,Partial repeat,2021.2.3,59.89114147857275,
4,4,0,1,2,2,1,1,0,0,1,1,1,1,0,0,47,47,47,0,0,0,0,,,,,,,483.5310635007918,None,483.8250274993479,None,484.5556904990226,None,l,1,0.7177418004721403,484.5556904990226,None,None,None,,,,,,,8,21,female,8,2022_May_06_0914,Partial repeat,2021.2.3,59.89114147857275,
4,4,0,1,2,2,1,1,0,0,1,1,1,1,0,0,47,47,47,1,0,1,0,,,,,,,,,485.29267260059714,None,486.0750469006598,None,l,1,0.4143954012542963,486.0750469006598,None,None,None,,,,,,,8,21,female,8,2022_May_06_0914,Partial repeat,2021.2.3,59.89114147857275,
4,4,0,1,2,2,1,1,0,0,1,1,1,1,0,0,47,47,47,,,,,,,,,,,,,,,,,,,,,,,,,,,,,,8,21,female,8,2022_May_06_0914,Partial repeat,2021.2.3,59.89114147857275,
4,4,0,1,3,3,2,1,0,1,1,0,0,1,0,0,48,48,48,0,0,0,0,,,,,,,486.51827839948237,None,487.2314780000597,None,488.06283799931407,None,l,1,0.5625975001603365,488.06283799931407,None,None,None,,,,,,,8,21,female,8,2022_May_06_0914,Partial repeat,2021.2.3,59.89114147857275,
4,4,0,1,3,3,2,1,0,1,1,0,0,1,0,0,48,48,48,1,0,1,0,,,,,,,,,488.63959229923785,None,489.63227060064673,None,s,1,0.45715370029211044,489.63227060064673,None,None,None,,,,,,,8,21,female,8,2022_May_06_0914,Partial repeat,2021.2.3,59.89114147857275,
4,4,0,1,3,3,2,1,0,1,1,0,0,1,0,0,48,48,48,,,,,,,,,,,,,,,,,,,,,,,,,,,,,,8,21,female,8,2022_May_06_0914,Partial repeat,2021.2.3,59.89114147857275,
4,4,0,1,2,2,1,2,0,0,1,0,1,1,0,0,49,49,49,0,0,0,0,,,,,,,490.11683139950037,None,490.4044668003917,None,491.3189352992922,None,l,1,0.6825967002660036,491.3189352992922,None,None,None,,,,,,,8,21,female,8,2022_May_06_0914,Partial repeat,2021.2.3,59.89114147857275,
4,4,0,1,2,2,1,2,0,0,1,0,1,1,0,0,49,49,49,1,0,1,0,,,,,,,,,492.0104124005884,None,492.8050597999245,None,l,1,0.38040170073509216,492.8050597999245,None,None,None,,,,,,,8,21,female,8,2022_May_06_0914,Partial repeat,2021.2.3,59.89114147857275,
4,4,0,1,2,2,1,2,0,0,1,0,1,1,0,0,49,49,49,,,,,,,,,,,,,,,,,,,,,,,,,,,,,,8,21,female,8,2022_May_06_0914,Partial repeat,2021.2.3,59.89114147857275,
4,4,0,1,2,3,1,1,1,0,0,1,0,1,0,0,50,50,50,0,0,0,0,,,,,,,493.20585430040956,None,493.49382039904594,None,494.24099710024893,None,s,1,0.520430400967598,494.24099710024893,None,None,None,,,,,,,8,21,female,8,2022_May_06_0914,Partial repeat,2021.2.3,59.89114147857275,
4,4,0,1,2,3,1,1,1,0,0,1,0,1,0,0,50,50,50,1,0,1,0,,,,,,,,,494.7865318004042,None,495.5268147997558,None,l,1,0.474609499797225,495.5268147997558,None,None,None,,,,,,,8,21,female,8,2022_May_06_0914,Partial repeat,2021.2.3,59.89114147857275,
4,4,0,1,2,3,1,1,1,0,0,1,0,1,0,0,50,50,50,,,,,,,,,,,,,,,,,,,,,,,,,,,,,,8,21,female,8,2022_May_06_0914,Partial repeat,2021.2.3,59.89114147857275,
4,4,0,1,2,3,1,1,0,0,0,1,1,1,0,0,51,51,51,0,0,0,0,,,,,,,496.0119783990085,None,496.39949990063906,None,497.33069420047104,None,l,1,0.4787281006574631,497.33069420047104,None,None,None,,,,,,,8,21,female,8,2022_May_06_0914,Partial repeat,2021.2.3,59.89114147857275,
4,4,0,1,2,3,1,1,0,0,0,1,1,1,0,0,51,51,51,1,0,1,0,,,,,,,,,497.8329255003482,None,498.73307229951024,None,l,1,0.4924238007515669,498.73307229951024,None,None,None,,,,,,,8,21,female,8,2022_May_06_0914,Partial repeat,2021.2.3,59.89114147857275,
4,4,0,1,2,3,1,1,0,0,0,1,1,1,0,0,51,51,51,,,,,,,,,,,,,,,,,,,,,,,,,,,,,,8,21,female,8,2022_May_06_0914,Partial repeat,2021.2.3,59.89114147857275,
4,4,0,1,3,2,2,2,0,0,0,1,1,1,0,0,52,52,52,0,0,0,0,,,,,,,499.23857890069485,None,499.5388992000371,None,500.3027637992054,None,l,1,0.4826627988368273,500.3027637992054,None,None,None,,,,,,,8,21,female,8,2022_May_06_0914,Partial repeat,2021.2.3,59.89114147857275,
4,4,0,1,3,2,2,2,0,0,0,1,1,1,0,0,52,52,52,1,0,1,0,,,,,,,,,500.8047623001039,None,501.77218749932945,None,l,1,0.4612233992666006,501.77218749932945,None,None,None,,,,,,,8,21,female,8,2022_May_06_0914,Partial repeat,2021.2.3,59.89114147857275,
4,4,0,1,3,2,2,2,0,0,0,1,1,1,0,0,52,52,52,,,,,,,,,,,,,,,,,,,,,,,,,,,,,,8,21,female,8,2022_May_06_0914,Partial repeat,2021.2.3,59.89114147857275,
4,4,0,1,3,2,1,1,1,0,0,1,0,1,0,0,53,53,53,0,0,0,0,,,,,,,502.25879500061274,None,502.5614251997322,None,503.3088748008013,None,s,1,0.46854760125279427,503.3088748008013,None,None,None,,,,,,,8,21,female,8,2022_May_06_0914,Partial repeat,2021.2.3,59.89114147857275,
4,4,0,1,3,2,1,1,1,0,0,1,0,1,0,0,53,53,53,1,0,1,0,,,,,,,,,503.79036930017173,None,504.7616085000336,None,l,1,0.44778529927134514,504.7616085000336,None,None,None,,,,,,,8,21,female,8,2022_May_06_0914,Partial repeat,2021.2.3,59.89114147857275,
4,4,0,1,3,2,1,1,1,0,0,1,0,1,0,0,53,53,53,,,,,,,,,,,,,,,,,,,,,,,,,,,,,,8,21,female,8,2022_May_06_0914,Partial repeat,2021.2.3,59.89114147857275,
4,4,0,1,2,3,2,1,1,0,0,0,0,1,0,0,54,54,54,0,0,0,0,,,,,,,505.22603110037744,None,505.4838088005781,None,506.3491220995784,None,s,1,0.6362984012812376,506.3491220995784,None,None,None,,,,,,,8,21,female,8,2022_May_06_0914,Partial repeat,2021.2.3,59.89114147857275,
4,4,0,1,2,3,2,1,1,0,0,0,0,1,0,0,54,54,54,1,0,1,0,,,,,,,,,507.01069010049105,None,507.7839608993381,None,l,1,0.36950810067355633,507.7839608993381,None,None,None,,,,,,,8,21,female,8,2022_May_06_0914,Partial repeat,2021.2.3,59.89114147857275,
4,4,0,1,2,3,2,1,1,0,0,0,0,1,0,0,54,54,54,,,,,,,,,,,,,,,,,,,,,,,,,,,,,,8,21,female,8,2022_May_06_0914,Partial repeat,2021.2.3,59.89114147857275,
4,4,0,1,3,3,1,2,1,0,1,0,0,1,0,0,55,55,55,0,0,0,0,,,,,,,508.1837788000703,None,508.4228857997805,None,509.43787620030344,None,s,1,0.4915705993771553,509.43787620030344,None,None,None,,,,,,,8,21,female,8,2022_May_06_0914,Partial repeat,2021.2.3,59.89114147857275,
4,4,0,1,3,3,1,2,1,0,1,0,0,1,0,0,55,55,55,1,0,1,0,,,,,,,,,509.94340630061924,None,510.9236823003739,None,l,1,0.4217038005590439,510.9236823003739,None,None,None,,,,,,,8,21,female,8,2022_May_06_0914,Partial repeat,2021.2.3,59.89114147857275,
4,4,0,1,3,3,1,2,1,0,1,0,0,1,0,0,55,55,55,,,,,,,,,,,,,,,,,,,,,,,,,,,,,,8,21,female,8,2022_May_06_0914,Partial repeat,2021.2.3,59.89114147857275,
4,4,0,1,3,2,1,2,1,0,0,0,0,1,0,0,56,56,56,0,0,0,0,,,,,,,511.36509509943426,None,511.5790125001222,None,512.3932677991688,None,s,1,0.43212039954960346,512.3932677991688,None,None,None,,,,,,,8,21,female,8,2022_May_06_0914,Partial repeat,2021.2.3,59.89114147857275,
4,4,0,1,3,2,1,2,1,0,0,0,0,1,0,0,56,56,56,1,0,1,0,,,,,,,,,512.8535321000963,None,513.6453660000116,None,l,1,0.4200132992118597,513.6453660000116,None,None,None,,,,,,,8,21,female,8,2022_May_06_0914,Partial repeat,2021.2.3,59.89114147857275,
4,4,0,1,3,2,1,2,1,0,0,0,0,1,0,0,56,56,56,,,,,,,,,,,,,,,,,,,,,,,,,,,,,,8,21,female,8,2022_May_06_0914,Partial repeat,2021.2.3,59.89114147857275,
4,4,0,1,3,2,1,1,1,1,0,1,1,1,0,0,57,57,57,0,0,0,0,,,,,,,514.0862870998681,None,514.317684199661,None,515.2822746001184,None,s,1,0.34322250075638294,515.2822746001184,None,None,None,,,,,,,8,21,female,8,2022_May_06_0914,Partial repeat,2021.2.3,59.89114147857275,
4,4,0,1,3,2,1,1,1,1,0,1,1,1,0,0,57,57,57,1,0,1,0,,,,,,,,,515.6349516008049,None,516.3673563990742,None,s,1,0.6260305009782314,516.3673563990742,None,None,None,,,,,,,8,21,female,8,2022_May_06_0914,Partial repeat,2021.2.3,59.89114147857275,
4,4,0,1,3,2,1,1,1,1,0,1,1,1,0,0,57,57,57,,,,,,,,,,,,,,,,,,,,,,,,,,,,,,8,21,female,8,2022_May_06_0914,Partial repeat,2021.2.3,59.89114147857275,
4,4,0,1,3,2,2,2,1,1,0,1,1,1,0,0,58,58,58,0,0,0,0,,,,,,,517.0054161995649,None,518.3755633998662,None,519.3901263996959,None,s,1,0.507303798571229,519.3901263996959,None,None,None,,,,,,,8,21,female,8,2022_May_06_0914,Partial repeat,2021.2.3,59.89114147857275,
4,4,0,1,3,2,2,2,1,1,0,1,1,1,0,0,58,58,58,1,0,1,0,,,,,,,,,519.9146634992212,None,520.7927081994712,None,s,1,0.4647042006254196,520.7927081994712,None,None,None,,,,,,,8,21,female,8,2022_May_06_0914,Partial repeat,2021.2.3,59.89114147857275,
4,4,0,1,3,2,2,2,1,1,0,1,1,1,0,0,58,58,58,,,,,,,,,,,,,,,,,,,,,,,,,,,,,,8,21,female,8,2022_May_06_0914,Partial repeat,2021.2.3,59.89114147857275,
4,4,0,1,3,3,2,1,0,0,1,0,1,1,0,0,59,59,59,0,0,0,0,,,,,,,521.2827419992536,None,521.665305800736,None,522.5963598992676,None,l,1,0.4530302993953228,522.5963598992676,None,None,None,,,,,,,8,21,female,8,2022_May_06_0914,Partial repeat,2021.2.3,59.89114147857275,
4,4,0,1,3,3,2,1,0,0,1,0,1,1,0,0,59,59,59,1,0,1,0,,,,,,,,,523.0575594007969,None,523.8985980004072,None,l,1,0.4388168007135391,523.8985980004072,None,None,None,,,,,,,8,21,female,8,2022_May_06_0914,Partial repeat,2021.2.3,59.89114147857275,
4,4,0,1,3,3,2,1,0,0,1,0,1,1,0,0,59,59,59,,,,,,,,,,,,,,,,,,,,,,,,,,,,,,8,21,female,8,2022_May_06_0914,Partial repeat,2021.2.3,59.89114147857275,
4,4,0,1,2,3,1,1,1,1,0,1,1,1,0,0,60,60,60,0,0,0,0,,,,,,,524.3662244006991,None,524.5876070000231,None,525.4683347996324,None,s,1,0.4050847999751568,525.4683347996324,None,None,None,,,,,,,8,21,female,8,2022_May_06_0914,Partial repeat,2021.2.3,59.89114147857275,
4,4,0,1,2,3,1,1,1,1,0,1,1,1,0,0,60,60,60,1,0,1,0,,,,,,,,,525.8846732992679,None,526.7210737001151,None,s,1,0.3283341992646456,526.7210737001151,None,None,None,,,,,,,8,21,female,8,2022_May_06_0914,Partial repeat,2021.2.3,59.89114147857275,
4,4,0,1,2,3,1,1,1,1,0,1,1,1,0,0,60,60,60,,,,,,,,,,,,,,,,,,,,,,,,,,,,,,8,21,female,8,2022_May_06_0914,Partial repeat,2021.2.3,59.89114147857275,
4,4,0,1,2,3,1,2,1,0,0,0,0,1,0,0,61,61,61,0,0,0,0,,,,,,,527.0790477003902,None,527.3931130003184,None,528.1904587000608,None,s,1,0.4349572993814945,528.1904587000608,None,None,None,,,,,,,8,21,female,8,2022_May_06_0914,Partial repeat,2021.2.3,59.89114147857275,
4,4,0,1,2,3,1,2,1,0,0,0,0,1,0,0,61,61,61,1,0,1,0,,,,,,,,,528.6516233999282,None,529.5763328000903,None,l,1,0.4011442009359598,529.5763328000903,None,None,None,,,,,,,8,21,female,8,2022_May_06_0914,Partial repeat,2021.2.3,59.89114147857275,
4,4,0,1,2,3,1,2,1,0,0,0,0,1,0,0,61,61,61,,,,,,,,,,,,,,,,,,,,,,,,,,,,,,8,21,female,8,2022_May_06_0914,Partial repeat,2021.2.3,59.89114147857275,
4,4,0,1,2,3,2,1,1,1,0,0,1,1,0,0,62,62,62,0,0,0,0,,,,,,,529.9971392992884,None,530.5659704990685,None,531.3801054991782,None,s,1,0.405333099886775,531.3801054991782,None,None,None,,,,,,,8,21,female,8,2022_May_06_0914,Partial repeat,2021.2.3,59.89114147857275,
4,4,0,1,2,3,2,1,1,1,0,0,1,1,0,0,62,62,62,1,0,1,0,,,,,,,,,531.7967897001654,None,532.7827757000923,None,s,1,0.6346311997622252,532.7827757000923,None,None,None,,,,,,,8,21,female,8,2022_May_06_0914,Partial repeat,2021.2.3,59.89114147857275,
4,4,0,1,2,3,2,1,1,1,0,0,1,1,0,0,62,62,62,,,,,,,,,,,,,,,,,,,,,,,,,,,,,,8,21,female,8,2022_May_06_0914,Partial repeat,2021.2.3,59.89114147857275,
4,4,0,1,2,2,2,2,1,0,1,1,0,1,0,0,63,63,63,0,0,0,0,,,,,,,533.433439200744,None,533.7053577005863,None,534.6863822992891,None,s,1,0.41896000131964684,534.6863822992891,None,None,None,,,,,,,8,21,female,8,2022_May_06_0914,Partial repeat,2021.2.3,59.89114147857275,
4,4,0,1,2,2,2,2,1,0,1,1,0,1,0,0,63,63,63,1,0,1,0,,,,,,,,,535.1235655993223,None,535.98967500031,None,l,1,0.5238749999552965,535.98967500031,None,None,None,,,,,,,8,21,female,8,2022_May_06_0914,Partial repeat,2021.2.3,59.89114147857275,
4,4,0,1,2,2,2,2,1,0,1,1,0,1,0,0,63,63,63,,,,,,,,,,,,,,,,,,,,,,,,,,,,,,8,21,female,8,2022_May_06_0914,Partial repeat,2021.2.3,59.89114147857275,
5,8,0,1,3,3,1,2,0,0,1,0,1,0,0,0,64,64,64,0,0,0,0,,,,,,,542.3601615000516,None,543.4408337008208,None,544.3388531990349,None,l,1,0.7345517985522747,544.3388531990349,None,None,None,,,,,,,8,21,female,8,2022_May_06_0914,Partial repeat,2021.2.3,59.89114147857275,
5,8,0,1,3,3,1,2,0,0,1,0,1,0,0,0,64,64,64,1,0,1,0,,,,,,,,,545.0864530000836,None,545.8914001006633,None,l,1,0.7019995003938675,545.8914001006633,None,None,None,,,,,,,8,21,female,8,2022_May_06_0914,Partial repeat,2021.2.3,59.89114147857275,
5,8,0,1,3,3,1,2,0,0,1,0,1,0,0,0,64,64,64,,,,,,,,,,,,,,,,,,,,,,,,,,,,,,8,21,female,8,2022_May_06_0914,Partial repeat,2021.2.3,59.89114147857275,
2,3,0,1,2,2,1,1,1,1,1,1,1,0,0,0,65,65,65,0,0,0,0,,,,,,,546.6142411995679,None,547.4654810000211,None,548.3130782004446,None,s,1,0.9204029999673367,548.3130782004446,None,None,None,,,,,,,8,21,female,8,2022_May_06_0914,Partial repeat,2021.2.3,59.89114147857275,
2,3,0,1,2,2,1,1,1,1,1,1,1,0,0,0,65,65,65,1,0,1,0,,,,,,,,,549.2627198006958,None,549.9829795006663,None,s,1,0.6184128001332283,549.9829795006663,None,None,None,,,,,,,8,21,female,8,2022_May_06_0914,Partial repeat,2021.2.3,59.89114147857275,
2,3,0,1,2,2,1,1,1,1,1,1,1,0,0,0,65,65,65,,,,,,,,,,,,,,,,,,,,,,,,,,,,,,8,21,female,8,2022_May_06_0914,Partial repeat,2021.2.3,59.89114147857275,
6,1,0,1,2,3,2,1,0,1,0,0,0,0,0,0,66,66,66,0,0,0,0,,,,,,,550.6186014991254,None,550.8720817007124,None,551.669560700655,None,l,1,0.6278406009078026,551.669560700655,None,None,None,,,,,,,8,21,female,8,2022_May_06_0914,Partial repeat,2021.2.3,59.89114147857275,
6,1,0,1,2,3,2,1,0,1,0,0,0,0,0,0,66,66,66,1,0,1,0,,,,,,,,,552.3228779993951,None,553.0723462998867,None,l,0,0.5610562991350889,553.0723462998867,None,553.6475763991475,None,,,,,,,8,21,female,8,2022_May_06_0914,Partial repeat,2021.2.3,59.89114147857275,
6,1,0,1,2,3,2,1,0,1,0,0,0,0,0,0,66,66,66,,,,,,,,,,,,,,,,,,,,,,,,,,,,,,8,21,female,8,2022_May_06_0914,Partial repeat,2021.2.3,59.89114147857275,
2,8,0,1,3,2,1,2,1,0,0,0,0,0,0,0,67,67,67,0,0,0,0,,,,,,,554.1618402991444,None,554.8131329994649,None,555.5936788991094,None,s,1,0.6237644013017416,555.5936788991094,None,None,None,,,,,,,8,21,female,8,2022_May_06_0914,Partial repeat,2021.2.3,59.89114147857275,
2,8,0,1,3,2,1,2,1,0,0,0,0,0,0,0,67,67,67,1,0,1,0,,,,,,,,,556.2457075994462,None,556.9795618001372,None,l,1,0.6538111995905638,556.9795618001372,None,None,None,,,,,,,8,21,female,8,2022_May_06_0914,Partial repeat,2021.2.3,59.89114147857275,
2,8,0,1,3,2,1,2,1,0,0,0,0,0,0,0,67,67,67,,,,,,,,,,,,,,,,,,,,,,,,,,,,,,8,21,female,8,2022_May_06_0914,Partial repeat,2021.2.3,59.89114147857275,
5,1,0,1,3,3,2,1,0,1,1,0,0,0,0,0,68,68,68,0,0,0,0,,,,,,,557.6635858006775,None,557.8854514006525,None,558.6164923999459,None,s,0,0.9208418000489473,558.6164923999459,None,559.5490717999637,None,,,,,,,8,21,female,8,2022_May_06_0914,Partial repeat,2021.2.3,59.89114147857275,
5,1,0,1,3,3,2,1,0,1,1,0,0,0,0,0,68,68,68,1,0,1,0,,,,,,,,,560.0566178001463,None,560.7882298007607,None,s,1,0.7651605997234583,560.7882298007607,None,None,None,,,,,,,8,21,female,8,2022_May_06_0914,Partial repeat,2021.2.3,59.89114147857275,
5,1,0,1,3,3,2,1,0,1,1,0,0,0,0,0,68,68,68,,,,,,,,,,,,,,,,,,,,,,,,,,,,,,8,21,female,8,2022_May_06_0914,Partial repeat,2021.2.3,59.89114147857275,
5,6,0,1,3,2,2,2,0,0,0,1,1,0,0,0,69,69,69,0,0,0,0,,,,,,,561.5784692000598,None,561.9436089005321,None,562.7575337998569,None,l,1,0.5318577997386456,562.7575337998569,None,None,None,,,,,,,8,21,female,8,2022_May_06_0914,Partial repeat,2021.2.3,59.89114147857275,
5,6,0,1,3,2,2,2,0,0,0,1,1,0,0,0,69,69,69,1,0,1,0,,,,,,,,,563.3057652004063,None,564.310838399455,None,l,1,0.6266255993396044,564.310838399455,None,None,None,,,,,,,8,21,female,8,2022_May_06_0914,Partial repeat,2021.2.3,59.89114147857275,
5,6,0,1,3,2,2,2,0,0,0,1,1,0,0,0,69,69,69,,,,,,,,,,,,,,,,,,,,,,,,,,,,,,8,21,female,8,2022_May_06_0914,Partial repeat,2021.2.3,59.89114147857275,
2,1,0,1,3,3,2,1,0,0,1,0,1,0,0,0,70,70,70,0,0,0,0,,,,,,,564.9501859005541,None,565.4170682001859,None,566.3813530001789,None,l,1,0.900033600628376,566.3813530001789,None,None,None,,,,,,,8,21,female,8,2022_May_06_0914,Partial repeat,2021.2.3,59.89114147857275,
2,1,0,1,3,3,2,1,0,0,1,0,1,0,0,0,70,70,70,1,0,1,0,,,,,,,,,567.2977390997112,None,568.2183046992868,None,l,1,0.4710445012897253,568.2183046992868,None,None,None,,,,,,,8,21,female,8,2022_May_06_0914,Partial repeat,2021.2.3,59.89114147857275,
2,1,0,1,3,3,2,1,0,0,1,0,1,0,0,0,70,70,70,,,,,,,,,,,,,,,,,,,,,,,,,,,,,,8,21,female,8,2022_May_06_0914,Partial repeat,2021.2.3,59.89114147857275,
3,1,0,1,3,3,2,1,1,1,1,0,1,0,0,0,71,71,71,0,0,0,0,,,,,,,568.7047703992575,None,568.9573020003736,None,569.9384157005697,None,s,1,0.6149668004363775,569.9384157005697,None,None,None,,,,,,,8,21,female,8,2022_May_06_0914,Partial repeat,2021.2.3,59.89114147857275,
3,1,0,1,3,3,2,1,1,1,1,0,1,0,0,0,71,71,71,1,0,1,0,,,,,,,,,570.5750539004803,None,571.3910346999764,None,s,1,0.570362301543355,571.3910346999764,None,None,None,,,,,,,8,21,female,8,2022_May_06_0914,Partial repeat,2021.2.3,59.89114147857275,
3,1,0,1,3,3,2,1,1,1,1,0,1,0,0,0,71,71,71,,,,,,,,,,,,,,,,,,,,,,,,,,,,,,8,21,female,8,2022_May_06_0914,Partial repeat,2021.2.3,59.89114147857275,
8,4,0,1,2,3,1,2,0,0,0,0,1,0,0,0,72,72,72,0,0,0,0,,,,,,,571.9840628001839,None,572.2136597000062,None,573.1446476001292,None,l,1,0.4887330997735262,573.1446476001292,None,None,None,,,,,,,8,21,female,8,2022_May_06_0914,Partial repeat,2021.2.3,59.89114147857275,
8,4,0,1,2,3,1,2,0,0,0,0,1,0,0,0,72,72,72,1,0,1,0,,,,,,,,,573.6480890996754,None,574.4804142005742,None,l,1,0.8409608993679285,574.4804142005742,None,None,None,,,,,,,8,21,female,8,2022_May_06_0914,Partial repeat,2021.2.3,59.89114147857275,
8,4,0,1,2,3,1,2,0,0,0,0,1,0,0,0,72,72,72,,,,,,,,,,,,,,,,,,,,,,,,,,,,,,8,21,female,8,2022_May_06_0914,Partial repeat,2021.2.3,59.89114147857275,
3,8,0,1,2,3,2,2,1,1,0,1,1,0,0,0,73,73,73,0,0,0,0,,,,,,,575.3419949002564,None,575.5534640997648,None,576.3015988990664,None,s,1,0.5557799004018307,576.3015988990664,None,None,None,,,,,,,8,21,female,8,2022_May_06_0914,Partial repeat,2021.2.3,59.89114147857275,
3,8,0,1,2,3,2,2,1,1,0,1,1,0,0,0,73,73,73,1,0,1,0,,,,,,,,,576.8695864994079,None,577.8539822995663,None,s,1,0.8194611985236406,577.8539822995663,None,None,None,,,,,,,8,21,female,8,2022_May_06_0914,Partial repeat,2021.2.3,59.89114147857275,
3,8,0,1,2,3,2,2,1,1,0,1,1,0,0,0,73,73,73,,,,,,,,,,,,,,,,,,,,,,,,,,,,,,8,21,female,8,2022_May_06_0914,Partial repeat,2021.2.3,59.89114147857275,
4,2,0,1,3,2,2,2,1,0,0,1,0,0,0,0,74,74,74,0,0,0,0,,,,,,,578.6861020997167,None,578.8932849001139,None,579.7075935006142,None,s,1,0.5337857995182276,579.7075935006142,None,None,None,,,,,,,8,21,female,8,2022_May_06_0914,Partial repeat,2021.2.3,59.89114147857275,
4,2,0,1,3,2,2,2,1,0,0,1,0,0,0,0,74,74,74,1,0,1,0,,,,,,,,,580.2552176006138,None,581.2106541004032,None,l,1,0.5667495001107454,581.2106541004032,None,None,None,,,,,,,8,21,female,8,2022_May_06_0914,Partial repeat,2021.2.3,59.89114147857275,
4,2,0,1,3,2,2,2,1,0,0,1,0,0,0,0,74,74,74,,,,,,,,,,,,,,,,,,,,,,,,,,,,,,8,21,female,8,2022_May_06_0914,Partial repeat,2021.2.3,59.89114147857275,
7,6,0,1,2,3,2,1,1,1,0,0,1,0,0,0,75,75,75,0,0,0,0,,,,,,,581.808459000662,None,582.0326575990766,None,582.8132154997438,None,s,1,0.5162249002605677,582.8132154997438,None,None,None,,,,,,,8,21,female,8,2022_May_06_0914,Partial repeat,2021.2.3,59.89114147857275,
7,6,0,1,2,3,2,1,1,1,0,0,1,0,0,0,75,75,75,1,0,1,0,,,,,,,,,583.3382188994437,None,584.065717600286,None,s,1,0.5837685987353325,584.065717600286,None,None,None,,,,,,,8,21,female,8,2022_May_06_0914,Partial repeat,2021.2.3,59.89114147857275,
7,6,0,1,2,3,2,1,1,1,0,0,1,0,0,0,75,75,75,,,,,,,,,,,,,,,,,,,,,,,,,,,,,,8,21,female,8,2022_May_06_0914,Partial repeat,2021.2.3,59.89114147857275,
3,6,0,1,2,3,2,1,1,0,0,0,0,0,0,0,76,76,76,0,0,0,0,,,,,,,584.6613094005734,None,585.1385989002883,None,586.0194598007947,None,s,1,0.5179647989571095,586.0194598007947,None,None,None,,,,,,,8,21,female,8,2022_May_06_0914,Partial repeat,2021.2.3,59.89114147857275,
3,6,0,1,2,3,2,1,1,0,0,0,0,0,0,0,76,76,76,1,0,1,0,,,,,,,,,586.566104600206,None,587.3386148996651,None,l,1,0.622766500338912,587.3386148996651,None,None,None,,,,,,,8,21,female,8,2022_May_06_0914,Partial repeat,2021.2.3,59.89114147857275,
3,6,0,1,2,3,2,1,1,0,0,0,0,0,0,0,76,76,76,,,,,,,,,,,,,,,,,,,,,,,,,,,,,,8,21,female,8,2022_May_06_0914,Partial repeat,2021.2.3,59.89114147857275,
2,5,0,1,3,3,1,1,0,1,1,1,0,0,0,0,77,77,77,0,0,0,0,,,,,,,587.9731569997966,None,588.2280480992049,None,589.0255597997457,None,l,1,0.7358477003872395,589.0255597997457,None,None,None,,,,,,,8,21,female,8,2022_May_06_0914,Partial repeat,2021.2.3,59.89114147857275,
2,5,0,1,3,3,1,1,0,1,1,1,0,0,0,0,77,77,77,1,0,1,0,,,,,,,,,589.7855303995311,None,590.7620622999966,None,s,1,0.6153171006590128,590.7620622999966,None,None,None,,,,,,,8,21,female,8,2022_May_06_0914,Partial repeat,2021.2.3,59.89114147857275,
2,5,0,1,3,3,1,1,0,1,1,1,0,0,0,0,77,77,77,,,,,,,,,,,,,,,,,,,,,,,,,,,,,,8,21,female,8,2022_May_06_0914,Partial repeat,2021.2.3,59.89114147857275,
5,7,0,1,3,3,1,2,1,0,1,0,0,0,0,0,78,78,78,0,0,0,0,,,,,,,591.4033236000687,None,591.8350451998413,None,592.749367499724,None,s,1,0.5560849998146296,592.749367499724,None,None,None,,,,,,,8,21,female,8,2022_May_06_0914,Partial repeat,2021.2.3,59.89114147857275,
5,7,0,1,3,3,1,2,1,0,1,0,0,0,0,0,78,78,78,1,0,1,0,,,,,,,,,593.3140571992844,None,594.2524296995252,None,l,1,0.6209427993744612,594.2524296995252,None,None,None,,,,,,,8,21,female,8,2022_May_06_0914,Partial repeat,2021.2.3,59.89114147857275,
5,7,0,1,3,3,1,2,1,0,1,0,0,0,0,0,78,78,78,,,,,,,,,,,,,,,,,,,,,,,,,,,,,,8,21,female,8,2022_May_06_0914,Partial repeat,2021.2.3,59.89114147857275,
1,4,0,1,3,2,2,1,0,1,0,0,0,0,0,0,79,79,79,0,0,0,0,,,,,,,594.8883400000632,None,595.2417617999017,None,596.2238954994828,None,l,1,0.721484400331974,596.2238954994828,None,None,None,,,,,,,8,21,female,8,2022_May_06_0914,Partial repeat,2021.2.3,59.89114147857275,
1,4,0,1,3,2,2,1,0,1,0,0,0,0,0,0,79,79,79,1,0,1,0,,,,,,,,,596.9650554005057,None,597.8091048002243,None,s,1,0.6323973014950752,597.8091048002243,None,None,None,,,,,,,8,21,female,8,2022_May_06_0914,Partial repeat,2021.2.3,59.89114147857275,
1,4,0,1,3,2,2,1,0,1,0,0,0,0,0,0,79,79,79,,,,,,,,,,,,,,,,,,,,,,,,,,,,,,8,21,female,8,2022_May_06_0914,Partial repeat,2021.2.3,59.89114147857275,
4,4,0,1,2,3,2,2,1,0,0,1,0,0,0,0,80,80,80,0,0,0,0,,,,,,,598.4714005999267,None,598.8487902991474,None,599.6629933007061,None,s,1,0.570363299921155,599.6629933007061,None,None,None,,,,,,,8,21,female,8,2022_May_06_0914,Partial repeat,2021.2.3,59.89114147857275,
4,4,0,1,2,3,2,2,1,0,0,1,0,0,0,0,80,80,80,1,0,1,0,,,,,,,,,600.251827199012,None,601.065878700465,None,l,1,0.7034550998359919,601.065878700465,None,None,None,,,,,,,8,21,female,8,2022_May_06_0914,Partial repeat,2021.2.3,59.89114147857275,
4,4,0,1,2,3,2,2,1,0,0,1,0,0,0,0,80,80,80,,,,,,,,,,,,,,,,,,,,,,,,,,,,,,8,21,female,8,2022_May_06_0914,Partial repeat,2021.2.3,59.89114147857275,
4,8,0,1,3,2,2,2,0,1,0,1,0,0,0,0,81,81,81,0,0,0,0,,,,,,,601.7914455998689,None,602.3055028989911,None,603.0863042995334,None,l,1,0.555070798844099,603.0863042995334,None,None,None,,,,,,,8,21,female,8,2022_May_06_0914,Partial repeat,2021.2.3,59.89114147857275,
4,8,0,1,3,2,2,2,0,1,0,1,0,0,0,0,81,81,81,1,0,1,0,,,,,,,,,603.6555068995804,None,604.5229017995298,None,s,1,0.702488899230957,604.5229017995298,None,None,None,,,,,,,8,21,female,8,2022_May_06_0914,Partial repeat,2021.2.3,59.89114147857275,
4,8,0,1,3,2,2,2,0,1,0,1,0,0,0,0,81,81,81,,,,,,,,,,,,,,,,,,,,,,,,,,,,,,8,21,female,8,2022_May_06_0914,Partial repeat,2021.2.3,59.89114147857275,
4,5,0,1,3,2,1,1,1,1,0,1,1,0,0,0,82,82,82,0,0,0,0,,,,,,,605.2471532002091,None,605.6620306000113,None,606.4761528000236,None,s,1,0.61321210116148,606.4761528000236,None,None,None,,,,,,,8,21,female,8,2022_May_06_0914,Partial repeat,2021.2.3,59.89114147857275,
4,5,0,1,3,2,1,1,1,1,0,1,1,0,0,0,82,82,82,1,0,1,0,,,,,,,,,607.1065862998366,None,607.9456654991955,None,s,1,0.5357089005410671,607.9456654991955,None,None,None,,,,,,,8,21,female,8,2022_May_06_0914,Partial repeat,2021.2.3,59.89114147857275,
4,5,0,1,3,2,1,1,1,1,0,1,1,0,0,0,82,82,82,,,,,,,,,,,,,,,,,,,,,,,,,,,,,,8,21,female,8,2022_May_06_0914,Partial repeat,2021.2.3,59.89114147857275,
1,7,0,1,2,2,1,2,1,1,1,0,1,0,0,0,83,83,83,0,0,0,0,,,,,,,608.4972620997578,None,610.2375808991492,None,611.0515183005482,None,s,1,0.7018450982868671,611.0515183005482,None,None,None,,,,,,,8,21,female,8,2022_May_06_0914,Partial repeat,2021.2.3,59.89114147857275,
1,7,0,1,2,2,1,2,1,1,1,0,1,0,0,0,83,83,83,1,0,1,0,,,,,,,,,611.7718238998204,None,612.5551153998822,None,l,0,0.6062525007873774,612.5551153998822,None,613.1760089006275,None,,,,,,,8,21,female,8,2022_May_06_0914,Partial repeat,2021.2.3,59.89114147857275,
1,7,0,1,2,2,1,2,1,1,1,0,1,0,0,0,83,83,83,,,,,,,,,,,,,,,,,,,,,,,,,,,,,,8,21,female,8,2022_May_06_0914,Partial repeat,2021.2.3,59.89114147857275,
1,3,0,1,2,3,1,1,0,0,0,1,1,0,0,0,84,84,84,0,0,0,0,,,,,,,613.6776769999415,None,614.3288717996329,None,615.1761623993516,None,l,1,0.7612050995230675,615.1761623993516,None,None,None,,,,,,,8,21,female,8,2022_May_06_0914,Partial repeat,2021.2.3,59.89114147857275,
1,3,0,1,2,3,1,1,0,0,0,1,1,0,0,0,84,84,84,1,0,1,0,,,,,,,,,615.95711879991,None,616.8795625995845,None,l,1,0.6977944988757372,616.8795625995845,None,None,None,,,,,,,8,21,female,8,2022_May_06_0914,Partial repeat,2021.2.3,59.89114147857275,
1,3,0,1,2,3,1,1,0,0,0,1,1,0,0,0,84,84,84,,,,,,,,,,,,,,,,,,,,,,,,,,,,,,8,21,female,8,2022_May_06_0914,Partial repeat,2021.2.3,59.89114147857275,
5,4,0,1,3,2,1,1,1,0,0,1,0,0,0,0,85,85,85,0,0,0,0,,,,,,,617.6056293994188,None,617.8357069008052,None,618.6331823989749,None,s,1,0.5441807005554438,618.6331823989749,None,None,None,,,,,,,8,21,female,8,2022_May_06_0914,Partial repeat,2021.2.3,59.89114147857275,
5,4,0,1,3,2,1,1,1,0,0,1,0,0,0,0,85,85,85,1,0,1,0,,,,,,,,,619.200698800385,None,620.0362360998988,None,l,1,1.0533517003059387,620.0362360998988,None,None,None,,,,,,,8,21,female,8,2022_May_06_0914,Partial repeat,2021.2.3,59.89114147857275,
5,4,0,1,3,2,1,1,1,0,0,1,0,0,0,0,85,85,85,,,,,,,,,,,,,,,,,,,,,,,,,,,,,,8,21,female,8,2022_May_06_0914,Partial repeat,2021.2.3,59.89114147857275,
7,1,0,1,3,2,1,2,0,1,0,0,0,0,0,0,86,86,86,0,0,0,0,,,,,,,621.1202838998288,None,621.4093140996993,None,622.373446200043,None,l,1,0.611947700381279,622.373446200043,None,None,None,,,,,,,8,21,female,8,2022_May_06_0914,Partial repeat,2021.2.3,59.89114147857275,
7,1,0,1,3,2,1,2,0,1,0,0,0,0,0,0,86,86,86,1,0,1,0,,,,,,,,,623.0007109995931,None,623.7430199999362,None,s,1,0.6423362996429205,623.7430199999362,None,None,None,,,,,,,8,21,female,8,2022_May_06_0914,Partial repeat,2021.2.3,59.89114147857275,
7,1,0,1,3,2,1,2,0,1,0,0,0,0,0,0,86,86,86,,,,,,,,,,,,,,,,,,,,,,,,,,,,,,8,21,female,8,2022_May_06_0914,Partial repeat,2021.2.3,59.89114147857275,
2,7,0,1,2,2,2,2,0,0,1,1,1,0,0,0,87,87,87,0,0,0,0,,,,,,,624.4085003994405,None,624.6489891000092,None,625.4796645008028,None,l,1,0.7776947990059853,625.4796645008028,None,None,None,,,,,,,8,21,female,8,2022_May_06_0914,Partial repeat,2021.2.3,59.89114147857275,
2,7,0,1,2,2,2,2,0,0,1,1,1,0,0,0,87,87,87,1,0,1,0,,,,,,,,,626.2822060994804,None,627.066031800583,None,l,1,0.639300599694252,627.066031800583,None,None,None,,,,,,,8,21,female,8,2022_May_06_0914,Partial repeat,2021.2.3,59.89114147857275,
2,7,0,1,2,2,2,2,0,0,1,1,1,0,0,0,87,87,87,,,,,,,,,,,,,,,,,,,,,,,,,,,,,,8,21,female,8,2022_May_06_0914,Partial repeat,2021.2.3,59.89114147857275,
7,5,0,1,2,3,1,1,1,0,0,1,0,0,0,0,88,88,88,0,0,0,0,,,,,,,627.7264633998275,None,627.9720565993339,None,628.8196153007448,None,s,1,0.7097757011651993,628.8196153007448,None,None,None,,,,,,,8,21,female,8,2022_May_06_0914,Partial repeat,2021.2.3,59.89114147857275,
7,5,0,1,2,3,1,1,1,0,0,1,0,0,0,0,88,88,88,1,0,1,0,,,,,,,,,629.5377337001264,None,630.5060351006687,None,l,1,0.5594046004116535,630.5060351006687,None,None,None,,,,,,,8,21,female,8,2022_May_06_0914,Partial repeat,2021.2.3,59.89114147857275,
7,5,0,1,2,3,1,1,1,0,0,1,0,0,0,0,88,88,88,,,,,,,,,,,,,,,,,,,,,,,,,,,,,,8,21,female,8,2022_May_06_0914,Partial repeat,2021.2.3,59.89114147857275,
6,7,0,1,3,3,1,1,1,0,1,1,0,0,0,0,89,89,89,0,0,0,0,,,,,,,631.0787895992398,None,631.311942499131,None,632.2596802990884,None,l,0,0.6376885008066893,632.2596802990884,None,632.9126955997199,None,,,,,,,8,21,female,8,2022_May_06_0914,Partial repeat,2021.2.3,59.89114147857275,
6,7,0,1,3,3,1,1,1,0,1,1,0,0,0,0,89,89,89,1,0,1,0,,,,,,,,,633.415993899107,None,634.3633827995509,None,l,1,0.5099720004945993,634.3633827995509,None,None,None,,,,,,,8,21,female,8,2022_May_06_0914,Partial repeat,2021.2.3,59.89114147857275,
6,7,0,1,3,3,1,1,1,0,1,1,0,0,0,0,89,89,89,,,,,,,,,,,,,,,,,,,,,,,,,,,,,,8,21,female,8,2022_May_06_0914,Partial repeat,2021.2.3,59.89114147857275,
1,6,0,1,2,2,1,2,0,1,1,0,0,0,0,0,90,90,90,0,0,0,0,,,,,,,634.8935205992311,None,635.085939200595,None,635.8334215991199,None,l,1,0.6399819999933243,635.8334215991199,None,None,None,,,,,,,8,21,female,8,2022_May_06_0914,Partial repeat,2021.2.3,59.89114147857275,
1,6,0,1,2,2,1,2,0,1,1,0,0,0,0,0,90,90,90,1,0,1,0,,,,,,,,,636.4997579995543,None,637.3863538000733,None,s,1,0.6389974001795053,637.3863538000733,None,None,None,,,,,,,8,21,female,8,2022_May_06_0914,Partial repeat,2021.2.3,59.89114147857275,
1,6,0,1,2,2,1,2,0,1,1,0,0,0,0,0,90,90,90,,,,,,,,,,,,,,,,,,,,,,,,,,,,,,8,21,female,8,2022_May_06_0914,Partial repeat,2021.2.3,59.89114147857275,
5,2,0,1,2,3,1,2,1,1,0,0,1,0,0,0,91,91,91,0,0,0,0,,,,,,,638.0471032001078,None,638.2253635991365,None,639.1905272006989,None,s,1,0.698887899518013,639.1905272006989,None,None,None,,,,,,,8,21,female,8,2022_May_06_0914,Partial repeat,2021.2.3,59.89114147857275,
5,2,0,1,2,3,1,2,1,1,0,0,1,0,0,0,91,91,91,1,0,1,0,,,,,,,,,639.9170765001327,None,640.8264125008136,None,s,1,0.6309756990522146,640.8264125008136,None,None,None,,,,,,,8,21,female,8,2022_May_06_0914,Partial repeat,2021.2.3,59.89114147857275,
5,2,0,1,2,3,1,2,1,1,0,0,1,0,0,0,91,91,91,,,,,,,,,,,,,,,,,,,,,,,,,,,,,,8,21,female,8,2022_May_06_0914,Partial repeat,2021.2.3,59.89114147857275,
3,7,0,1,3,3,2,2,0,0,1,1,1,0,0,0,92,92,92,0,0,0,0,,,,,,,641.4853479005396,None,641.8324100989848,None,642.5629136003554,None,l,1,0.6784396003931761,642.5629136003554,None,None,None,,,,,,,8,21,female,8,2022_May_06_0914,Partial repeat,2021.2.3,59.89114147857275,
3,7,0,1,3,3,2,2,0,0,1,1,1,0,0,0,92,92,92,1,0,1,0,,,,,,,,,643.2612417992204,None,644.2329955007881,None,l,1,0.520397899672389,644.2329955007881,None,None,None,,,,,,,8,21,female,8,2022_May_06_0914,Partial repeat,2021.2.3,59.89114147857275,
3,7,0,1,3,3,2,2,0,0,1,1,1,0,0,0,92,92,92,,,,,,,,,,,,,,,,,,,,,,,,,,,,,,8,21,female,8,2022_May_06_0914,Partial repeat,2021.2.3,59.89114147857275,
8,2,0,1,3,2,2,1,0,0,0,0,1,0,0,0,93,93,93,0,0,0,0,,,,,,,644.7650215998292,None,645.0553127992898,None,645.7860048003495,None,l,1,0.5033499002456665,645.7860048003495,None,None,None,,,,,,,8,21,female,8,2022_May_06_0914,Partial repeat,2021.2.3,59.89114147857275,
8,2,0,1,3,2,2,1,0,0,0,0,1,0,0,0,93,93,93,1,0,1,0,,,,,,,,,646.3120374996215,None,647.3223618008196,None,l,1,0.5749604012817144,647.3223618008196,None,None,None,,,,,,,8,21,female,8,2022_May_06_0914,Partial repeat,2021.2.3,59.89114147857275,
8,2,0,1,3,2,2,1,0,0,0,0,1,0,0,0,93,93,93,,,,,,,,,,,,,,,,,,,,,,,,,,,,,,8,21,female,8,2022_May_06_0914,Partial repeat,2021.2.3,59.89114147857275,
6,2,0,1,3,2,1,2,0,0,0,0,1,0,0,0,94,94,94,0,0,0,0,,,,,,,647.9111320991069,None,648.1613746993244,None,649.0755754001439,None,l,1,0.5897973999381065,649.0755754001439,None,None,None,,,,,,,8,21,female,8,2022_May_06_0914,Partial repeat,2021.2.3,59.89114147857275,
6,2,0,1,3,2,1,2,0,0,0,0,1,0,0,0,94,94,94,1,0,1,0,,,,,,,,,649.6844519004226,None,650.6630598995835,None,l,1,0.6182856988161802,650.6630598995835,None,None,None,,,,,,,8,21,female,8,2022_May_06_0914,Partial repeat,2021.2.3,59.89114147857275,
6,2,0,1,3,2,1,2,0,0,0,0,1,0,0,0,94,94,94,,,,,,,,,,,,,,,,,,,,,,,,,,,,,,8,21,female,8,2022_May_06_0914,Partial repeat,2021.2.3,59.89114147857275,
7,7,0,1,3,3,2,1,1,0,1,0,0,0,0,0,95,95,95,0,0,0,0,,,,,,,651.2977354992181,None,651.517884099856,None,652.365494100377,None,l,0,0.7718486990779638,652.365494100377,None,653.1639952994883,None,,,,,,,8,21,female,8,2022_May_06_0914,Partial repeat,2021.2.3,59.89114147857275,
7,7,0,1,3,3,2,1,1,0,1,0,0,0,0,0,95,95,95,1,0,1,0,,,,,,,,,653.6720818001777,None,654.4204172994941,None,l,1,0.7009215988218784,654.4204172994941,None,None,None,,,,,,,8,21,female,8,2022_May_06_0914,Partial repeat,2021.2.3,59.89114147857275,
7,7,0,1,3,3,2,1,1,0,1,0,0,0,0,0,95,95,95,,,,,,,,,,,,,,,,,,,,,,,,,,,,,,8,21,female,8,2022_May_06_0914,Partial repeat,2021.2.3,59.89114147857275,
7,2,0,1,2,3,1,1,0,1,0,1,0,0,0,0,96,96,96,0,0,0,0,,,,,,,655.1475412994623,None,655.3252651002258,None,656.2736846990883,None,l,1,0.5036583002656698,656.2736846990883,None,None,None,,,,,,,8,21,female,8,2022_May_06_0914,Partial repeat,2021.2.3,59.89114147857275,
7,2,0,1,2,3,1,1,0,1,0,1,0,0,0,0,96,96,96,1,0,1,0,,,,,,,,,656.8014567997307,None,657.7272276002914,None,s,1,0.6740499995648861,657.7272276002914,None,None,None,,,,,,,8,21,female,8,2022_May_06_0914,Partial repeat,2021.2.3,59.89114147857275,
7,2,0,1,2,3,1,1,0,1,0,1,0,0,0,0,96,96,96,,,,,,,,,,,,,,,,,,,,,,,,,,,,,,8,21,female,8,2022_May_06_0914,Partial repeat,2021.2.3,59.89114147857275,
1,5,0,1,2,2,1,2,0,0,1,0,1,0,0,0,97,97,97,0,0,0,0,,,,,,,658.4326760992408,None,658.6817962992936,None,659.4471367001534,None,l,1,0.6741738002747297,659.4471367001534,None,None,None,,,,,,,8,21,female,8,2022_May_06_0914,Partial repeat,2021.2.3,59.89114147857275,
1,5,0,1,2,2,1,2,0,0,1,0,1,0,0,0,97,97,97,1,0,1,0,,,,,,,,,660.1301365997642,None,660.8657891005278,None,l,1,0.5995343998074532,660.8657891005278,None,None,None,,,,,,,8,21,female,8,2022_May_06_0914,Partial repeat,2021.2.3,59.89114147857275,
1,5,0,1,2,2,1,2,0,0,1,0,1,0,0,0,97,97,97,,,,,,,,,,,,,,,,,,,,,,,,,,,,,,8,21,female,8,2022_May_06_0914,Partial repeat,2021.2.3,59.89114147857275,
2,2,0,1,3,3,1,2,0,1,1,0,0,0,0,0,98,98,98,0,0,0,0,,,,,,,661.489013299346,None,661.7208197992295,None,662.5682247001678,None,l,1,0.4810680001974106,662.5682247001678,None,None,None,,,,,,,8,21,female,8,2022_May_06_0914,Partial repeat,2021.2.3,59.89114147857275,
2,2,0,1,3,3,1,2,0,1,1,0,0,0,0,0,98,98,98,1,0,1,0,,,,,,,,,663.0633122995496,None,663.9667066000402,None,s,1,0.538620000705123,663.9667066000402,None,None,None,,,,,,,8,21,female,8,2022_May_06_0914,Partial repeat,2021.2.3,59.89114147857275,
2,2,0,1,3,3,1,2,0,1,1,0,0,0,0,0,98,98,98,,,,,,,,,,,,,,,,,,,,,,,,,,,,,,8,21,female,8,2022_May_06_0914,Partial repeat,2021.2.3,59.89114147857275,
7,3,0,1,3,3,1,1,0,0,1,1,1,0,0,0,99,99,99,0,0,0,0,,,,,,,664.530694199726,None,664.7266524005681,None,665.4760963991284,None,l,1,0.7092610001564026,665.4760963991284,None,None,None,,,,,,,8,21,female,8,2022_May_06_0914,Partial repeat,2021.2.3,59.89114147857275,
7,3,0,1,3,3,1,1,0,0,1,1,1,0,0,0,99,99,99,1,0,1,0,,,,,,,,,666.2040433995426,None,666.9779096003622,None,l,1,0.935402000322938,666.9779096003622,None,None,None,,,,,,,8,21,female,8,2022_May_06_0914,Partial repeat,2021.2.3,59.89114147857275,
7,3,0,1,3,3,1,1,0,0,1,1,1,0,0,0,99,99,99,,,,,,,,,,,,,,,,,,,,,,,,,,,,,,8,21,female,8,2022_May_06_0914,Partial repeat,2021.2.3,59.89114147857275,
8,6,0,1,3,3,2,2,1,1,1,1,1,0,0,0,100,100,100,0,0,0,0,,,,,,,667.938478000462,None,668.2836469002068,None,669.0475319996476,None,s,1,0.6737898997962475,669.0475319996476,None,None,None,,,,,,,8,21,female,8,2022_May_06_0914,Partial repeat,2021.2.3,59.89114147857275,
8,6,0,1,3,3,2,2,1,1,1,1,1,0,0,0,100,100,100,1,0,1,0,,,,,,,,,669.7441364005208,None,670.7512621991336,None,l,0,0.610139399766922,670.7512621991336,None,671.387797800824,None,,,,,,,8,21,female,8,2022_May_06_0914,Partial repeat,2021.2.3,59.89114147857275,
8,6,0,1,3,3,2,2,1,1,1,1,1,0,0,0,100,100,100,,,,,,,,,,,,,,,,,,,,,,,,,,,,,,8,21,female,8,2022_May_06_0914,Partial repeat,2021.2.3,59.89114147857275,
4,7,0,1,3,2,2,1,1,1,0,0,1,0,0,0,101,101,101,0,0,0,0,,,,,,,671.8908952996135,None,672.4252563007176,None,673.3394539002329,None,s,1,0.6378422994166613,673.3394539002329,None,None,None,,,,,,,8,21,female,8,2022_May_06_0914,Partial repeat,2021.2.3,59.89114147857275,
4,7,0,1,3,2,2,1,1,1,0,0,1,0,0,0,101,101,101,1,0,1,0,,,,,,,,,673.9974237997085,None,674.9605064000934,None,s,1,0.5768306013196707,674.9605064000934,None,None,None,,,,,,,8,21,female,8,2022_May_06_0914,Partial repeat,2021.2.3,59.89114147857275,
4,7,0,1,3,2,2,1,1,1,0,0,1,0,0,0,101,101,101,,,,,,,,,,,,,,,,,,,,,,,,,,,,,,8,21,female,8,2022_May_06_0914,Partial repeat,2021.2.3,59.89114147857275,
3,5,0,1,3,2,1,2,1,1,0,0,1,0,0,0,102,102,102,0,0,0,0,,,,,,,675.5656046997756,None,675.8819092996418,None,676.6297377999872,None,s,1,0.5235942993313074,676.6297377999872,None,None,None,,,,,,,8,21,female,8,2022_May_06_0914,Partial repeat,2021.2.3,59.89114147857275,
3,5,0,1,3,2,1,2,1,1,0,0,1,0,0,0,102,102,102,1,0,1,0,,,,,,,,,677.1743413005024,None,678.1493277996778,None,s,1,0.5159718990325928,678.1493277996778,None,None,None,,,,,,,8,21,female,8,2022_May_06_0914,Partial repeat,2021.2.3,59.89114147857275,
3,5,0,1,3,2,1,2,1,1,0,0,1,0,0,0,102,102,102,,,,,,,,,,,,,,,,,,,,,,,,,,,,,,8,21,female,8,2022_May_06_0914,Partial repeat,2021.2.3,59.89114147857275,
3,4,0,1,3,3,1,2,1,1,1,0,1,0,0,0,103,103,103,0,0,0,0,,,,,,,678.6849601007998,None,679.2882688995451,None,680.0524944998324,None,s,1,0.5888018999248743,680.0524944998324,None,None,None,,,,,,,8,21,female,8,2022_May_06_0914,Partial repeat,2021.2.3,59.89114147857275,
3,4,0,1,3,3,1,2,1,1,1,0,1,0,0,0,103,103,103,1,0,1,0,,,,,,,,,680.6682114005089,None,681.5227860007435,None,s,1,0.5345461014658213,681.5227860007435,None,None,None,,,,,,,8,21,female,8,2022_May_06_0914,Partial repeat,2021.2.3,59.89114147857275,
3,4,0,1,3,3,1,2,1,1,1,0,1,0,0,0,103,103,103,,,,,,,,,,,,,,,,,,,,,,,,,,,,,,8,21,female,8,2022_May_06_0914,Partial repeat,2021.2.3,59.89114147857275,
6,6,0,1,2,2,2,1,0,0,1,0,1,0,0,0,104,104,104,0,0,0,0,,,,,,,682.0828370992094,None,682.3776651993394,None,683.1084956992418,None,l,1,0.8128204997628927,683.1084956992418,None,None,None,,,,,,,8,21,female,8,2022_May_06_0914,Partial repeat,2021.2.3,59.89114147857275,
6,6,0,1,2,2,2,1,0,0,1,0,1,0,0,0,104,104,104,1,0,1,0,,,,,,,,,683.9348258990794,None,684.7617885991931,None,l,1,0.5275250989943743,684.7617885991931,None,None,None,,,,,,,8,21,female,8,2022_May_06_0914,Partial repeat,2021.2.3,59.89114147857275,
6,6,0,1,2,2,2,1,0,0,1,0,1,0,0,0,104,104,104,,,,,,,,,,,,,,,,,,,,,,,,,,,,,,8,21,female,8,2022_May_06_0914,Partial repeat,2021.2.3,59.89114147857275,
3,3,0,1,2,2,2,2,1,0,1,1,0,0,0,0,105,105,105,0,0,0,0,,,,,,,685.3198923002928,None,685.5337696000934,None,686.548613300547,None,s,1,0.6126482002437115,686.548613300547,None,None,None,,,,,,,8,21,female,8,2022_May_06_0914,Partial repeat,2021.2.3,59.89114147857275,
3,3,0,1,2,2,2,2,1,0,1,1,0,0,0,0,105,105,105,1,0,1,0,,,,,,,,,687.1792703997344,None,688.1848242003471,None,l,1,0.544582100585103,688.1848242003471,None,None,None,,,,,,,8,21,female,8,2022_May_06_0914,Partial repeat,2021.2.3,59.89114147857275,
3,3,0,1,2,2,2,2,1,0,1,1,0,0,0,0,105,105,105,,,,,,,,,,,,,,,,,,,,,,,,,,,,,,8,21,female,8,2022_May_06_0914,Partial repeat,2021.2.3,59.89114147857275,
2,4,0,1,2,2,1,1,0,1,1,1,0,0,0,0,106,106,106,0,0,0,0,,,,,,,688.7412724997848,None,688.990847600624,None,689.956537399441,None,l,1,0.6127904001623392,689.956537399441,None,None,None,,,,,,,8,21,female,8,2022_May_06_0914,Partial repeat,2021.2.3,59.89114147857275,
2,4,0,1,2,2,1,1,0,1,1,1,0,0,0,0,106,106,106,1,0,1,0,,,,,,,,,690.5913107004017,None,691.32432170026,None,s,1,0.47701149992644787,691.32432170026,None,None,None,,,,,,,8,21,female,8,2022_May_06_0914,Partial repeat,2021.2.3,59.89114147857275,
2,4,0,1,2,2,1,1,0,1,1,1,0,0,0,0,106,106,106,,,,,,,,,,,,,,,,,,,,,,,,,,,,,,8,21,female,8,2022_May_06_0914,Partial repeat,2021.2.3,59.89114147857275,
4,3,0,1,3,3,1,1,1,1,1,1,1,0,0,0,107,107,107,0,0,0,0,,,,,,,691.8297048006207,None,692.0299925990403,None,692.8439571000636,None,s,1,0.5333869997411966,692.8439571000636,None,None,None,,,,,,,8,21,female,8,2022_May_06_0914,Partial repeat,2021.2.3,59.89114147857275,
4,3,0,1,3,3,1,1,1,1,1,1,1,0,0,0,107,107,107,1,0,1,0,,,,,,,,,693.4053159002215,None,694.3803004007787,None,s,1,0.509026300162077,694.3803004007787,None,None,None,,,,,,,8,21,female,8,2022_May_06_0914,Partial repeat,2021.2.3,59.89114147857275,
4,3,0,1,3,3,1,1,1,1,1,1,1,0,0,0,107,107,107,,,,,,,,,,,,,,,,,,,,,,,,,,,,,,8,21,female,8,2022_May_06_0914,Partial repeat,2021.2.3,59.89114147857275,
1,2,0,1,2,2,1,2,1,0,1,0,0,0,0,0,108,108,108,0,0,0,0,,,,,,,694.9160992000252,None,695.1026418004185,None,695.8499014005065,None,s,1,0.6554404012858868,695.8499014005065,None,None,None,,,,,,,8,21,female,8,2022_May_06_0914,Partial repeat,2021.2.3,59.89114147857275,
1,2,0,1,2,2,1,2,1,0,1,0,0,0,0,0,108,108,108,1,0,1,0,,,,,,,,,696.52781829983,None,697.5200005006045,None,l,1,0.5053235981613398,697.5200005006045,None,None,None,,,,,,,8,21,female,8,2022_May_06_0914,Partial repeat,2021.2.3,59.89114147857275,
1,2,0,1,2,2,1,2,1,0,1,0,0,0,0,0,108,108,108,,,,,,,,,,,,,,,,,,,,,,,,,,,,,,8,21,female,8,2022_May_06_0914,Partial repeat,2021.2.3,59.89114147857275,
8,8,0,1,3,2,1,1,0,1,0,1,0,0,0,0,109,109,109,0,0,0,0,,,,,,,698.0533943995833,None,698.2254070006311,None,699.2231571990997,None,l,1,0.6022554989904165,699.2231571990997,None,None,None,,,,,,,8,21,female,8,2022_May_06_0914,Partial repeat,2021.2.3,59.89114147857275,
8,8,0,1,3,2,1,1,0,1,0,1,0,0,0,0,109,109,109,1,0,1,0,,,,,,,,,699.8359655998647,None,700.8095110990107,None,s,1,0.7358994986861944,700.8095110990107,None,None,None,,,,,,,8,21,female,8,2022_May_06_0914,Partial repeat,2021.2.3,59.89114147857275,
8,8,0,1,3,2,1,1,0,1,0,1,0,0,0,0,109,109,109,,,,,,,,,,,,,,,,,,,,,,,,,,,,,,8,21,female,8,2022_May_06_0914,Partial repeat,2021.2.3,59.89114147857275,
6,5,0,1,2,3,2,2,0,1,0,1,0,0,0,0,110,110,110,0,0,0,0,,,,,,,701.5577982999384,None,701.7823125999421,None,702.512811800465,None,l,1,0.4965908005833626,702.512811800465,None,None,None,,,,,,,8,21,female,8,2022_May_06_0914,Partial repeat,2021.2.3,59.89114147857275,
6,5,0,1,2,3,2,2,0,1,0,1,0,0,0,0,110,110,110,1,0,1,0,,,,,,,,,703.0180897992104,None,703.765406800434,None,s,1,0.7959930002689362,703.765406800434,None,None,None,,,,,,,8,21,female,8,2022_May_06_0914,Partial repeat,2021.2.3,59.89114147857275,
6,5,0,1,2,3,2,2,0,1,0,1,0,0,0,0,110,110,110,,,,,,,,,,,,,,,,,,,,,,,,,,,,,,8,21,female,8,2022_May_06_0914,Partial repeat,2021.2.3,59.89114147857275,
4,6,0,1,3,3,2,2,1,0,1,1,0,0,0,0,111,111,111,0,0,0,0,,,,,,,704.5749915000051,None,704.7881965003908,None,705.5187135003507,None,s,1,0.5786799006164074,705.5187135003507,None,None,None,,,,,,,8,21,female,8,2022_May_06_0914,Partial repeat,2021.2.3,59.89114147857275,
4,6,0,1,3,3,2,2,1,0,1,1,0,0,0,0,111,111,111,1,0,1,0,,,,,,,,,706.1266475990415,None,707.0384295992553,None,l,1,0.6030355002731085,707.0384295992553,None,None,None,,,,,,,8,21,female,8,2022_May_06_0914,Partial repeat,2021.2.3,59.89114147857275,
4,6,0,1,3,3,2,2,1,0,1,1,0,0,0,0,111,111,111,,,,,,,,,,,,,,,,,,,,,,,,,,,,,,8,21,female,8,2022_May_06_0914,Partial repeat,2021.2.3,59.89114147857275,
5,3,0,1,2,3,1,2,1,0,0,0,0,0,0,0,112,112,112,0,0,0,0,,,,,,,707.6547360997647,None,707.8441633004695,None,708.7087839003652,None,s,1,0.5325686000287533,708.7087839003652,None,None,None,,,,,,,8,21,female,8,2022_May_06_0914,Partial repeat,2021.2.3,59.89114147857275,
5,3,0,1,2,3,1,2,1,0,0,0,0,0,0,0,112,112,112,1,0,1,0,,,,,,,,,709.2528705000877,None,710.0449733994901,None,l,1,0.7803902998566628,710.0449733994901,None,None,None,,,,,,,8,21,female,8,2022_May_06_0914,Partial repeat,2021.2.3,59.89114147857275,
5,3,0,1,2,3,1,2,1,0,0,0,0,0,0,0,112,112,112,,,,,,,,,,,,,,,,,,,,,,,,,,,,,,8,21,female,8,2022_May_06_0914,Partial repeat,2021.2.3,59.89114147857275,
7,8,0,1,2,3,2,1,0,0,0,0,1,0,0,0,113,113,113,0,0,0,0,,,,,,,710.8363617993891,None,711.0670394003391,None,712.0149101000279,None,l,1,0.6503724008798599,712.0149101000279,None,None,None,,,,,,,8,21,female,8,2022_May_06_0914,Partial repeat,2021.2.3,59.89114147857275,
7,8,0,1,2,3,2,1,0,0,0,0,1,0,0,0,113,113,113,1,0,1,0,,,,,,,,,712.6943644005805,None,713.467850599438,None,l,1,0.6614711992442608,713.467850599438,None,None,None,,,,,,,8,21,female,8,2022_May_06_0914,Partial repeat,2021.2.3,59.89114147857275,
7,8,0,1,2,3,2,1,0,0,0,0,1,0,0,0,113,113,113,,,,,,,,,,,,,,,,,,,,,,,,,,,,,,8,21,female,8,2022_May_06_0914,Partial repeat,2021.2.3,59.89114147857275,
6,3,0,1,3,2,2,1,1,0,0,0,0,0,0,0,114,114,114,0,0,0,0,,,,,,,714.1473357994109,None,714.3067281991243,None,715.0874985996634,None,s,1,0.5378179997205734,715.0874985996634,None,None,None,,,,,,,8,21,female,8,2022_May_06_0914,Partial repeat,2021.2.3,59.89114147857275,
6,3,0,1,3,2,2,1,1,0,0,0,0,0,0,0,114,114,114,1,0,1,0,,,,,,,,,715.6403569001704,None,716.623799899593,None,l,1,0.7855225000530481,716.623799899593,None,None,None,,,,,,,8,21,female,8,2022_May_06_0914,Partial repeat,2021.2.3,59.89114147857275,
6,3,0,1,3,2,2,1,1,0,0,0,0,0,0,0,114,114,114,,,,,,,,,,,,,,,,,,,,,,,,,,,,,,8,21,female,8,2022_May_06_0914,Partial repeat,2021.2.3,59.89114147857275,
2,6,0,1,2,2,2,1,1,0,1,0,0,0,0,0,115,115,115,0,0,0,0,,,,,,,717.4351952001452,None,717.5964206997305,None,718.5940579008311,None,s,1,0.6312587987631559,718.5940579008311,None,None,None,,,,,,,8,21,female,8,2022_May_06_0914,Partial repeat,2021.2.3,59.89114147857275,
2,6,0,1,2,2,2,1,1,0,1,0,0,0,0,0,115,115,115,1,0,1,0,,,,,,,,,719.2507453002036,None,720.214133599773,None,l,1,0.539223100990057,720.214133599773,None,None,None,,,,,,,8,21,female,8,2022_May_06_0914,Partial repeat,2021.2.3,59.89114147857275,
2,6,0,1,2,2,2,1,1,0,1,0,0,0,0,0,115,115,115,,,,,,,,,,,,,,,,,,,,,,,,,,,,,,8,21,female,8,2022_May_06_0914,Partial repeat,2021.2.3,59.89114147857275,
8,7,0,1,3,2,2,2,1,1,0,1,1,0,0,0,116,116,116,0,0,0,0,,,,,,,720.7635277993977,None,720.9362934008241,None,721.9338901005685,None,s,1,0.5874116998165846,721.9338901005685,None,None,None,,,,,,,8,21,female,8,2022_May_06_0914,Partial repeat,2021.2.3,59.89114147857275,
8,7,0,1,3,2,2,2,1,1,0,1,1,0,0,0,116,116,116,1,0,1,0,,,,,,,,,722.5370195005089,None,723.4203578997403,None,l,0,0.5249544009566307,723.4203578997403,None,723.9689812008291,None,,,,,,,8,21,female,8,2022_May_06_0914,Partial repeat,2021.2.3,59.89114147857275,
8,7,0,1,3,2,2,2,1,1,0,1,1,0,0,0,116,116,116,,,,,,,,,,,,,,,,,,,,,,,,,,,,,,8,21,female,8,2022_May_06_0914,Partial repeat,2021.2.3,59.89114147857275,
4,1,0,1,2,2,2,1,0,1,1,0,0,0,0,0,117,117,117,0,0,0,0,,,,,,,724.4765069000423,None,724.960784599185,None,725.9089221004397,None,l,1,0.8844713997095823,725.9089221004397,None,None,None,,,,,,,8,21,female,8,2022_May_06_0914,Partial repeat,2021.2.3,59.89114147857275,
4,1,0,1,2,2,2,1,0,1,1,0,0,0,0,0,117,117,117,1,0,1,0,,,,,,,,,726.8033745996654,None,727.7618908006698,None,s,1,0.5833809990435839,727.7618908006698,None,None,None,,,,,,,8,21,female,8,2022_May_06_0914,Partial repeat,2021.2.3,59.89114147857275,
4,1,0,1,2,2,2,1,0,1,1,0,0,0,0,0,117,117,117,,,,,,,,,,,,,,,,,,,,,,,,,,,,,,8,21,female,8,2022_May_06_0914,Partial repeat,2021.2.3,59.89114147857275,
1,8,0,1,2,2,1,1,0,0,1,1,1,0,0,0,118,118,118,0,0,0,0,,,,,,,728.3592421989888,None,728.9017398003489,None,729.6824779007584,None,l,1,0.9108208995312452,729.6824779007584,None,None,None,,,,,,,8,21,female,8,2022_May_06_0914,Partial repeat,2021.2.3,59.89114147857275,
1,8,0,1,2,2,1,1,0,0,1,1,1,0,0,0,118,118,118,1,0,1,0,,,,,,,,,730.6202118005604,None,731.3855590000749,None,l,1,0.7197638992220163,731.3855590000749,None,None,None,,,,,,,8,21,female,8,2022_May_06_0914,Partial repeat,2021.2.3,59.89114147857275,
1,8,0,1,2,2,1,1,0,0,1,1,1,0,0,0,118,118,118,,,,,,,,,,,,,,,,,,,,,,,,,,,,,,8,21,female,8,2022_May_06_0914,Partial repeat,2021.2.3,59.89114147857275,
5,5,0,1,2,2,2,2,0,1,1,1,0,0,0,0,119,119,119,0,0,0,0,,,,,,,732.1160070002079,None,732.2749429997057,None,733.0896809995174,None,l,1,0.9596191998571157,733.0896809995174,None,None,None,,,,,,,8,21,female,8,2022_May_06_0914,Partial repeat,2021.2.3,59.89114147857275,
5,5,0,1,2,2,2,2,0,1,1,1,0,0,0,0,119,119,119,1,0,1,0,,,,,,,,,734.0677144993097,None,735.0093872006983,None,s,1,0.5359167996793985,735.0093872006983,None,None,None,,,,,,,8,21,female,8,2022_May_06_0914,Partial repeat,2021.2.3,59.89114147857275,
5,5,0,1,2,2,2,2,0,1,1,1,0,0,0,0,119,119,119,,,,,,,,,,,,,,,,,,,,,,,,,,,,,,8,21,female,8,2022_May_06_0914,Partial repeat,2021.2.3,59.89114147857275,
7,4,0,1,2,2,2,2,1,1,1,1,1,0,0,0,120,120,120,0,0,0,0,,,,,,,735.5602119006217,None,735.7482744008303,None,736.5623324997723,None,s,1,0.7269719000905752,736.5623324997723,None,None,None,,,,,,,8,21,female,8,2022_May_06_0914,Partial repeat,2021.2.3,59.89114147857275,
7,4,0,1,2,2,2,2,1,1,1,1,1,0,0,0,120,120,120,1,0,1,0,,,,,,,,,737.3048123996705,None,738.2154053002596,None,s,1,0.5138990003615618,738.2154053002596,None,None,None,,,,,,,8,21,female,8,2022_May_06_0914,Partial repeat,2021.2.3,59.89114147857275,
7,4,0,1,2,2,2,2,1,1,1,1,1,0,0,0,120,120,120,,,,,,,,,,,,,,,,,,,,,,,,,,,,,,8,21,female,8,2022_May_06_0914,Partial repeat,2021.2.3,59.89114147857275,
8,5,0,1,3,2,1,1,0,0,0,1,1,0,0,0,121,121,121,0,0,0,0,,,,,,,738.7458605002612,None,739.0548633001745,None,740.0693188998848,None,l,1,0.572020398452878,740.0693188998848,None,None,None,,,,,,,8,21,female,8,2022_May_06_0914,Partial repeat,2021.2.3,59.89114147857275,
8,5,0,1,3,2,1,1,0,0,0,1,1,0,0,0,121,121,121,1,0,1,0,,,,,,,,,740.6666505001485,None,741.6226090993732,None,l,1,0.6826987992972136,741.6226090993732,None,None,None,,,,,,,8,21,female,8,2022_May_06_0914,Partial repeat,2021.2.3,59.89114147857275,
8,5,0,1,3,2,1,1,0,0,0,1,1,0,0,0,121,121,121,,,,,,,,,,,,,,,,,,,,,,,,,,,,,,8,21,female,8,2022_May_06_0914,Partial repeat,2021.2.3,59.89114147857275,
8,3,0,1,2,3,2,2,0,0,0,1,1,0,0,0,122,122,122,0,0,0,0,,,,,,,742.327706400305,None,742.4948459006846,None,743.44299650006,None,l,1,0.5263197012245655,743.44299650006,None,None,None,,,,,,,8,21,female,8,2022_May_06_0914,Partial repeat,2021.2.3,59.89114147857275,
8,3,0,1,2,3,2,2,0,0,0,1,1,0,0,0,122,122,122,1,0,1,0,,,,,,,,,743.9909795001149,None,744.8622094001621,None,l,1,0.6190825011581182,744.8622094001621,None,None,None,,,,,,,8,21,female,8,2022_May_06_0914,Partial repeat,2021.2.3,59.89114147857275,
8,3,0,1,2,3,2,2,0,0,0,1,1,0,0,0,122,122,122,,,,,,,,,,,,,,,,,,,,,,,,,,,,,,8,21,female,8,2022_May_06_0914,Partial repeat,2021.2.3,59.89114147857275,
6,8,0,1,2,3,1,2,0,1,0,0,0,0,0,0,123,123,123,0,0,0,0,,,,,,,745.4957525003701,None,745.6677419003099,None,746.4649344999343,None,l,1,0.552344299852848,746.4649344999343,None,None,None,,,,,,,8,21,female,8,2022_May_06_0914,Partial repeat,2021.2.3,59.89114147857275,
6,8,0,1,2,3,1,2,0,1,0,0,0,0,0,0,123,123,123,1,0,1,0,,,,,,,,,747.032098999247,None,747.9177707005292,None,s,1,0.6675003990530968,747.9177707005292,None,None,None,,,,,,,8,21,female,8,2022_May_06_0914,Partial repeat,2021.2.3,59.89114147857275,
6,8,0,1,2,3,1,2,0,1,0,0,0,0,0,0,123,123,123,,,,,,,,,,,,,,,,,,,,,,,,,,,,,,8,21,female,8,2022_May_06_0914,Partial repeat,2021.2.3,59.89114147857275,
8,1,0,1,2,2,1,1,1,0,1,1,0,0,0,0,124,124,124,0,0,0,0,,,,,,,748.6166091002524,None,748.8236922994256,None,749.7214887998998,None,s,1,0.6558758988976479,749.7214887998998,None,None,None,,,,,,,8,21,female,8,2022_May_06_0914,Partial repeat,2021.2.3,59.89114147857275,
8,1,0,1,2,2,1,1,1,0,1,1,0,0,0,0,124,124,124,1,0,1,0,,,,,,,,,750.3965987991542,None,751.3911699000746,None,l,1,0.6022097989916801,751.3911699000746,None,None,None,,,,,,,8,21,female,8,2022_May_06_0914,Partial repeat,2021.2.3,59.89114147857275,
8,1,0,1,2,2,1,1,1,0,1,1,0,0,0,0,124,124,124,,,,,,,,,,,,,,,,,,,,,,,,,,,,,,8,21,female,8,2022_May_06_0914,Partial repeat,2021.2.3,59.89114147857275,
6,4,0,1,2,2,2,1,1,1,1,0,1,0,0,0,125,125,125,0,0,0,0,,,,,,,752.0060121994466,None,752.2137331999838,None,753.0944111999124,None,s,1,0.5948752984404564,753.0944111999124,None,None,None,,,,,,,8,21,female,8,2022_May_06_0914,Partial repeat,2021.2.3,59.89114147857275,
6,4,0,1,2,2,2,1,1,1,1,0,1,0,0,0,125,125,125,1,0,1,0,,,,,,,,,753.7083147000521,None,754.5474673006684,None,s,1,0.5498360004276037,754.5474673006684,None,None,None,,,,,,,8,21,female,8,2022_May_06_0914,Partial repeat,2021.2.3,59.89114147857275,
6,4,0,1,2,2,2,1,1,1,1,0,1,0,0,0,125,125,125,,,,,,,,,,,,,,,,,,,,,,,,,,,,,,8,21,female,8,2022_May_06_0914,Partial repeat,2021.2.3,59.89114147857275,
1,1,0,1,2,3,1,1,1,1,0,1,1,0,0,0,126,126,126,0,0,0,0,,,,,,,755.1188823003322,None,755.4701257999986,None,756.384195799008,None,s,1,0.6011356003582478,756.384195799008,None,None,None,,,,,,,8,21,female,8,2022_May_06_0914,Partial repeat,2021.2.3,59.89114147857275,
1,1,0,1,2,3,1,1,1,1,0,1,1,0,0,0,126,126,126,1,0,1,0,,,,,,,,,756.9931977000087,None,757.9708938002586,None,s,1,0.6624769996851683,757.9708938002586,None,None,None,,,,,,,8,21,female,8,2022_May_06_0914,Partial repeat,2021.2.3,59.89114147857275,
1,1,0,1,2,3,1,1,1,1,0,1,1,0,0,0,126,126,126,,,,,,,,,,,,,,,,,,,,,,,,,,,,,,8,21,female,8,2022_May_06_0914,Partial repeat,2021.2.3,59.89114147857275,
3,2,0,1,3,3,2,2,0,1,1,1,0,0,0,0,127,127,127,0,0,0,0,,,,,,,758.6457678005099,None,759.227440699935,None,760.0580279007554,None,l,1,0.5352660994976759,760.0580279007554,None,None,None,,,,,,,8,21,female,8,2022_May_06_0914,Partial repeat,2021.2.3,59.89114147857275,
3,2,0,1,3,3,2,2,0,1,1,1,0,0,0,0,127,127,127,1,0,1,0,,,,,,,,,760.6043718997389,None,761.5278568994254,None,s,1,0.5774344988167286,761.5278568994254,None,None,None,,,,,,,8,21,female,8,2022_May_06_0914,Partial repeat,2021.2.3,59.89114147857275,
3,2,0,1,3,3,2,2,0,1,1,1,0,0,0,0,127,127,127,,,,,,,,,,,,,,,,,,,,,,,,,,,,,,8,21,female,8,2022_May_06_0914,Partial repeat,2021.2.3,59.89114147857275,
8,8,0,1,2,2,1,2,1,1,1,0,1,1,0,0,128,128,128,0,0,0,0,,,,,,,762.2803821992129,None,764.5043676998466,None,765.3517592996359,None,s,1,0.7855281010270119,765.3517592996359,None,None,None,,,,,,,8,21,female,8,2022_May_06_0914,Partial repeat,2021.2.3,59.89114147857275,
8,8,0,1,2,2,1,2,1,1,1,0,1,1,0,0,128,128,128,1,0,1,0,,,,,,,,,766.163909399882,None,767.055315900594,None,s,1,0.6260492000728846,767.055315900594,None,None,None,,,,,,,8,21,female,8,2022_May_06_0914,Partial repeat,2021.2.3,59.89114147857275,
8,8,0,1,2,2,1,2,1,1,1,0,1,1,0,0,128,128,128,,,,,,,,,,,,,,,,,,,,,,,,,,,,,,8,21,female,8,2022_May_06_0914,Partial repeat,2021.2.3,59.89114147857275,
8,8,0,1,2,2,2,2,0,1,1,1,0,1,0,0,129,129,129,0,0,0,0,,,,,,,767.6920030992478,None,768.211587799713,None,769.1256734002382,None,l,1,0.6196069996803999,769.1256734002382,None,None,None,,,,,,,8,21,female,8,2022_May_06_0914,Partial repeat,2021.2.3,59.89114147857275,
8,8,0,1,2,2,2,2,0,1,1,1,0,1,0,0,129,129,129,1,0,1,0,,,,,,,,,769.7602695003152,None,770.645455500111,None,l,0,0.7318255994468927,770.645455500111,None,771.3900629002601,None,,,,,,,8,21,female,8,2022_May_06_0914,Partial repeat,2021.2.3,59.89114147857275,
8,8,0,1,2,2,2,2,0,1,1,1,0,1,0,0,129,129,129,,,,,,,,,,,,,,,,,,,,,,,,,,,,,,8,21,female,8,2022_May_06_0914,Partial repeat,2021.2.3,59.89114147857275,
8,8,0,1,2,3,2,2,1,0,0,1,0,1,0,0,130,130,130,0,0,0,0,,,,,,,771.9021390005946,None,773.3214311990887,None,774.1688981000334,None,s,1,0.5845075007528067,774.1688981000334,None,None,None,,,,,,,8,21,female,8,2022_May_06_0914,Partial repeat,2021.2.3,59.89114147857275,
8,8,0,1,2,3,2,2,1,0,0,1,0,1,0,0,130,130,130,1,0,1,0,,,,,,,,,774.7628566995263,None,775.7397159989923,None,l,1,0.533585399389267,775.7397159989923,None,None,None,,,,,,,8,21,female,8,2022_May_06_0914,Partial repeat,2021.2.3,59.89114147857275,
8,8,0,1,2,3,2,2,1,0,0,1,0,1,0,0,130,130,130,,,,,,,,,,,,,,,,,,,,,,,,,,,,,,8,21,female,8,2022_May_06_0914,Partial repeat,2021.2.3,59.89114147857275,
8,8,0,1,3,3,1,2,1,0,1,0,0,1,0,0,131,131,131,0,0,0,0,,,,,,,776.2899826001376,None,776.4774846993387,None,777.441949699074,None,s,1,0.7433348000049591,777.441949699074,None,None,None,,,,,,,8,21,female,8,2022_May_06_0914,Partial repeat,2021.2.3,59.89114147857275,
8,8,0,1,3,3,1,2,1,0,1,0,0,1,0,0,131,131,131,1,0,1,0,,,,,,,,,778.2061524000019,None,779.0117872003466,None,l,1,0.4214907996356487,779.0117872003466,None,None,None,,,,,,,8,21,female,8,2022_May_06_0914,Partial repeat,2021.2.3,59.89114147857275,
8,8,0,1,3,3,1,2,1,0,1,0,0,1,0,0,131,131,131,,,,,,,,,,,,,,,,,,,,,,,,,,,,,,8,21,female,8,2022_May_06_0914,Partial repeat,2021.2.3,59.89114147857275,
8,8,0,1,3,2,1,1,0,1,0,1,0,1,0,0,132,132,132,0,0,0,0,,,,,,,779.4559170007706,None,779.6003895998001,None,780.4311401005834,None,l,1,0.6101449001580477,780.4311401005834,None,None,None,,,,,,,8,21,female,8,2022_May_06_0914,Partial repeat,2021.2.3,59.89114147857275,
8,8,0,1,3,2,1,1,0,1,0,1,0,1,0,0,132,132,132,1,0,1,0,,,,,,,,,781.0646356996149,None,782.0340614002198,None,s,1,0.8152143992483616,782.0340614002198,None,None,None,,,,,,,8,21,female,8,2022_May_06_0914,Partial repeat,2021.2.3,59.89114147857275,
8,8,0,1,3,2,1,1,0,1,0,1,0,1,0,0,132,132,132,,,,,,,,,,,,,,,,,,,,,,,,,,,,,,8,21,female,8,2022_May_06_0914,Partial repeat,2021.2.3,59.89114147857275,
8,8,0,1,3,3,1,2,0,1,1,0,0,1,0,0,133,133,133,0,0,0,0,,,,,,,782.8675592001528,None,783.5080161001533,None,784.4557917993516,None,l,1,0.6656296998262405,784.4557917993516,None,None,None,,,,,,,8,21,female,8,2022_May_06_0914,Partial repeat,2021.2.3,59.89114147857275,
8,8,0,1,3,3,1,2,0,1,1,0,0,1,0,0,133,133,133,1,0,1,0,,,,,,,,,785.1322817001492,None,785.8583879005164,None,s,1,0.6068933010101318,785.8583879005164,None,None,None,,,,,,,8,21,female,8,2022_May_06_0914,Partial repeat,2021.2.3,59.89114147857275,
8,8,0,1,3,3,1,2,0,1,1,0,0,1,0,0,133,133,133,,,,,,,,,,,,,,,,,,,,,,,,,,,,,,8,21,female,8,2022_May_06_0914,Partial repeat,2021.2.3,59.89114147857275,
8,8,0,1,2,2,1,1,0,1,1,1,0,1,0,0,134,134,134,0,0,0,0,,,,,,,786.4756436999887,None,786.6975369006395,None,787.4446977991611,None,l,1,0.6205806992948055,787.4446977991611,None,None,None,,,,,,,8,21,female,8,2022_May_06_0914,Partial repeat,2021.2.3,59.89114147857275,
8,8,0,1,2,2,1,1,0,1,1,1,0,1,0,0,134,134,134,1,0,1,0,,,,,,,,,788.0788675006479,None,788.8142156992108,None,s,1,0.6032049991190434,788.8142156992108,None,None,None,,,,,,,8,21,female,8,2022_May_06_0914,Partial repeat,2021.2.3,59.89114147857275,
8,8,0,1,2,2,1,1,0,1,1,1,0,1,0,0,134,134,134,,,,,,,,,,,,,,,,,,,,,,,,,,,,,,8,21,female,8,2022_May_06_0914,Partial repeat,2021.2.3,59.89114147857275,
8,8,0,1,3,3,2,1,1,1,1,0,1,1,0,0,135,135,135,0,0,0,0,,,,,,,789.4293581992388,None,789.6031280998141,None,790.3331527002156,None,s,1,0.47611560113728046,790.3331527002156,None,None,None,,,,,,,8,21,female,8,2022_May_06_0914,Partial repeat,2021.2.3,59.89114147857275,
8,8,0,1,3,3,2,1,1,1,1,0,1,1,0,0,135,135,135,1,0,1,0,,,,,,,,,790.8237565997988,None,791.7868824992329,None,s,1,0.4383965991437435,791.7868824992329,None,None,None,,,,,,,8,21,female,8,2022_May_06_0914,Partial repeat,2021.2.3,59.89114147857275,
8,8,0,1,3,3,2,1,1,1,1,0,1,1,0,0,135,135,135,,,,,,,,,,,,,,,,,,,,,,,,,,,,,,8,21,female,8,2022_May_06_0914,Partial repeat,2021.2.3,59.89114147857275,
8,8,0,1,3,2,1,2,1,0,0,0,0,1,0,0,136,136,136,0,0,0,0,,,,,,,792.2433276996017,None,792.6424369998276,None,793.5057487990707,None,s,1,0.5435921009629965,793.5057487990707,None,None,None,,,,,,,8,21,female,8,2022_May_06_0914,Partial repeat,2021.2.3,59.89114147857275,
8,8,0,1,3,2,1,2,1,0,0,0,0,1,0,0,136,136,136,1,0,1,0,,,,,,,,,794.0587162002921,None,795.0088973995298,None,l,1,0.40047029964625835,795.0088973995298,None,None,None,,,,,,,8,21,female,8,2022_May_06_0914,Partial repeat,2021.2.3,59.89114147857275,
8,8,0,1,3,2,1,2,1,0,0,0,0,1,0,0,136,136,136,,,,,,,,,,,,,,,,,,,,,,,,,,,,,,8,21,female,8,2022_May_06_0914,Partial repeat,2021.2.3,59.89114147857275,
8,8,0,1,2,3,2,1,0,0,0,0,1,1,0,0,137,137,137,0,0,0,0,,,,,,,795.4235041998327,None,795.5981661006808,None,796.5619590990245,None,l,1,0.5273869000375271,796.5619590990245,None,None,None,,,,,,,8,21,female,8,2022_May_06_0914,Partial repeat,2021.2.3,59.89114147857275,
8,8,0,1,2,3,2,1,0,0,0,0,1,1,0,0,137,137,137,1,0,1,0,,,,,,,,,797.1171138007194,None,798.0148833990097,None,l,1,0.5543959997594357,798.0148833990097,None,None,None,,,,,,,8,21,female,8,2022_May_06_0914,Partial repeat,2021.2.3,59.89114147857275,
8,8,0,1,2,3,2,1,0,0,0,0,1,1,0,0,137,137,137,,,,,,,,,,,,,,,,,,,,,,,,,,,,,,8,21,female,8,2022_May_06_0914,Partial repeat,2021.2.3,59.89114147857275,
8,8,0,1,2,3,2,1,0,1,0,0,0,1,0,0,138,138,138,0,0,0,0,,,,,,,798.5949191004038,None,798.7542909998447,None,799.6680427994579,None,l,1,0.5172164011746645,799.6680427994579,None,None,None,,,,,,,8,21,female,8,2022_May_06_0914,Partial repeat,2021.2.3,59.89114147857275,
8,8,0,1,2,3,2,1,0,1,0,0,0,1,0,0,138,138,138,1,0,1,0,,,,,,,,,800.2032245993614,None,800.9543356001377,None,s,1,0.46292960084974766,800.9543356001377,None,None,None,,,,,,,8,21,female,8,2022_May_06_0914,Partial repeat,2021.2.3,59.89114147857275,
8,8,0,1,2,3,2,1,0,1,0,0,0,1,0,0,138,138,138,,,,,,,,,,,,,,,,,,,,,,,,,,,,,,8,21,female,8,2022_May_06_0914,Partial repeat,2021.2.3,59.89114147857275,
8,8,0,1,2,3,1,2,0,1,0,0,0,1,0,0,139,139,139,0,0,0,0,,,,,,,801.432091999799,None,801.6098056007177,None,802.5740304999053,None,l,1,0.523344200104475,802.5740304999053,None,None,None,,,,,,,8,21,female,8,2022_May_06_0914,Partial repeat,2021.2.3,59.89114147857275,
8,8,0,1,2,3,1,2,0,1,0,0,0,1,0,0,139,139,139,1,0,1,0,,,,,,,,,803.1260285004973,None,803.9597829990089,None,s,1,0.5134832989424467,803.9597829990089,None,None,None,,,,,,,8,21,female,8,2022_May_06_0914,Partial repeat,2021.2.3,59.89114147857275,
8,8,0,1,2,3,1,2,0,1,0,0,0,1,0,0,139,139,139,,,,,,,,,,,,,,,,,,,,,,,,,,,,,,8,21,female,8,2022_May_06_0914,Partial repeat,2021.2.3,59.89114147857275,
8,8,0,1,2,2,2,2,1,0,1,1,0,1,0,0,140,140,140,0,0,0,0,,,,,,,804.4838664997369,None,804.6490788999945,None,805.6633851993829,None,s,1,0.64189019985497,805.6633851993829,None,None,None,,,,,,,8,21,female,8,2022_May_06_0914,Partial repeat,2021.2.3,59.89114147857275,
8,8,0,1,2,2,2,2,1,0,1,1,0,1,0,0,140,140,140,1,0,1,0,,,,,,,,,806.3247855007648,None,807.2663230001926,None,l,1,0.45494480058550835,807.2663230001926,None,None,None,,,,,,,8,21,female,8,2022_May_06_0914,Partial repeat,2021.2.3,59.89114147857275,
8,8,0,1,2,2,2,2,1,0,1,1,0,1,0,0,140,140,140,,,,,,,,,,,,,,,,,,,,,,,,,,,,,,8,21,female,8,2022_May_06_0914,Partial repeat,2021.2.3,59.89114147857275,
8,8,0,1,2,2,1,1,1,0,1,1,0,1,0,0,141,141,141,0,0,0,0,,,,,,,807.744444699958,None,807.9388501998037,None,808.9363379999995,None,s,1,0.5689732003957033,808.9363379999995,None,None,None,,,,,,,8,21,female,8,2022_May_06_0914,Partial repeat,2021.2.3,59.89114147857275,
8,8,0,1,2,2,1,1,1,0,1,1,0,1,0,0,141,141,141,1,0,1,0,,,,,,,,,809.514664798975,None,810.3726144991815,None,l,1,0.5406512003391981,810.3726144991815,None,None,None,,,,,,,8,21,female,8,2022_May_06_0914,Partial repeat,2021.2.3,59.89114147857275,
8,8,0,1,2,2,1,1,1,0,1,1,0,1,0,0,141,141,141,,,,,,,,,,,,,,,,,,,,,,,,,,,,,,8,21,female,8,2022_May_06_0914,Partial repeat,2021.2.3,59.89114147857275,
8,8,0,1,2,3,1,1,1,1,0,1,1,1,0,0,142,142,142,0,0,0,0,,,,,,,810.9338173996657,None,811.1617869995534,None,812.1424842998385,None,s,1,0.650933500379324,812.1424842998385,None,None,None,,,,,,,8,21,female,8,2022_May_06_0914,Partial repeat,2021.2.3,59.89114147857275,
8,8,0,1,2,3,1,1,1,1,0,1,1,1,0,0,142,142,142,1,0,1,0,,,,,,,,,812.8029602002352,None,813.6619047001004,None,s,1,0.41936440020799637,813.6619047001004,None,None,None,,,,,,,8,21,female,8,2022_May_06_0914,Partial repeat,2021.2.3,59.89114147857275,
8,8,0,1,2,3,1,1,1,1,0,1,1,1,0,0,142,142,142,,,,,,,,,,,,,,,,,,,,,,,,,,,,,,8,21,female,8,2022_May_06_0914,Partial repeat,2021.2.3,59.89114147857275,
8,8,0,1,3,2,1,1,0,0,0,1,1,1,0,0,143,143,143,0,0,0,0,,,,,,,814.0956344995648,None,814.3511779997498,None,815.1481603998691,None,l,1,0.47710980102419853,815.1481603998691,None,None,None,,,,,,,8,21,female,8,2022_May_06_0914,Partial repeat,2021.2.3,59.89114147857275,
8,8,0,1,3,2,1,1,0,0,0,1,1,1,0,0,143,143,143,1,0,1,0,,,,,,,,,815.6421166006476,None,816.3672695998102,None,l,1,0.42598599940538406,816.3672695998102,None,None,None,,,,,,,8,21,female,8,2022_May_06_0914,Partial repeat,2021.2.3,59.89114147857275,
8,8,0,1,3,2,1,1,0,0,0,1,1,1,0,0,143,143,143,,,,,,,,,,,,,,,,,,,,,,,,,,,,,,8,21,female,8,2022_May_06_0914,Partial repeat,2021.2.3,59.89114147857275,
8,8,0,1,2,2,2,1,0,1,1,0,0,1,0,0,144,144,144,0,0,0,0,,,,,,,816.8178160004318,None,816.9730280991644,None,817.7198879998177,None,l,1,0.5213775988668203,817.7198879998177,None,None,None,,,,,,,8,21,female,8,2022_May_06_0914,Partial repeat,2021.2.3,59.89114147857275,
8,8,0,1,2,2,2,1,0,1,1,0,0,1,0,0,144,144,144,1,0,1,0,,,,,,,,,818.253166500479,None,819.0566646996886,None,s,1,0.4565930012613535,819.0566646996886,None,None,None,,,,,,,8,21,female,8,2022_May_06_0914,Partial repeat,2021.2.3,59.89114147857275,
8,8,0,1,2,2,2,1,0,1,1,0,0,1,0,0,144,144,144,,,,,,,,,,,,,,,,,,,,,,,,,,,,,,8,21,female,8,2022_May_06_0914,Partial repeat,2021.2.3,59.89114147857275,
8,8,0,1,3,2,2,1,0,0,0,0,1,1,0,0,145,145,145,0,0,0,0,,,,,,,819.5359026007354,None,819.6950784996152,None,820.5421632006764,None,l,1,0.5071901008486748,820.5421632006764,None,None,None,,,,,,,8,21,female,8,2022_May_06_0914,Partial repeat,2021.2.3,59.89114147857275,
8,8,0,1,3,2,2,1,0,0,0,0,1,1,0,0,145,145,145,1,0,1,0,,,,,,,,,821.0598475001752,None,821.9614215996116,None,l,1,0.3758376017212868,821.9614215996116,None,None,None,,,,,,,8,21,female,8,2022_May_06_0914,Partial repeat,2021.2.3,59.89114147857275,
8,8,0,1,3,2,2,1,0,0,0,0,1,1,0,0,145,145,145,,,,,,,,,,,,,,,,,,,,,,,,,,,,,,8,21,female,8,2022_May_06_0914,Partial repeat,2021.2.3,59.89114147857275,
8,8,0,1,2,2,1,2,1,0,1,0,0,1,0,0,146,146,146,0,0,0,0,,,,,,,822.3526597004384,None,822.5172310005873,None,823.4141950998455,None,s,1,0.5711046997457743,823.4141950998455,None,None,None,,,,,,,8,21,female,8,2022_May_06_0914,Partial repeat,2021.2.3,59.89114147857275,
8,8,0,1,2,2,1,2,1,0,1,0,0,1,0,0,146,146,146,1,0,1,0,,,,,,,,,824.013956900686,None,824.7834207005799,None,l,1,0.3938271012157202,824.7834207005799,None,None,None,,,,,,,8,21,female,8,2022_May_06_0914,Partial repeat,2021.2.3,59.89114147857275,
8,8,0,1,2,2,1,2,1,0,1,0,0,1,0,0,146,146,146,,,,,,,,,,,,,,,,,,,,,,,,,,,,,,8,21,female,8,2022_May_06_0914,Partial repeat,2021.2.3,59.89114147857275,
8,8,0,1,2,2,1,2,0,1,1,0,0,1,0,0,147,147,147,0,0,0,0,,,,,,,825.2005732990801,None,825.3727748990059,None,826.2533662002534,None,l,1,0.4038820005953312,826.2533662002534,None,None,None,,,,,,,8,21,female,8,2022_May_06_0914,Partial repeat,2021.2.3,59.89114147857275,
8,8,0,1,2,2,1,2,0,1,1,0,0,1,0,0,147,147,147,1,0,1,0,,,,,,,,,826.685718299821,None,827.6056871004403,None,s,1,0.45162460021674633,827.6056871004403,None,None,None,,,,,,,8,21,female,8,2022_May_06_0914,Partial repeat,2021.2.3,59.89114147857275,
8,8,0,1,2,2,1,2,0,1,1,0,0,1,0,0,147,147,147,,,,,,,,,,,,,,,,,,,,,,,,,,,,,,8,21,female,8,2022_May_06_0914,Partial repeat,2021.2.3,59.89114147857275,
8,8,0,1,3,3,1,2,0,0,1,0,1,1,0,0,148,148,148,0,0,0,0,,,,,,,828.0840856991708,None,828.2283280007541,None,829.1588759999722,None,l,1,0.47434040158987045,829.1588759999722,None,None,None,,,,,,,8,21,female,8,2022_May_06_0914,Partial repeat,2021.2.3,59.89114147857275,
8,8,0,1,3,3,1,2,0,0,1,0,1,1,0,0,148,148,148,1,0,1,0,,,,,,,,,829.6525723002851,None,830.4780991990119,None,l,1,0.4351385999470949,830.4780991990119,None,None,None,,,,,,,8,21,female,8,2022_May_06_0914,Partial repeat,2021.2.3,59.89114147857275,
8,8,0,1,3,3,1,2,0,0,1,0,1,1,0,0,148,148,148,,,,,,,,,,,,,,,,,,,,,,,,,,,,,,8,21,female,8,2022_May_06_0914,Partial repeat,2021.2.3,59.89114147857275,
8,8,0,1,3,3,1,1,1,0,1,1,0,1,0,0,149,149,149,0,0,0,0,,,,,,,830.933860199526,None,831.0839035995305,None,832.0479166992009,None,s,1,0.5133385993540287,832.0479166992009,None,None,None,,,,,,,8,21,female,8,2022_May_06_0914,Partial repeat,2021.2.3,59.89114147857275,
8,8,0,1,3,3,1,1,1,0,1,1,0,1,0,0,149,149,149,1,0,1,0,,,,,,,,,832.5796523001045,None,833.3671832997352,None,l,1,0.5702139995992184,833.3671832997352,None,None,None,,,,,,,8,21,female,8,2022_May_06_0914,Partial repeat,2021.2.3,59.89114147857275,
8,8,0,1,3,3,1,1,1,0,1,1,0,1,0,0,149,149,149,,,,,,,,,,,,,,,,,,,,,,,,,,,,,,8,21,female,8,2022_May_06_0914,Partial repeat,2021.2.3,59.89114147857275,
8,8,0,1,2,3,2,2,0,1,0,1,0,1,0,0,150,150,150,0,0,0,0,,,,,,,833.9492438994348,None,834.0897122994065,None,834.9034720994532,None,l,1,0.8897741008549929,834.9034720994532,None,None,None,,,,,,,8,21,female,8,2022_May_06_0914,Partial repeat,2021.2.3,59.89114147857275,
8,8,0,1,2,3,2,2,0,1,0,1,0,1,0,0,150,150,150,1,0,1,0,,,,,,,,,835.8118325993419,None,836.7238010000437,None,s,1,0.39751370064914227,836.7238010000437,None,None,None,,,,,,,8,21,female,8,2022_May_06_0914,Partial repeat,2021.2.3,59.89114147857275,
8,8,0,1,2,3,2,2,0,1,0,1,0,1,0,0,150,150,150,,,,,,,,,,,,,,,,,,,,,,,,,,,,,,8,21,female,8,2022_May_06_0914,Partial repeat,2021.2.3,59.89114147857275,
8,8,0,1,3,2,1,1,1,0,0,1,0,1,0,0,151,151,151,0,0,0,0,,,,,,,837.1346816997975,None,837.4295652993023,None,838.3274668008089,None,s,1,0.5777183007448912,838.3274668008089,None,None,None,,,,,,,8,21,female,8,2022_May_06_0914,Partial repeat,2021.2.3,59.89114147857275,
8,8,0,1,3,2,1,1,1,0,0,1,0,1,0,0,151,151,151,1,0,1,0,,,,,,,,,838.9304032996297,None,839.7467043995857,None,l,1,0.6305417008697987,839.7467043995857,None,None,None,,,,,,,8,21,female,8,2022_May_06_0914,Partial repeat,2021.2.3,59.89114147857275,
8,8,0,1,3,2,1,1,1,0,0,1,0,1,0,0,151,151,151,,,,,,,,,,,,,,,,,,,,,,,,,,,,,,8,21,female,8,2022_May_06_0914,Partial repeat,2021.2.3,59.89114147857275,
8,8,0,1,3,2,2,2,1,0,0,1,0,1,0,0,152,152,152,0,0,0,0,,,,,,,840.397013200447,None,840.5690013002604,None,841.3493505995721,None,s,1,0.5718948990106583,841.3493505995721,None,None,None,,,,,,,8,21,female,8,2022_May_06_0914,Partial repeat,2021.2.3,59.89114147857275,
8,8,0,1,3,2,2,2,1,0,0,1,0,1,0,0,152,152,152,1,0,1,0,,,,,,,,,841.9451205004007,None,842.9021322000772,None,l,1,0.42711159959435463,842.9021322000772,None,None,None,,,,,,,8,21,female,8,2022_May_06_0914,Partial repeat,2021.2.3,59.89114147857275,
