prime_tar_pos,probe_tar_pos,dimension,tar_color,prime_dist_color,probe_dist_color,prime_dist_shape,probe_dist_shape,prime_tar_dot_pos,probe_tar_dot_pos,col_rep,shape_rep,resp_rep,pos_fixed,sparse,MainLoop.thisRepN,MainLoop.thisTrialN,MainLoop.thisN,MainLoop.thisIndex,PrimeProbe.thisRepN,PrimeProbe.thisTrialN,PrimeProbe.thisN,PrimeProbe.thisIndex,Instruction.started,Instruction.stopped,instruction_key.keys,instruction_key.rt,instruction_key.started,instruction_key.stopped,PairStartText.started,PairStartText.stopped,FixCross.started,FixCross.stopped,SearchFixCross.started,SearchFixCross.stopped,key_resp.keys,key_resp.corr,key_resp.rt,key_resp.started,key_resp.stopped,feedback_text.started,feedback_text.stopped,text_finish.started,text_finish.stopped,finish_key.keys,finish_key.rt,finish_key.started,finish_key.stopped,participant,age,gender,group,date,expName,psychopyVersion,frameRate,
,,,,,,,,,,,,,,,,,,,,,,,801.4775255993009,None,space,58.3530183006078,801.4775255993009,None,,,,,,,,,,,,,,,,,,,,9,23,female,9,2022_May_06_1027,Partial repeat,2021.2.3,59.965051961991016,
8,7,0,1,3,3,2,1,1,0,1,0,0,0,0,0,0,0,0,0,0,0,0,,,,,,,859.9578044004738,None,863.9453462995589,None,864.712982499972,None,s,1,1.6133625004440546,864.712982499972,None,None,None,,,,,,,9,23,female,9,2022_May_06_1027,Partial repeat,2021.2.3,59.965051961991016,
8,7,0,1,3,3,2,1,1,0,1,0,0,0,0,0,0,0,0,1,0,1,0,,,,,,,,,866.356516899541,None,867.0801049992442,None,s,0,0.8461610991507769,867.0801049992442,None,867.9371298998594,None,,,,,,,9,23,female,9,2022_May_06_1027,Partial repeat,2021.2.3,59.965051961991016,
8,7,0,1,3,3,2,1,1,0,1,0,0,0,0,0,0,0,0,,,,,,,,,,,,,,,,,,,,,,,,,,,,,,9,23,female,9,2022_May_06_1027,Partial repeat,2021.2.3,59.965051961991016,
2,3,0,1,3,3,1,1,0,0,1,1,1,0,0,0,1,1,1,0,0,0,0,,,,,,,868.4375561997294,None,875.4010693002492,None,876.3315172996372,None,l,1,1.978796599432826,876.3315172996372,None,None,None,,,,,,,9,23,female,9,2022_May_06_1027,Partial repeat,2021.2.3,59.965051961991016,
2,3,0,1,3,3,1,1,0,0,1,1,1,0,0,0,1,1,1,1,0,1,0,,,,,,,,,878.3288626987487,None,879.2208933997899,None,l,1,0.8734016995877028,879.2208933997899,None,None,None,,,,,,,9,23,female,9,2022_May_06_1027,Partial repeat,2021.2.3,59.965051961991016,
2,3,0,1,3,3,1,1,0,0,1,1,1,0,0,0,1,1,1,,,,,,,,,,,,,,,,,,,,,,,,,,,,,,9,23,female,9,2022_May_06_1027,Partial repeat,2021.2.3,59.965051961991016,
3,7,0,1,2,3,1,1,0,0,0,1,1,0,0,0,2,2,2,0,0,0,0,,,,,,,880.1090891994536,None,882.4647893998772,None,883.3284692000598,None,l,1,0.9098348002880812,883.3284692000598,None,None,None,,,,,,,9,23,female,9,2022_May_06_1027,Partial repeat,2021.2.3,59.965051961991016,
3,7,0,1,2,3,1,1,0,0,0,1,1,0,0,0,2,2,2,1,0,1,0,,,,,,,,,884.2645792998374,None,885.1496415995061,None,l,1,0.7366497982293367,885.1496415995061,None,None,None,,,,,,,9,23,female,9,2022_May_06_1027,Partial repeat,2021.2.3,59.965051961991016,
3,7,0,1,2,3,1,1,0,0,0,1,1,0,0,0,2,2,2,,,,,,,,,,,,,,,,,,,,,,,,,,,,,,9,23,female,9,2022_May_06_1027,Partial repeat,2021.2.3,59.965051961991016,
1,8,0,1,2,2,2,1,1,1,1,0,1,0,0,0,3,3,3,0,0,0,0,,,,,,,885.9028163999319,None,887.7751714996994,None,888.6054238993675,None,s,1,0.6728894002735615,888.6054238993675,None,None,None,,,,,,,9,23,female,9,2022_May_06_1027,Partial repeat,2021.2.3,59.965051961991016,
1,8,0,1,2,2,2,1,1,1,1,0,1,0,0,0,3,3,3,1,0,1,0,,,,,,,,,889.2907465994358,None,890.1252624001354,None,s,1,0.6170543003827333,890.1252624001354,None,None,None,,,,,,,9,23,female,9,2022_May_06_1027,Partial repeat,2021.2.3,59.965051961991016,
1,8,0,1,2,2,2,1,1,1,1,0,1,0,0,0,3,3,3,,,,,,,,,,,,,,,,,,,,,,,,,,,,,,9,23,female,9,2022_May_06_1027,Partial repeat,2021.2.3,59.965051961991016,
7,4,0,1,2,2,2,2,1,0,1,1,0,0,0,0,4,4,4,0,0,0,0,,,,,,,890.7564902994782,None,892.1002344992012,None,892.8639754988253,None,s,1,0.6303390990942717,892.8639754988253,None,None,None,,,,,,,9,23,female,9,2022_May_06_1027,Partial repeat,2021.2.3,59.965051961991016,
7,4,0,1,2,2,2,2,1,0,1,1,0,0,0,0,4,4,4,1,0,1,0,,,,,,,,,893.5058129988611,None,894.4669813998044,None,l,1,0.5393416006118059,894.4669813998044,None,None,None,,,,,,,9,23,female,9,2022_May_06_1027,Partial repeat,2021.2.3,59.965051961991016,
7,4,0,1,2,2,2,2,1,0,1,1,0,0,0,0,4,4,4,,,,,,,,,,,,,,,,,,,,,,,,,,,,,,9,23,female,9,2022_May_06_1027,Partial repeat,2021.2.3,59.965051961991016,
4,5,0,1,2,3,2,2,1,1,0,1,1,0,0,0,5,5,5,0,0,0,0,,,,,,,895.0287723001093,None,896.5589269995689,None,897.5732106994838,None,s,1,0.7211456000804901,897.5732106994838,None,None,None,,,,,,,9,23,female,9,2022_May_06_1027,Partial repeat,2021.2.3,59.965051961991016,
4,5,0,1,2,3,2,2,1,1,0,1,1,0,0,0,5,5,5,1,0,1,0,,,,,,,,,898.3200038988143,None,899.3432531002909,None,s,1,0.7190637998282909,899.3432531002909,None,None,None,,,,,,,9,23,female,9,2022_May_06_1027,Partial repeat,2021.2.3,59.965051961991016,
4,5,0,1,2,3,2,2,1,1,0,1,1,0,0,0,5,5,5,,,,,,,,,,,,,,,,,,,,,,,,,,,,,,9,23,female,9,2022_May_06_1027,Partial repeat,2021.2.3,59.965051961991016,
7,5,0,1,3,3,2,2,0,0,1,1,1,0,0,0,6,6,6,0,0,0,0,,,,,,,900.0823509991169,None,901.5519414003938,None,902.28209660016,None,l,1,0.7562661990523338,902.28209660016,None,None,None,,,,,,,9,23,female,9,2022_May_06_1027,Partial repeat,2021.2.3,59.965051961991016,
7,5,0,1,3,3,2,2,0,0,1,1,1,0,0,0,6,6,6,1,0,1,0,,,,,,,,,903.0525729004294,None,903.7853119000793,None,s,0,1.0289933998137712,903.7853119000793,None,904.8358709998429,None,,,,,,,9,23,female,9,2022_May_06_1027,Partial repeat,2021.2.3,59.965051961991016,
7,5,0,1,3,3,2,2,0,0,1,1,1,0,0,0,6,6,6,,,,,,,,,,,,,,,,,,,,,,,,,,,,,,9,23,female,9,2022_May_06_1027,Partial repeat,2021.2.3,59.965051961991016,
6,3,0,1,3,3,2,1,0,0,1,0,1,0,0,0,7,7,7,0,0,0,0,,,,,,,905.3427133988589,None,907.6972706001252,None,908.661070600152,None,s,0,0.7532307989895344,908.661070600152,None,909.4307038988918,None,,,,,,,9,23,female,9,2022_May_06_1027,Partial repeat,2021.2.3,59.965051961991016,
6,3,0,1,3,3,2,1,0,0,1,0,1,0,0,0,7,7,7,1,0,1,0,,,,,,,,,909.9349635001272,None,910.7826560996473,None,l,1,0.9836191982030869,910.7826560996473,None,None,None,,,,,,,9,23,female,9,2022_May_06_1027,Partial repeat,2021.2.3,59.965051961991016,
6,3,0,1,3,3,2,1,0,0,1,0,1,0,0,0,7,7,7,,,,,,,,,,,,,,,,,,,,,,,,,,,,,,9,23,female,9,2022_May_06_1027,Partial repeat,2021.2.3,59.965051961991016,
5,3,0,1,3,3,2,1,1,1,1,0,1,0,0,0,8,8,8,0,0,0,0,,,,,,,911.7858127001673,None,913.8926606997848,None,914.7398474998772,None,s,1,0.6345285996794701,914.7398474998772,None,None,None,,,,,,,9,23,female,9,2022_May_06_1027,Partial repeat,2021.2.3,59.965051961991016,
5,3,0,1,3,3,2,1,1,1,1,0,1,0,0,0,8,8,8,1,0,1,0,,,,,,,,,915.4030392989516,None,916.1590484995395,None,s,1,0.7593191005289555,916.1590484995395,None,None,None,,,,,,,9,23,female,9,2022_May_06_1027,Partial repeat,2021.2.3,59.965051961991016,
5,3,0,1,3,3,2,1,1,1,1,0,1,0,0,0,8,8,8,,,,,,,,,,,,,,,,,,,,,,,,,,,,,,9,23,female,9,2022_May_06_1027,Partial repeat,2021.2.3,59.965051961991016,
4,4,0,1,2,3,1,2,1,0,0,0,0,0,0,0,9,9,9,0,0,0,0,,,,,,,916.9340243991464,None,919.0359434001148,None,919.8328837994486,None,s,1,0.7654764000326395,919.8328837994486,None,None,None,,,,,,,9,23,female,9,2022_May_06_1027,Partial repeat,2021.2.3,59.965051961991016,
4,4,0,1,2,3,1,2,1,0,0,0,0,0,0,0,9,9,9,1,0,1,0,,,,,,,,,920.6062966994941,None,921.4359431006014,None,l,1,0.5944540984928608,921.4359431006014,None,None,None,,,,,,,9,23,female,9,2022_May_06_1027,Partial repeat,2021.2.3,59.965051961991016,
4,4,0,1,2,3,1,2,1,0,0,0,0,0,0,0,9,9,9,,,,,,,,,,,,,,,,,,,,,,,,,,,,,,9,23,female,9,2022_May_06_1027,Partial repeat,2021.2.3,59.965051961991016,
3,1,0,1,3,2,1,2,1,0,0,0,0,0,0,0,10,10,10,0,0,0,0,,,,,,,922.0601390004158,None,924.0624224990606,None,924.9595071990043,None,s,1,0.7588790003210306,924.9595071990043,None,None,None,,,,,,,9,23,female,9,2022_May_06_1027,Partial repeat,2021.2.3,59.965051961991016,
3,1,0,1,3,2,1,2,1,0,0,0,0,0,0,0,10,10,10,1,0,1,0,,,,,,,,,925.728719400242,None,926.7133288998157,None,l,1,0.5969940014183521,926.7133288998157,None,None,None,,,,,,,9,23,female,9,2022_May_06_1027,Partial repeat,2021.2.3,59.965051961991016,
3,1,0,1,3,2,1,2,1,0,0,0,0,0,0,0,10,10,10,,,,,,,,,,,,,,,,,,,,,,,,,,,,,,9,23,female,9,2022_May_06_1027,Partial repeat,2021.2.3,59.965051961991016,
5,8,0,1,3,3,1,2,0,1,1,0,0,0,0,0,11,11,11,0,0,0,0,,,,,,,927.3401541002095,None,928.754873899743,None,929.6523743998259,None,s,0,0.7699420992285013,929.6523743998259,None,930.4391543995589,None,,,,,,,9,23,female,9,2022_May_06_1027,Partial repeat,2021.2.3,59.965051961991016,
5,8,0,1,3,3,1,2,0,1,1,0,0,0,0,0,11,11,11,1,0,1,0,,,,,,,,,930.9424673002213,None,931.8396014999598,None,s,1,0.8947001993656158,931.8396014999598,None,None,None,,,,,,,9,23,female,9,2022_May_06_1027,Partial repeat,2021.2.3,59.965051961991016,
5,8,0,1,3,3,1,2,0,1,1,0,0,0,0,0,11,11,11,,,,,,,,,,,,,,,,,,,,,,,,,,,,,,9,23,female,9,2022_May_06_1027,Partial repeat,2021.2.3,59.965051961991016,
5,5,0,1,2,3,1,2,1,1,0,0,1,0,0,0,12,12,12,0,0,0,0,,,,,,,932.7543531991541,None,934.2489206995815,None,935.1127930991352,None,s,1,0.8055329993367195,935.1127930991352,None,None,None,,,,,,,9,23,female,9,2022_May_06_1027,Partial repeat,2021.2.3,59.965051961991016,
5,5,0,1,2,3,1,2,1,1,0,0,1,0,0,0,12,12,12,1,0,1,0,,,,,,,,,935.937052199617,None,936.7500670999289,None,s,1,0.5282680988311768,936.7500670999289,None,None,None,,,,,,,9,23,female,9,2022_May_06_1027,Partial repeat,2021.2.3,59.965051961991016,
5,5,0,1,2,3,1,2,1,1,0,0,1,0,0,0,12,12,12,,,,,,,,,,,,,,,,,,,,,,,,,,,,,,9,23,female,9,2022_May_06_1027,Partial repeat,2021.2.3,59.965051961991016,
3,2,0,1,3,2,2,1,1,0,0,0,0,0,0,0,13,13,13,0,0,0,0,,,,,,,937.2923085987568,None,938.7743439991027,None,939.7049001995474,None,s,1,0.6214096993207932,939.7049001995474,None,None,None,,,,,,,9,23,female,9,2022_May_06_1027,Partial repeat,2021.2.3,59.965051961991016,
3,2,0,1,3,2,2,1,1,0,0,0,0,0,0,0,13,13,13,1,0,1,0,,,,,,,,,940.3475959990174,None,941.2581486999989,None,l,1,0.6122735999524593,941.2581486999989,None,None,None,,,,,,,9,23,female,9,2022_May_06_1027,Partial repeat,2021.2.3,59.965051961991016,
3,2,0,1,3,2,2,1,1,0,0,0,0,0,0,0,13,13,13,,,,,,,,,,,,,,,,,,,,,,,,,,,,,,9,23,female,9,2022_May_06_1027,Partial repeat,2021.2.3,59.965051961991016,
3,6,0,1,3,2,1,2,1,1,0,0,1,0,0,0,14,14,14,0,0,0,0,,,,,,,941.8828841987997,None,943.3332556989044,None,944.1468761004508,None,s,1,0.77143369987607,944.1468761004508,None,None,None,,,,,,,9,23,female,9,2022_May_06_1027,Partial repeat,2021.2.3,59.965051961991016,
3,6,0,1,3,2,1,2,1,1,0,0,1,0,0,0,14,14,14,1,0,1,0,,,,,,,,,944.9352639000863,None,945.8169979006052,None,s,1,0.6613581012934446,945.8169979006052,None,None,None,,,,,,,9,23,female,9,2022_May_06_1027,Partial repeat,2021.2.3,59.965051961991016,
3,6,0,1,3,2,1,2,1,1,0,0,1,0,0,0,14,14,14,,,,,,,,,,,,,,,,,,,,,,,,,,,,,,9,23,female,9,2022_May_06_1027,Partial repeat,2021.2.3,59.965051961991016,
2,7,0,1,2,2,1,2,1,1,1,0,1,0,0,0,15,15,15,0,0,0,0,,,,,,,946.5076604988426,None,948.4933170005679,None,949.4072102997452,None,s,1,0.7110919002443552,949.4072102997452,None,None,None,,,,,,,9,23,female,9,2022_May_06_1027,Partial repeat,2021.2.3,59.965051961991016,
2,7,0,1,2,2,1,2,1,1,1,0,1,0,0,0,15,15,15,1,0,1,0,,,,,,,,,950.1315273996443,None,950.8598554991186,None,s,1,0.5624470002949238,950.8598554991186,None,None,None,,,,,,,9,23,female,9,2022_May_06_1027,Partial repeat,2021.2.3,59.965051961991016,
2,7,0,1,2,2,1,2,1,1,1,0,1,0,0,0,15,15,15,,,,,,,,,,,,,,,,,,,,,,,,,,,,,,9,23,female,9,2022_May_06_1027,Partial repeat,2021.2.3,59.965051961991016,
1,3,0,1,2,2,2,1,0,0,1,0,1,0,0,0,16,16,16,0,0,0,0,,,,,,,951.4456035997719,None,952.7682179994881,None,953.4982492998242,None,l,1,0.6121238004416227,953.4982492998242,None,None,None,,,,,,,9,23,female,9,2022_May_06_1027,Partial repeat,2021.2.3,59.965051961991016,
1,3,0,1,2,2,2,1,0,0,1,0,1,0,0,0,16,16,16,1,0,1,0,,,,,,,,,954.1198986005038,None,955.1351376995444,None,l,1,0.727173401042819,955.1351376995444,None,None,None,,,,,,,9,23,female,9,2022_May_06_1027,Partial repeat,2021.2.3,59.965051961991016,
1,3,0,1,2,2,2,1,0,0,1,0,1,0,0,0,16,16,16,,,,,,,,,,,,,,,,,,,,,,,,,,,,,,9,23,female,9,2022_May_06_1027,Partial repeat,2021.2.3,59.965051961991016,
3,4,0,1,2,3,2,1,0,1,0,0,0,0,0,0,17,17,17,0,0,0,0,,,,,,,955.8911386989057,None,957.1100271996111,None,958.091098099947,None,l,1,0.6431824006140232,958.091098099947,None,None,None,,,,,,,9,23,female,9,2022_May_06_1027,Partial repeat,2021.2.3,59.965051961991016,
3,4,0,1,2,3,2,1,0,1,0,0,0,0,0,0,17,17,17,1,0,1,0,,,,,,,,,958.7531131003052,None,959.4933457989246,None,s,1,0.6329766996204853,959.4933457989246,None,None,None,,,,,,,9,23,female,9,2022_May_06_1027,Partial repeat,2021.2.3,59.965051961991016,
3,4,0,1,2,3,2,1,0,1,0,0,0,0,0,0,17,17,17,,,,,,,,,,,,,,,,,,,,,,,,,,,,,,9,23,female,9,2022_May_06_1027,Partial repeat,2021.2.3,59.965051961991016,
8,5,0,1,3,2,1,2,0,0,0,0,1,0,0,0,18,18,18,0,0,0,0,,,,,,,960.1407091990113,None,961.5019298996776,None,962.2824045997113,None,s,0,0.6439065001904964,962.2824045997113,None,962.9475066997111,None,,,,,,,9,23,female,9,2022_May_06_1027,Partial repeat,2021.2.3,59.965051961991016,
8,5,0,1,3,2,1,2,0,0,0,0,1,0,0,0,18,18,18,1,0,1,0,,,,,,,,,963.4557821992785,None,964.2193937003613,None,l,1,0.7708935998380184,964.2193937003613,None,None,None,,,,,,,9,23,female,9,2022_May_06_1027,Partial repeat,2021.2.3,59.965051961991016,
8,5,0,1,3,2,1,2,0,0,0,0,1,0,0,0,18,18,18,,,,,,,,,,,,,,,,,,,,,,,,,,,,,,9,23,female,9,2022_May_06_1027,Partial repeat,2021.2.3,59.965051961991016,
1,2,0,1,2,3,2,1,0,0,0,0,1,0,0,0,19,19,19,0,0,0,0,,,,,,,965.0156510993838,None,967.3967387005687,None,968.3277623001486,None,l,1,0.6785441990941763,968.3277623001486,None,None,None,,,,,,,9,23,female,9,2022_May_06_1027,Partial repeat,2021.2.3,59.965051961991016,
1,2,0,1,2,3,2,1,0,0,0,0,1,0,0,0,19,19,19,1,0,1,0,,,,,,,,,969.0332466997206,None,969.9303660001606,None,l,1,0.5798959005624056,969.9303660001606,None,None,None,,,,,,,9,23,female,9,2022_May_06_1027,Partial repeat,2021.2.3,59.965051961991016,
1,2,0,1,2,3,2,1,0,0,0,0,1,0,0,0,19,19,19,,,,,,,,,,,,,,,,,,,,,,,,,,,,,,9,23,female,9,2022_May_06_1027,Partial repeat,2021.2.3,59.965051961991016,
1,5,0,1,3,2,1,1,1,1,0,1,1,0,0,0,20,20,20,0,0,0,0,,,,,,,970.5335397999734,None,972.0223971996456,None,973.0368025992066,None,s,1,0.6495000999420881,973.0368025992066,None,None,None,,,,,,,9,23,female,9,2022_May_06_1027,Partial repeat,2021.2.3,59.965051961991016,
1,5,0,1,3,2,1,1,1,1,0,1,1,0,0,0,20,20,20,1,0,1,0,,,,,,,,,973.7010599989444,None,974.6898324992508,None,s,1,0.676519900560379,974.6898324992508,None,None,None,,,,,,,9,23,female,9,2022_May_06_1027,Partial repeat,2021.2.3,59.965051961991016,
1,5,0,1,3,2,1,1,1,1,0,1,1,0,0,0,20,20,20,,,,,,,,,,,,,,,,,,,,,,,,,,,,,,9,23,female,9,2022_May_06_1027,Partial repeat,2021.2.3,59.965051961991016,
6,8,0,1,2,2,2,1,1,0,1,0,0,0,0,0,21,21,21,0,0,0,0,,,,,,,975.3775273989886,None,976.9486846998334,None,977.8127290997654,None,s,1,0.8095782995223999,977.8127290997654,None,None,None,,,,,,,9,23,female,9,2022_May_06_1027,Partial repeat,2021.2.3,59.965051961991016,
6,8,0,1,2,2,2,1,1,0,1,0,0,0,0,0,21,21,21,1,0,1,0,,,,,,,,,978.6348758004606,None,979.6168427988887,None,l,1,0.5174629986286163,979.6168427988887,None,None,None,,,,,,,9,23,female,9,2022_May_06_1027,Partial repeat,2021.2.3,59.965051961991016,
6,8,0,1,2,2,2,1,1,0,1,0,0,0,0,0,21,21,21,,,,,,,,,,,,,,,,,,,,,,,,,,,,,,9,23,female,9,2022_May_06_1027,Partial repeat,2021.2.3,59.965051961991016,
8,2,0,1,3,3,2,2,1,0,1,1,0,0,0,0,22,22,22,0,0,0,0,,,,,,,980.1563942991197,None,982.0586302988231,None,982.8723175991327,None,s,1,0.7019923999905586,982.8723175991327,None,None,None,,,,,,,9,23,female,9,2022_May_06_1027,Partial repeat,2021.2.3,59.965051961991016,
8,2,0,1,3,3,2,2,1,0,1,1,0,0,0,0,22,22,22,1,0,1,0,,,,,,,,,983.5997042991221,None,984.4756528995931,None,l,1,0.554705798625946,984.4756528995931,None,None,None,,,,,,,9,23,female,9,2022_May_06_1027,Partial repeat,2021.2.3,59.965051961991016,
8,2,0,1,3,3,2,2,1,0,1,1,0,0,0,0,22,22,22,,,,,,,,,,,,,,,,,,,,,,,,,,,,,,9,23,female,9,2022_May_06_1027,Partial repeat,2021.2.3,59.965051961991016,
1,6,0,1,2,3,1,1,1,1,0,1,1,0,0,0,23,23,23,0,0,0,0,,,,,,,985.0407982990146,None,986.5339515004307,None,987.2639979999512,None,s,1,0.6623192001134157,987.2639979999512,None,None,None,,,,,,,9,23,female,9,2022_May_06_1027,Partial repeat,2021.2.3,59.965051961991016,
1,6,0,1,2,3,1,1,1,1,0,1,1,0,0,0,23,23,23,1,0,1,0,,,,,,,,,987.9464130997658,None,988.96739850007,None,s,1,0.63091079890728,988.96739850007,None,None,None,,,,,,,9,23,female,9,2022_May_06_1027,Partial repeat,2021.2.3,59.965051961991016,
1,6,0,1,2,3,1,1,1,1,0,1,1,0,0,0,23,23,23,,,,,,,,,,,,,,,,,,,,,,,,,,,,,,9,23,female,9,2022_May_06_1027,Partial repeat,2021.2.3,59.965051961991016,
7,3,0,1,3,3,2,2,1,1,1,1,1,0,0,0,24,24,24,0,0,0,0,,,,,,,989.6161090005189,None,992.0113033987582,None,992.9927981998771,None,s,1,0.5975477993488312,992.9927981998771,None,None,None,,,,,,,9,23,female,9,2022_May_06_1027,Partial repeat,2021.2.3,59.965051961991016,
7,3,0,1,3,3,2,2,1,1,1,1,1,0,0,0,24,24,24,1,0,1,0,,,,,,,,,993.6192355994135,None,994.5959326997399,None,s,1,0.578387800604105,994.5959326997399,None,None,None,,,,,,,9,23,female,9,2022_May_06_1027,Partial repeat,2021.2.3,59.965051961991016,
7,3,0,1,3,3,2,2,1,1,1,1,1,0,0,0,24,24,24,,,,,,,,,,,,,,,,,,,,,,,,,,,,,,9,23,female,9,2022_May_06_1027,Partial repeat,2021.2.3,59.965051961991016,
8,6,0,1,2,3,2,2,0,0,0,1,1,0,0,0,25,25,25,0,0,0,0,,,,,,,995.2025913000107,None,996.0692132003605,None,996.9996498990804,None,l,1,0.5906341001391411,996.9996498990804,None,None,None,,,,,,,9,23,female,9,2022_May_06_1027,Partial repeat,2021.2.3,59.965051961991016,
8,6,0,1,2,3,2,2,0,0,0,1,1,0,0,0,25,25,25,1,0,1,0,,,,,,,,,997.6188099998981,None,998.6196902990341,None,l,1,0.6346196997910738,998.6196902990341,None,None,None,,,,,,,9,23,female,9,2022_May_06_1027,Partial repeat,2021.2.3,59.965051961991016,
8,6,0,1,2,3,2,2,0,0,0,1,1,0,0,0,25,25,25,,,,,,,,,,,,,,,,,,,,,,,,,,,,,,9,23,female,9,2022_May_06_1027,Partial repeat,2021.2.3,59.965051961991016,
5,4,0,1,2,2,1,1,0,1,1,1,0,0,0,0,26,26,26,0,0,0,0,,,,,,,999.2685026992112,None,1001.4462931994349,None,1002.3434877004474,None,l,1,0.6388319004327059,1002.3434877004474,None,None,None,,,,,,,9,23,female,9,2022_May_06_1027,Partial repeat,2021.2.3,59.965051961991016,
5,4,0,1,2,2,1,1,0,1,1,1,0,0,0,0,26,26,26,1,0,1,0,,,,,,,,,1003.0068496000022,None,1004.0134648997337,None,s,1,0.45684409886598587,1004.0134648997337,None,None,None,,,,,,,9,23,female,9,2022_May_06_1027,Partial repeat,2021.2.3,59.965051961991016,
5,4,0,1,2,2,1,1,0,1,1,1,0,0,0,0,26,26,26,,,,,,,,,,,,,,,,,,,,,,,,,,,,,,9,23,female,9,2022_May_06_1027,Partial repeat,2021.2.3,59.965051961991016,
7,2,0,1,2,2,1,1,0,0,1,1,1,0,0,0,27,27,27,0,0,0,0,,,,,,,1004.4920048993081,None,1005.8382277004421,None,1006.6361499000341,None,l,1,0.6342149004340172,1006.6361499000341,None,None,None,,,,,,,9,23,female,9,2022_May_06_1027,Partial repeat,2021.2.3,59.965051961991016,
7,2,0,1,2,2,1,1,0,0,1,1,1,0,0,0,27,27,27,1,0,1,0,,,,,,,,,1007.2790577989072,None,1008.221484400332,None,l,1,0.6088757999241352,1008.221484400332,None,None,None,,,,,,,9,23,female,9,2022_May_06_1027,Partial repeat,2021.2.3,59.965051961991016,
7,2,0,1,2,2,1,1,0,0,1,1,1,0,0,0,27,27,27,,,,,,,,,,,,,,,,,,,,,,,,,,,,,,9,23,female,9,2022_May_06_1027,Partial repeat,2021.2.3,59.965051961991016,
3,3,0,1,3,2,1,2,0,1,0,0,0,0,0,0,28,28,28,0,0,0,0,,,,,,,1008.8440340999514,None,1010.413722500205,None,1011.377753900364,None,l,1,0.564555898308754,1011.377753900364,None,None,None,,,,,,,9,23,female,9,2022_May_06_1027,Partial repeat,2021.2.3,59.965051961991016,
3,3,0,1,3,2,1,2,0,1,0,0,0,0,0,0,28,28,28,1,0,1,0,,,,,,,,,1011.9594585988671,None,1012.8305775988847,None,s,1,0.6157748997211456,1012.8305775988847,None,None,None,,,,,,,9,23,female,9,2022_May_06_1027,Partial repeat,2021.2.3,59.965051961991016,
3,3,0,1,3,2,1,2,0,1,0,0,0,0,0,0,28,28,28,,,,,,,,,,,,,,,,,,,,,,,,,,,,,,9,23,female,9,2022_May_06_1027,Partial repeat,2021.2.3,59.965051961991016,
4,7,0,1,2,2,2,2,0,1,1,1,0,0,0,0,29,29,29,0,0,0,0,,,,,,,1013.4575337003917,None,1014.6219843998551,None,1015.5532453991473,None,l,1,0.7090647984296083,1015.5532453991473,None,None,None,,,,,,,9,23,female,9,2022_May_06_1027,Partial repeat,2021.2.3,59.965051961991016,
4,7,0,1,2,2,2,2,0,1,1,1,0,0,0,0,29,29,29,1,0,1,0,,,,,,,,,1016.2835560999811,None,1017.1055437996984,None,s,1,0.8687649015337229,1017.1055437996984,None,None,None,,,,,,,9,23,female,9,2022_May_06_1027,Partial repeat,2021.2.3,59.965051961991016,
4,7,0,1,2,2,2,2,0,1,1,1,0,0,0,0,29,29,29,,,,,,,,,,,,,,,,,,,,,,,,,,,,,,9,23,female,9,2022_May_06_1027,Partial repeat,2021.2.3,59.965051961991016,
5,7,0,1,3,2,2,1,0,1,0,0,0,0,0,0,30,30,30,0,0,0,0,,,,,,,1017.9998537991196,None,1019.1307415999472,None,1019.8611709997058,None,l,1,0.6251369994133711,1019.8611709997058,None,None,None,,,,,,,9,23,female,9,2022_May_06_1027,Partial repeat,2021.2.3,59.965051961991016,
5,7,0,1,3,2,2,1,0,1,0,0,0,0,0,0,30,30,30,1,0,1,0,,,,,,,,,1020.5048868004233,None,1021.4477460999042,None,s,1,0.5425620004534721,1021.4477460999042,None,None,None,,,,,,,9,23,female,9,2022_May_06_1027,Partial repeat,2021.2.3,59.965051961991016,
5,7,0,1,3,2,2,1,0,1,0,0,0,0,0,0,30,30,30,,,,,,,,,,,,,,,,,,,,,,,,,,,,,,9,23,female,9,2022_May_06_1027,Partial repeat,2021.2.3,59.965051961991016,
6,2,0,1,2,2,1,2,0,0,1,0,1,0,0,0,31,31,31,0,0,0,0,,,,,,,1022.0127675998956,None,1023.2721151988953,None,1024.1358890999109,None,l,1,0.566414300352335,1024.1358890999109,None,None,None,,,,,,,9,23,female,9,2022_May_06_1027,Partial repeat,2021.2.3,59.965051961991016,
6,2,0,1,2,2,1,2,0,0,1,0,1,0,0,0,31,31,31,1,0,1,0,,,,,,,,,1024.7154453005642,None,1025.5054011996835,None,l,1,0.5249432995915413,1025.5054011996835,None,None,None,,,,,,,9,23,female,9,2022_May_06_1027,Partial repeat,2021.2.3,59.965051961991016,
6,2,0,1,2,2,1,2,0,0,1,0,1,0,0,0,31,31,31,,,,,,,,,,,,,,,,,,,,,,,,,,,,,,9,23,female,9,2022_May_06_1027,Partial repeat,2021.2.3,59.965051961991016,
8,1,0,1,2,3,2,2,1,0,0,1,0,0,0,0,32,32,32,0,0,0,0,,,,,,,1026.0617085006088,None,1027.1296587996185,None,1027.9433043003082,None,s,1,0.5750044994056225,1027.9433043003082,None,None,None,,,,,,,9,23,female,9,2022_May_06_1027,Partial repeat,2021.2.3,59.965051961991016,
8,1,0,1,2,3,2,2,1,0,0,1,0,0,0,0,32,32,32,1,0,1,0,,,,,,,,,1028.5404933989048,None,1029.5463165994734,None,l,1,0.5960246995091438,1029.5463165994734,None,None,None,,,,,,,9,23,female,9,2022_May_06_1027,Partial repeat,2021.2.3,59.965051961991016,
8,1,0,1,2,3,2,2,1,0,0,1,0,0,0,0,32,32,32,,,,,,,,,,,,,,,,,,,,,,,,,,,,,,9,23,female,9,2022_May_06_1027,Partial repeat,2021.2.3,59.965051961991016,
1,1,0,1,3,2,1,1,0,1,0,1,0,0,0,0,33,33,33,0,0,0,0,,,,,,,1030.1558058988303,None,1034.9448355995119,None,1035.7920140996575,None,l,1,0.6382996011525393,1035.7920140996575,None,None,None,,,,,,,9,23,female,9,2022_May_06_1027,Partial repeat,2021.2.3,59.965051961991016,
1,1,0,1,3,2,1,1,0,1,0,1,0,0,0,0,33,33,33,1,0,1,0,,,,,,,,,1036.4533142000437,None,1037.19459579885,None,s,1,0.7077166009694338,1037.19459579885,None,None,None,,,,,,,9,23,female,9,2022_May_06_1027,Partial repeat,2021.2.3,59.965051961991016,
1,1,0,1,3,2,1,1,0,1,0,1,0,0,0,0,33,33,33,,,,,,,,,,,,,,,,,,,,,,,,,,,,,,9,23,female,9,2022_May_06_1027,Partial repeat,2021.2.3,59.965051961991016,
8,4,0,1,3,3,1,2,0,0,1,0,1,0,0,0,34,34,34,0,0,0,0,,,,,,,1037.9275160003453,None,1041.2237266991287,None,1041.95385969989,None,l,1,0.636430699378252,1041.95385969989,None,None,None,,,,,,,9,23,female,9,2022_May_06_1027,Partial repeat,2021.2.3,59.965051961991016,
8,4,0,1,3,3,1,2,0,0,1,0,1,0,0,0,34,34,34,1,0,1,0,,,,,,,,,1042.615274099633,None,1043.4235477987677,None,l,1,0.5349153000861406,1043.4235477987677,None,None,None,,,,,,,9,23,female,9,2022_May_06_1027,Partial repeat,2021.2.3,59.965051961991016,
8,4,0,1,3,3,1,2,0,0,1,0,1,0,0,0,34,34,34,,,,,,,,,,,,,,,,,,,,,,,,,,,,,,9,23,female,9,2022_May_06_1027,Partial repeat,2021.2.3,59.965051961991016,
8,3,0,1,2,2,2,2,0,0,1,1,1,0,0,0,35,35,35,0,0,0,0,,,,,,,1043.9871934000403,None,1044.9142221994698,None,1045.7955507989973,None,l,1,0.5147735998034477,1045.7955507989973,None,None,None,,,,,,,9,23,female,9,2022_May_06_1027,Partial repeat,2021.2.3,59.965051961991016,
8,3,0,1,2,2,2,2,0,0,1,1,1,0,0,0,35,35,35,1,0,1,0,,,,,,,,,1046.3349051997066,None,1047.18063659966,None,l,1,0.4816763997077942,1047.18063659966,None,None,None,,,,,,,9,23,female,9,2022_May_06_1027,Partial repeat,2021.2.3,59.965051961991016,
8,3,0,1,2,2,2,2,0,0,1,1,1,0,0,0,35,35,35,,,,,,,,,,,,,,,,,,,,,,,,,,,,,,9,23,female,9,2022_May_06_1027,Partial repeat,2021.2.3,59.965051961991016,
2,5,0,1,3,3,2,2,0,1,1,1,0,0,0,0,36,36,36,0,0,0,0,,,,,,,1047.6817182991654,None,1048.5880893003196,None,1049.3358976989985,None,l,1,0.5904328003525734,1049.3358976989985,None,None,None,,,,,,,9,23,female,9,2022_May_06_1027,Partial repeat,2021.2.3,59.965051961991016,
2,5,0,1,3,3,2,2,0,1,1,1,0,0,0,0,36,36,36,1,0,1,0,,,,,,,,,1049.9376893993467,None,1050.8547855000943,None,s,1,0.5195394996553659,1050.8547855000943,None,None,None,,,,,,,9,23,female,9,2022_May_06_1027,Partial repeat,2021.2.3,59.965051961991016,
2,5,0,1,3,3,2,2,0,1,1,1,0,0,0,0,36,36,36,,,,,,,,,,,,,,,,,,,,,,,,,,,,,,9,23,female,9,2022_May_06_1027,Partial repeat,2021.2.3,59.965051961991016,
4,3,0,1,3,2,1,1,1,0,0,1,0,0,0,0,37,37,37,0,0,0,0,,,,,,,1051.395492900163,None,1052.328708698973,None,1053.2431487999856,None,s,1,0.7152309007942677,1053.2431487999856,None,None,None,,,,,,,9,23,female,9,2022_May_06_1027,Partial repeat,2021.2.3,59.965051961991016,
4,3,0,1,3,2,1,1,1,0,0,1,0,0,0,0,37,37,37,1,0,1,0,,,,,,,,,1053.9678910002112,None,1054.7456304989755,None,l,1,0.588688800111413,1054.7456304989755,None,None,None,,,,,,,9,23,female,9,2022_May_06_1027,Partial repeat,2021.2.3,59.965051961991016,
4,3,0,1,3,2,1,1,1,0,0,1,0,0,0,0,37,37,37,,,,,,,,,,,,,,,,,,,,,,,,,,,,,,9,23,female,9,2022_May_06_1027,Partial repeat,2021.2.3,59.965051961991016,
7,8,0,1,2,2,2,2,1,1,1,1,1,0,0,0,38,38,38,0,0,0,0,,,,,,,1055.3556265998632,None,1056.0524962004274,None,1057.0168200992048,None,s,1,0.645431699231267,1057.0168200992048,None,None,None,,,,,,,9,23,female,9,2022_May_06_1027,Partial repeat,2021.2.3,59.965051961991016,
7,8,0,1,2,2,2,2,1,1,1,1,1,0,0,0,38,38,38,1,0,1,0,,,,,,,,,1057.6803737990558,None,1058.4363513998687,None,s,1,0.642008800059557,1058.4363513998687,None,None,None,,,,,,,9,23,female,9,2022_May_06_1027,Partial repeat,2021.2.3,59.965051961991016,
7,8,0,1,2,2,2,2,1,1,1,1,1,0,0,0,38,38,38,,,,,,,,,,,,,,,,,,,,,,,,,,,,,,9,23,female,9,2022_May_06_1027,Partial repeat,2021.2.3,59.965051961991016,
2,2,0,1,2,3,1,1,0,1,0,1,0,0,0,0,39,39,39,0,0,0,0,,,,,,,1059.0896068997681,None,1059.7264258991927,None,1060.673888798803,None,s,0,0.6124213989824057,1060.673888798803,None,1061.2987788002938,None,,,,,,,9,23,female,9,2022_May_06_1027,Partial repeat,2021.2.3,59.965051961991016,
2,2,0,1,2,3,1,1,0,1,0,1,0,0,0,0,39,39,39,1,0,1,0,,,,,,,,,1061.8138389997184,None,1062.67760729976,None,l,0,0.5767457000911236,1062.67760729976,None,1063.2840074002743,None,,,,,,,9,23,female,9,2022_May_06_1027,Partial repeat,2021.2.3,59.965051961991016,
2,2,0,1,2,3,1,1,0,1,0,1,0,0,0,0,39,39,39,,,,,,,,,,,,,,,,,,,,,,,,,,,,,,9,23,female,9,2022_May_06_1027,Partial repeat,2021.2.3,59.965051961991016,
5,2,0,1,3,3,1,1,1,0,1,1,0,0,0,0,40,40,40,0,0,0,0,,,,,,,1063.784351799637,None,1064.5692145004869,None,1065.516778299585,None,s,1,0.737533601000905,1065.516778299585,None,None,None,,,,,,,9,23,female,9,2022_May_06_1027,Partial repeat,2021.2.3,59.965051961991016,
5,2,0,1,3,3,1,1,1,0,1,1,0,0,0,0,40,40,40,1,0,1,0,,,,,,,,,1066.2676075994968,None,1067.253037199378,None,l,1,0.5772766005247831,1067.253037199378,None,None,None,,,,,,,9,23,female,9,2022_May_06_1027,Partial repeat,2021.2.3,59.965051961991016,
5,2,0,1,3,3,1,1,1,0,1,1,0,0,0,0,40,40,40,,,,,,,,,,,,,,,,,,,,,,,,,,,,,,9,23,female,9,2022_May_06_1027,Partial repeat,2021.2.3,59.965051961991016,
6,6,0,1,2,3,2,2,0,1,0,1,0,0,0,0,41,41,41,0,0,0,0,,,,,,,1067.8561719004065,None,1068.359884198755,None,1069.107717499137,None,s,0,0.8665938004851341,1069.107717499137,None,1069.9868435002863,None,,,,,,,9,23,female,9,2022_May_06_1027,Partial repeat,2021.2.3,59.965051961991016,
6,6,0,1,2,3,2,2,0,1,0,1,0,0,0,0,41,41,41,1,0,1,0,,,,,,,,,1070.4974000994116,None,1071.3108923994005,None,l,0,0.7595399990677834,1071.3108923994005,None,1072.082625899464,None,,,,,,,9,23,female,9,2022_May_06_1027,Partial repeat,2021.2.3,59.965051961991016,
6,6,0,1,2,3,2,2,0,1,0,1,0,0,0,0,41,41,41,,,,,,,,,,,,,,,,,,,,,,,,,,,,,,9,23,female,9,2022_May_06_1027,Partial repeat,2021.2.3,59.965051961991016,
7,6,0,1,3,3,2,1,0,1,1,0,0,0,0,0,42,42,42,0,0,0,0,,,,,,,1072.5847709998488,None,1073.903979498893,None,1074.884942298755,None,l,1,0.801553301513195,1074.884942298755,None,None,None,,,,,,,9,23,female,9,2022_May_06_1027,Partial repeat,2021.2.3,59.965051961991016,
7,6,0,1,3,3,2,1,0,1,1,0,0,0,0,0,42,42,42,1,0,1,0,,,,,,,,,1075.6960052996874,None,1076.5382578000426,None,s,1,0.5801032986491919,1076.5382578000426,None,None,None,,,,,,,9,23,female,9,2022_May_06_1027,Partial repeat,2021.2.3,59.965051961991016,
7,6,0,1,3,3,2,1,0,1,1,0,0,0,0,0,42,42,42,,,,,,,,,,,,,,,,,,,,,,,,,,,,,,9,23,female,9,2022_May_06_1027,Partial repeat,2021.2.3,59.965051961991016,
2,1,0,1,2,2,1,1,1,0,1,1,0,0,0,0,43,43,43,0,0,0,0,,,,,,,1077.1482170000672,None,1082.0865790992975,None,1082.8166927006096,None,s,1,0.7096567004919052,1082.8166927006096,None,None,None,,,,,,,9,23,female,9,2022_May_06_1027,Partial repeat,2021.2.3,59.965051961991016,
2,1,0,1,2,2,1,1,1,0,1,1,0,0,0,0,43,43,43,1,0,1,0,,,,,,,,,1083.5397945996374,None,1084.3362709991634,None,l,1,0.5980312004685402,1084.3362709991634,None,None,None,,,,,,,9,23,female,9,2022_May_06_1027,Partial repeat,2021.2.3,59.965051961991016,
2,1,0,1,2,2,1,1,1,0,1,1,0,0,0,0,43,43,43,,,,,,,,,,,,,,,,,,,,,,,,,,,,,,9,23,female,9,2022_May_06_1027,Partial repeat,2021.2.3,59.965051961991016,
2,4,0,1,2,3,2,1,1,1,0,0,1,0,0,0,44,44,44,0,0,0,0,,,,,,,1084.965288899839,None,1087.497139500454,None,1088.3610181994736,None,s,1,0.7333610001951456,1088.3610181994736,None,None,None,,,,,,,9,23,female,9,2022_May_06_1027,Partial repeat,2021.2.3,59.965051961991016,
2,4,0,1,2,3,2,1,1,1,0,0,1,0,0,0,44,44,44,1,0,1,0,,,,,,,,,1089.1096037998796,None,1090.1308254003525,None,s,1,0.6594733987003565,1090.1308254003525,None,None,None,,,,,,,9,23,female,9,2022_May_06_1027,Partial repeat,2021.2.3,59.965051961991016,
2,4,0,1,2,3,2,1,1,1,0,0,1,0,0,0,44,44,44,,,,,,,,,,,,,,,,,,,,,,,,,,,,,,9,23,female,9,2022_May_06_1027,Partial repeat,2021.2.3,59.965051961991016,
6,5,0,1,2,3,1,2,0,0,0,0,1,0,0,0,45,45,45,0,0,0,0,,,,,,,1090.80109260045,None,1091.6385260988027,None,1092.3863241989166,None,l,1,0.596060998737812,1092.3863241989166,None,None,None,,,,,,,9,23,female,9,2022_May_06_1027,Partial repeat,2021.2.3,59.965051961991016,
6,5,0,1,2,3,1,2,0,0,0,0,1,0,0,0,45,45,45,1,0,1,0,,,,,,,,,1093.0095709003508,None,1093.9887955989689,None,l,1,0.5935622006654739,1093.9887955989689,None,None,None,,,,,,,9,23,female,9,2022_May_06_1027,Partial repeat,2021.2.3,59.965051961991016,
6,5,0,1,2,3,1,2,0,0,0,0,1,0,0,0,45,45,45,,,,,,,,,,,,,,,,,,,,,,,,,,,,,,9,23,female,9,2022_May_06_1027,Partial repeat,2021.2.3,59.965051961991016,
6,7,0,1,3,2,2,2,0,0,0,1,1,0,0,0,46,46,46,0,0,0,0,,,,,,,1094.612984199077,None,1095.2789027001709,None,1095.9925110004842,None,l,1,0.5738466996699572,1095.9925110004842,None,None,None,,,,,,,9,23,female,9,2022_May_06_1027,Partial repeat,2021.2.3,59.965051961991016,
6,7,0,1,3,2,2,2,0,0,0,1,1,0,0,0,46,46,46,1,0,1,0,,,,,,,,,1096.5941297989339,None,1097.4618420992047,None,l,1,1.152514299377799,1097.4618420992047,None,None,None,,,,,,,9,23,female,9,2022_May_06_1027,Partial repeat,2021.2.3,59.965051961991016,
6,7,0,1,3,2,2,2,0,0,0,1,1,0,0,0,46,46,46,,,,,,,,,,,,,,,,,,,,,,,,,,,,,,9,23,female,9,2022_May_06_1027,Partial repeat,2021.2.3,59.965051961991016,
1,7,0,1,3,2,2,2,1,1,0,1,1,0,0,0,47,47,47,0,0,0,0,,,,,,,1098.6436240002513,None,1099.2700452003628,None,1100.0502751991153,None,s,1,0.6120781991630793,1100.0502751991153,None,None,None,,,,,,,9,23,female,9,2022_May_06_1027,Partial repeat,2021.2.3,59.965051961991016,
1,7,0,1,3,2,2,2,1,1,0,1,1,0,0,0,47,47,47,1,0,1,0,,,,,,,,,1100.6913443990052,None,1101.5033184997737,None,l,0,0.6949952002614737,1101.5033184997737,None,1102.2168632987887,None,,,,,,,9,23,female,9,2022_May_06_1027,Partial repeat,2021.2.3,59.965051961991016,
1,7,0,1,3,2,2,2,1,1,0,1,1,0,0,0,47,47,47,,,,,,,,,,,,,,,,,,,,,,,,,,,,,,9,23,female,9,2022_May_06_1027,Partial repeat,2021.2.3,59.965051961991016,
6,4,0,1,2,2,1,2,0,1,1,0,0,0,0,0,48,48,48,0,0,0,0,,,,,,,1102.7267732992768,None,1103.7120147999376,None,1104.5759539995342,None,l,1,0.7743999995291233,1104.5759539995342,None,None,None,,,,,,,9,23,female,9,2022_May_06_1027,Partial repeat,2021.2.3,59.965051961991016,
6,4,0,1,2,2,1,2,0,1,1,0,0,0,0,0,48,48,48,1,0,1,0,,,,,,,,,1105.3670118991286,None,1106.1298941988498,None,s,1,0.6844333000481129,1106.1298941988498,None,None,None,,,,,,,9,23,female,9,2022_May_06_1027,Partial repeat,2021.2.3,59.965051961991016,
6,4,0,1,2,2,1,2,0,1,1,0,0,0,0,0,48,48,48,,,,,,,,,,,,,,,,,,,,,,,,,,,,,,9,23,female,9,2022_May_06_1027,Partial repeat,2021.2.3,59.965051961991016,
2,8,0,1,2,3,1,1,1,0,0,1,0,0,0,0,49,49,49,0,0,0,0,,,,,,,1106.8424308001995,None,1108.0538010988384,None,1108.7841993998736,None,s,1,0.6621230002492666,1108.7841993998736,None,None,None,,,,,,,9,23,female,9,2022_May_06_1027,Partial repeat,2021.2.3,59.965051961991016,
2,8,0,1,2,3,1,1,1,0,0,1,0,0,0,0,49,49,49,1,0,1,0,,,,,,,,,1109.4715071991086,None,1110.2704245001078,None,l,1,0.5759455990046263,1110.2704245001078,None,None,None,,,,,,,9,23,female,9,2022_May_06_1027,Partial repeat,2021.2.3,59.965051961991016,
2,8,0,1,2,3,1,1,1,0,0,1,0,0,0,0,49,49,49,,,,,,,,,,,,,,,,,,,,,,,,,,,,,,9,23,female,9,2022_May_06_1027,Partial repeat,2021.2.3,59.965051961991016,
4,1,0,1,2,2,2,1,0,1,1,0,0,0,0,0,50,50,50,0,0,0,0,,,,,,,1110.8584698997438,None,1111.961405299604,None,1112.7095264997333,None,l,1,0.9448293000459671,1112.7095264997333,None,None,None,,,,,,,9,23,female,9,2022_May_06_1027,Partial repeat,2021.2.3,59.965051961991016,
4,1,0,1,2,2,2,1,0,1,1,0,0,0,0,0,50,50,50,1,0,1,0,,,,,,,,,1113.671283999458,None,1114.4448875002563,None,s,1,0.7294302992522717,1114.4448875002563,None,None,None,,,,,,,9,23,female,9,2022_May_06_1027,Partial repeat,2021.2.3,59.965051961991016,
4,1,0,1,2,2,2,1,0,1,1,0,0,0,0,0,50,50,50,,,,,,,,,,,,,,,,,,,,,,,,,,,,,,9,23,female,9,2022_May_06_1027,Partial repeat,2021.2.3,59.965051961991016,
4,8,0,1,2,2,1,1,1,1,1,1,1,0,0,0,51,51,51,0,0,0,0,,,,,,,1115.196878099814,None,1116.102737000212,None,1117.0672279000282,None,s,1,0.7792172003537416,1117.0672279000282,None,None,None,,,,,,,9,23,female,9,2022_May_06_1027,Partial repeat,2021.2.3,59.965051961991016,
4,8,0,1,2,2,1,1,1,1,1,1,1,0,0,0,51,51,51,1,0,1,0,,,,,,,,,1117.8747319988906,None,1118.7536075990647,None,s,1,0.7087083999067545,1118.7536075990647,None,None,None,,,,,,,9,23,female,9,2022_May_06_1027,Partial repeat,2021.2.3,59.965051961991016,
4,8,0,1,2,2,1,1,1,1,1,1,1,0,0,0,51,51,51,,,,,,,,,,,,,,,,,,,,,,,,,,,,,,9,23,female,9,2022_May_06_1027,Partial repeat,2021.2.3,59.965051961991016,
3,5,0,1,3,2,2,1,1,1,0,0,1,0,0,0,52,52,52,0,0,0,0,,,,,,,1119.4864362999797,None,1120.8787238001823,None,1121.8438159003854,None,s,1,0.850484000518918,1121.8438159003854,None,None,None,,,,,,,9,23,female,9,2022_May_06_1027,Partial repeat,2021.2.3,59.965051961991016,
3,5,0,1,3,2,2,1,1,1,0,0,1,0,0,0,52,52,52,1,0,1,0,,,,,,,,,1122.7205401994288,None,1123.6139486003667,None,s,1,0.5363695006817579,1123.6139486003667,None,None,None,,,,,,,9,23,female,9,2022_May_06_1027,Partial repeat,2021.2.3,59.965051961991016,
3,5,0,1,3,2,2,1,1,1,0,0,1,0,0,0,52,52,52,,,,,,,,,,,,,,,,,,,,,,,,,,,,,,9,23,female,9,2022_May_06_1027,Partial repeat,2021.2.3,59.965051961991016,
7,1,0,1,3,3,1,2,1,1,1,0,1,0,0,0,53,53,53,0,0,0,0,,,,,,,1124.1774783004075,None,1125.571206599474,None,1126.3182648997754,None,s,1,0.7200623005628586,1126.3182648997754,None,None,None,,,,,,,9,23,female,9,2022_May_06_1027,Partial repeat,2021.2.3,59.965051961991016,
7,1,0,1,3,3,1,2,1,1,1,0,1,0,0,0,53,53,53,1,0,1,0,,,,,,,,,1127.0647601000965,None,1127.9381076004356,None,s,1,0.572206100448966,1127.9381076004356,None,None,None,,,,,,,9,23,female,9,2022_May_06_1027,Partial repeat,2021.2.3,59.965051961991016,
7,1,0,1,3,3,1,2,1,1,1,0,1,0,0,0,53,53,53,,,,,,,,,,,,,,,,,,,,,,,,,,,,,,9,23,female,9,2022_May_06_1027,Partial repeat,2021.2.3,59.965051961991016,
6,1,0,1,2,2,1,2,1,0,1,0,0,0,0,0,54,54,54,0,0,0,0,,,,,,,1128.5329360999167,None,1130.480775900185,None,1131.3951529990882,None,s,1,0.61127769947052,1131.3951529990882,None,None,None,,,,,,,9,23,female,9,2022_May_06_1027,Partial repeat,2021.2.3,59.965051961991016,
6,1,0,1,2,2,1,2,1,0,1,0,0,0,0,0,54,54,54,1,0,1,0,,,,,,,,,1132.0179928001016,None,1133.0147565994412,None,l,1,0.7195891998708248,1133.0147565994412,None,None,None,,,,,,,9,23,female,9,2022_May_06_1027,Partial repeat,2021.2.3,59.965051961991016,
6,1,0,1,2,2,1,2,1,0,1,0,0,0,0,0,54,54,54,,,,,,,,,,,,,,,,,,,,,,,,,,,,,,9,23,female,9,2022_May_06_1027,Partial repeat,2021.2.3,59.965051961991016,
5,6,0,1,2,3,1,2,0,1,0,0,0,0,0,0,55,55,55,0,0,0,0,,,,,,,1133.7509901989251,None,1135.5739491004497,None,1136.3376004993916,None,l,1,1.1727185007184744,1136.3376004993916,None,None,None,,,,,,,9,23,female,9,2022_May_06_1027,Partial repeat,2021.2.3,59.965051961991016,
5,6,0,1,2,3,1,2,0,1,0,0,0,0,0,0,55,55,55,1,0,1,0,,,,,,,,,1137.5304703004658,None,1138.4757687989622,None,s,1,0.794572900980711,1138.4757687989622,None,None,None,,,,,,,9,23,female,9,2022_May_06_1027,Partial repeat,2021.2.3,59.965051961991016,
5,6,0,1,2,3,1,2,0,1,0,0,0,0,0,0,55,55,55,,,,,,,,,,,,,,,,,,,,,,,,,,,,,,9,23,female,9,2022_May_06_1027,Partial repeat,2021.2.3,59.965051961991016,
3,8,0,1,3,2,2,2,0,1,0,1,0,0,0,0,56,56,56,0,0,0,0,,,,,,,1139.2929027993232,None,1140.0994669999927,None,1140.8634799998254,None,l,1,0.7589212004095316,1140.8634799998254,None,None,None,,,,,,,9,23,female,9,2022_May_06_1027,Partial repeat,2021.2.3,59.965051961991016,
3,8,0,1,3,2,2,2,0,1,0,1,0,0,0,0,56,56,56,1,0,1,0,,,,,,,,,1141.6331300996244,None,1142.4830478001386,None,s,1,0.7392760999500751,1142.4830478001386,None,None,None,,,,,,,9,23,female,9,2022_May_06_1027,Partial repeat,2021.2.3,59.965051961991016,
3,8,0,1,3,2,2,2,0,1,0,1,0,0,0,0,56,56,56,,,,,,,,,,,,,,,,,,,,,,,,,,,,,,9,23,female,9,2022_May_06_1027,Partial repeat,2021.2.3,59.965051961991016,
1,4,0,1,3,2,2,2,1,0,0,1,0,0,0,0,57,57,57,0,0,0,0,,,,,,,1143.2401029989123,None,1144.4913451001048,None,1145.505961900577,None,s,1,0.7003498002886772,1145.505961900577,None,None,None,,,,,,,9,23,female,9,2022_May_06_1027,Partial repeat,2021.2.3,59.965051961991016,
1,4,0,1,3,2,2,2,1,0,0,1,0,0,0,0,57,57,57,1,0,1,0,,,,,,,,,1146.2313739992678,None,1147.1592014003545,None,l,1,0.5751488003879786,1147.1592014003545,None,None,None,,,,,,,9,23,female,9,2022_May_06_1027,Partial repeat,2021.2.3,59.965051961991016,
1,4,0,1,3,2,2,2,1,0,0,1,0,0,0,0,57,57,57,,,,,,,,,,,,,,,,,,,,,,,,,,,,,,9,23,female,9,2022_May_06_1027,Partial repeat,2021.2.3,59.965051961991016,
7,7,0,1,3,3,1,2,1,0,1,0,0,0,0,0,58,58,58,0,0,0,0,,,,,,,1147.758924299851,None,1148.6995138991624,None,1149.5300473999232,None,s,1,0.7003173995763063,1149.5300473999232,None,None,None,,,,,,,9,23,female,9,2022_May_06_1027,Partial repeat,2021.2.3,59.965051961991016,
7,7,0,1,3,3,1,2,1,0,1,0,0,0,0,0,58,58,58,1,0,1,0,,,,,,,,,1150.238476999104,None,1151.0330110993236,None,l,1,0.5573101006448269,1151.0330110993236,None,None,None,,,,,,,9,23,female,9,2022_May_06_1027,Partial repeat,2021.2.3,59.965051961991016,
7,7,0,1,3,3,1,2,1,0,1,0,0,0,0,0,58,58,58,,,,,,,,,,,,,,,,,,,,,,,,,,,,,,9,23,female,9,2022_May_06_1027,Partial repeat,2021.2.3,59.965051961991016,
8,8,0,1,3,3,1,1,1,1,1,1,1,0,0,0,59,59,59,0,0,0,0,,,,,,,1151.6091703996062,None,1152.3900680989027,None,1153.3386869002134,None,s,1,0.5957149006426334,1153.3386869002134,None,None,None,,,,,,,9,23,female,9,2022_May_06_1027,Partial repeat,2021.2.3,59.965051961991016,
8,8,0,1,3,3,1,1,1,1,1,1,1,0,0,0,59,59,59,1,0,1,0,,,,,,,,,1153.9447341989726,None,1154.7737185005099,None,s,1,0.5926733985543251,1154.7737185005099,None,None,None,,,,,,,9,23,female,9,2022_May_06_1027,Partial repeat,2021.2.3,59.965051961991016,
8,8,0,1,3,3,1,1,1,1,1,1,1,0,0,0,59,59,59,,,,,,,,,,,,,,,,,,,,,,,,,,,,,,9,23,female,9,2022_May_06_1027,Partial repeat,2021.2.3,59.965051961991016,
5,1,0,1,3,3,1,1,0,1,1,1,0,0,0,0,60,60,60,0,0,0,0,,,,,,,1155.3782701995224,None,1156.1140000987798,None,1157.128288699314,None,l,1,0.5501839984208345,1157.128288699314,None,None,None,,,,,,,9,23,female,9,2022_May_06_1027,Partial repeat,2021.2.3,59.965051961991016,
5,1,0,1,3,3,1,1,0,1,1,1,0,0,0,0,60,60,60,1,0,1,0,,,,,,,,,1157.6884674988687,None,1158.581291899085,None,s,1,0.6570717990398407,1158.581291899085,None,None,None,,,,,,,9,23,female,9,2022_May_06_1027,Partial repeat,2021.2.3,59.965051961991016,
5,1,0,1,3,3,1,1,0,1,1,1,0,0,0,0,60,60,60,,,,,,,,,,,,,,,,,,,,,,,,,,,,,,9,23,female,9,2022_May_06_1027,Partial repeat,2021.2.3,59.965051961991016,
4,6,0,1,3,2,1,1,0,0,0,1,1,0,0,0,61,61,61,0,0,0,0,,,,,,,1159.25266369991,None,1159.9714933000505,None,1160.7351497989148,None,l,1,0.5752821005880833,1160.7351497989148,None,None,None,,,,,,,9,23,female,9,2022_May_06_1027,Partial repeat,2021.2.3,59.965051961991016,
4,6,0,1,3,2,1,1,0,0,0,1,1,0,0,0,61,61,61,1,0,1,0,,,,,,,,,1161.3195826001465,None,1162.1046615000814,None,l,1,0.7576545011252165,1162.1046615000814,None,None,None,,,,,,,9,23,female,9,2022_May_06_1027,Partial repeat,2021.2.3,59.965051961991016,
4,6,0,1,3,2,1,1,0,0,0,1,1,0,0,0,61,61,61,,,,,,,,,,,,,,,,,,,,,,,,,,,,,,9,23,female,9,2022_May_06_1027,Partial repeat,2021.2.3,59.965051961991016,
2,6,0,1,2,3,2,1,1,0,0,0,0,0,0,0,62,62,62,0,0,0,0,,,,,,,1162.8789881002158,None,1164.1294697988778,None,1164.9944786000997,None,s,1,1.0998383983969688,1164.9944786000997,None,None,None,,,,,,,9,23,female,9,2022_May_06_1027,Partial repeat,2021.2.3,59.965051961991016,
2,6,0,1,2,3,2,1,1,0,0,0,0,0,0,0,62,62,62,1,0,1,0,,,,,,,,,1166.1183639988303,None,1167.0485043004155,None,l,1,0.533798098564148,1167.0485043004155,None,None,None,,,,,,,9,23,female,9,2022_May_06_1027,Partial repeat,2021.2.3,59.965051961991016,
2,6,0,1,2,3,2,1,1,0,0,0,0,0,0,0,62,62,62,,,,,,,,,,,,,,,,,,,,,,,,,,,,,,9,23,female,9,2022_May_06_1027,Partial repeat,2021.2.3,59.965051961991016,
4,2,0,1,3,2,2,1,0,0,0,0,1,0,0,0,63,63,63,0,0,0,0,,,,,,,1167.612333599478,None,1168.4880534000695,None,1169.43549240008,None,l,1,0.8829712010920048,1169.43549240008,None,None,None,,,,,,,9,23,female,9,2022_May_06_1027,Partial repeat,2021.2.3,59.965051961991016,
4,2,0,1,3,2,2,1,0,0,0,0,1,0,0,0,63,63,63,1,0,1,0,,,,,,,,,1170.3277789987624,None,1171.2058915998787,None,l,1,0.64041299931705,1171.2058915998787,None,None,None,,,,,,,9,23,female,9,2022_May_06_1027,Partial repeat,2021.2.3,59.965051961991016,
4,2,0,1,3,2,2,1,0,0,0,0,1,0,0,0,63,63,63,,,,,,,,,,,,,,,,,,,,,,,,,,,,,,9,23,female,9,2022_May_06_1027,Partial repeat,2021.2.3,59.965051961991016,
8,8,0,1,2,3,1,2,0,1,0,0,0,1,0,0,64,64,64,0,0,0,0,,,,,,,1189.3344218004495,None,1190.4140539988875,None,1191.294659499079,None,l,1,1.3916464000940323,1191.294659499079,None,None,None,,,,,,,9,23,female,9,2022_May_06_1027,Partial repeat,2021.2.3,59.965051961991016,
8,8,0,1,2,3,1,2,0,1,0,0,0,1,0,0,64,64,64,1,0,1,0,,,,,,,,,1192.6946256998926,None,1193.4323309995234,None,s,1,0.9981477987021208,1193.4323309995234,None,None,None,,,,,,,9,23,female,9,2022_May_06_1027,Partial repeat,2021.2.3,59.965051961991016,
8,8,0,1,2,3,1,2,0,1,0,0,0,1,0,0,64,64,64,,,,,,,,,,,,,,,,,,,,,,,,,,,,,,9,23,female,9,2022_May_06_1027,Partial repeat,2021.2.3,59.965051961991016,
8,8,0,1,3,2,2,1,1,1,0,0,1,1,0,0,65,65,65,0,0,0,0,,,,,,,1194.4596656989306,None,1195.4237361997366,None,1196.3213279992342,None,s,1,0.6929789986461401,1196.3213279992342,None,None,None,,,,,,,9,23,female,9,2022_May_06_1027,Partial repeat,2021.2.3,59.965051961991016,
8,8,0,1,3,2,2,1,1,1,0,0,1,1,0,0,65,65,65,1,0,1,0,,,,,,,,,1197.0271568987519,None,1198.0080578997731,None,s,1,0.614376600831747,1198.0080578997731,None,None,None,,,,,,,9,23,female,9,2022_May_06_1027,Partial repeat,2021.2.3,59.965051961991016,
8,8,0,1,3,2,2,1,1,1,0,0,1,1,0,0,65,65,65,,,,,,,,,,,,,,,,,,,,,,,,,,,,,,9,23,female,9,2022_May_06_1027,Partial repeat,2021.2.3,59.965051961991016,
8,8,0,1,3,2,1,2,1,1,0,0,1,1,0,0,66,66,66,0,0,0,0,,,,,,,1198.6359045989811,None,1199.1644077003002,None,1200.0787351988256,None,s,1,0.5275832992047071,1200.0787351988256,None,None,None,,,,,,,9,23,female,9,2022_May_06_1027,Partial repeat,2021.2.3,59.965051961991016,
8,8,0,1,3,2,1,2,1,1,0,0,1,1,0,0,66,66,66,1,0,1,0,,,,,,,,,1200.6178274005651,None,1201.4984025992453,None,s,1,0.6919561997056007,1201.4984025992453,None,None,None,,,,,,,9,23,female,9,2022_May_06_1027,Partial repeat,2021.2.3,59.965051961991016,
8,8,0,1,3,2,1,2,1,1,0,0,1,1,0,0,66,66,66,,,,,,,,,,,,,,,,,,,,,,,,,,,,,,9,23,female,9,2022_May_06_1027,Partial repeat,2021.2.3,59.965051961991016,
8,8,0,1,2,2,2,2,0,1,1,1,0,1,0,0,67,67,67,0,0,0,0,,,,,,,1202.2098942995071,None,1202.704553399235,None,1203.5355471000075,None,l,1,0.5748190991580486,1203.5355471000075,None,None,None,,,,,,,9,23,female,9,2022_May_06_1027,Partial repeat,2021.2.3,59.965051961991016,
8,8,0,1,2,2,2,2,0,1,1,1,0,1,0,0,67,67,67,1,0,1,0,,,,,,,,,1204.1193353999406,None,1205.0715487990528,None,s,1,0.478829400613904,1205.0715487990528,None,None,None,,,,,,,9,23,female,9,2022_May_06_1027,Partial repeat,2021.2.3,59.965051961991016,
8,8,0,1,2,2,2,2,0,1,1,1,0,1,0,0,67,67,67,,,,,,,,,,,,,,,,,,,,,,,,,,,,,,9,23,female,9,2022_May_06_1027,Partial repeat,2021.2.3,59.965051961991016,
8,8,0,1,2,2,1,1,0,1,1,1,0,1,0,0,68,68,68,0,0,0,0,,,,,,,1205.5732895005494,None,1206.0611832998693,None,1206.8083976004273,None,s,0,0.5179912000894547,1206.8083976004273,None,1207.3363428991288,None,,,,,,,9,23,female,9,2022_May_06_1027,Partial repeat,2021.2.3,59.965051961991016,
8,8,0,1,2,2,1,1,0,1,1,1,0,1,0,0,68,68,68,1,0,1,0,,,,,,,,,1207.8479161001742,None,1208.6954787001014,None,s,1,0.5668409001082182,1208.6954787001014,None,None,None,,,,,,,9,23,female,9,2022_May_06_1027,Partial repeat,2021.2.3,59.965051961991016,
8,8,0,1,2,2,1,1,0,1,1,1,0,1,0,0,68,68,68,,,,,,,,,,,,,,,,,,,,,,,,,,,,,,9,23,female,9,2022_May_06_1027,Partial repeat,2021.2.3,59.965051961991016,
8,8,0,1,2,3,1,2,0,0,0,0,1,1,0,0,69,69,69,0,0,0,0,,,,,,,1209.2816268987954,None,1209.8852866999805,None,1210.7664337996393,None,l,1,0.5598657988011837,1210.7664337996393,None,None,None,,,,,,,9,23,female,9,2022_May_06_1027,Partial repeat,2021.2.3,59.965051961991016,
8,8,0,1,2,3,1,2,0,0,0,0,1,1,0,0,69,69,69,1,0,1,0,,,,,,,,,1211.3491820003837,None,1212.252211900428,None,l,1,0.5941498000174761,1212.252211900428,None,None,None,,,,,,,9,23,female,9,2022_May_06_1027,Partial repeat,2021.2.3,59.965051961991016,
8,8,0,1,2,3,1,2,0,0,0,0,1,1,0,0,69,69,69,,,,,,,,,,,,,,,,,,,,,,,,,,,,,,9,23,female,9,2022_May_06_1027,Partial repeat,2021.2.3,59.965051961991016,
8,8,0,1,3,3,1,2,1,1,1,0,1,1,0,0,70,70,70,0,0,0,0,,,,,,,1212.857562199235,None,1213.3920993003994,None,1214.2229746989906,None,s,1,0.6794438995420933,1214.2229746989906,None,None,None,,,,,,,9,23,female,9,2022_May_06_1027,Partial repeat,2021.2.3,59.965051961991016,
8,8,0,1,3,3,1,2,1,1,1,0,1,1,0,0,70,70,70,1,0,1,0,,,,,,,,,1214.9305987991393,None,1215.6766008995473,None,s,1,0.6177038010209799,1215.6766008995473,None,None,None,,,,,,,9,23,female,9,2022_May_06_1027,Partial repeat,2021.2.3,59.965051961991016,
8,8,0,1,3,3,1,2,1,1,1,0,1,1,0,0,70,70,70,,,,,,,,,,,,,,,,,,,,,,,,,,,,,,9,23,female,9,2022_May_06_1027,Partial repeat,2021.2.3,59.965051961991016,
8,8,0,1,2,2,1,2,1,0,1,0,0,1,0,0,71,71,71,0,0,0,0,,,,,,,1216.3059742990881,None,1216.74864850007,None,1217.5125078000128,None,s,1,0.6458177994936705,1217.5125078000128,None,None,None,,,,,,,9,23,female,9,2022_May_06_1027,Partial repeat,2021.2.3,59.965051961991016,
8,8,0,1,2,2,1,2,1,0,1,0,0,1,0,0,71,71,71,1,0,1,0,,,,,,,,,1218.1800250988454,None,1218.948512898758,None,l,1,0.6897801999002695,1218.948512898758,None,None,None,,,,,,,9,23,female,9,2022_May_06_1027,Partial repeat,2021.2.3,59.965051961991016,
8,8,0,1,2,2,1,2,1,0,1,0,0,1,0,0,71,71,71,,,,,,,,,,,,,,,,,,,,,,,,,,,,,,9,23,female,9,2022_May_06_1027,Partial repeat,2021.2.3,59.965051961991016,
8,8,0,1,3,2,1,1,1,0,0,1,0,1,0,0,72,72,72,0,0,0,0,,,,,,,1219.6629306003451,None,1220.3556519001722,None,1221.1528500001878,None,s,1,0.6534988004714251,1221.1528500001878,None,None,None,,,,,,,9,23,female,9,2022_May_06_1027,Partial repeat,2021.2.3,59.965051961991016,
8,8,0,1,3,2,1,1,1,0,0,1,0,1,0,0,72,72,72,1,0,1,0,,,,,,,,,1221.8353284988552,None,1222.6395318992436,None,l,1,0.5667920000851154,1222.6395318992436,None,None,None,,,,,,,9,23,female,9,2022_May_06_1027,Partial repeat,2021.2.3,59.965051961991016,
8,8,0,1,3,2,1,1,1,0,0,1,0,1,0,0,72,72,72,,,,,,,,,,,,,,,,,,,,,,,,,,,,,,9,23,female,9,2022_May_06_1027,Partial repeat,2021.2.3,59.965051961991016,
8,8,0,1,2,2,2,1,1,0,1,0,0,1,0,0,73,73,73,0,0,0,0,,,,,,,1223.2229254003614,None,1223.7622500993311,None,1224.5761839989573,None,s,1,0.7661932986229658,1224.5761839989573,None,None,None,,,,,,,9,23,female,9,2022_May_06_1027,Partial repeat,2021.2.3,59.965051961991016,
8,8,0,1,2,2,2,1,1,0,1,0,0,1,0,0,73,73,73,1,0,1,0,,,,,,,,,1225.3679098002613,None,1226.1126975994557,None,l,1,0.7736267987638712,1226.1126975994557,None,None,None,,,,,,,9,23,female,9,2022_May_06_1027,Partial repeat,2021.2.3,59.965051961991016,
8,8,0,1,2,2,2,1,1,0,1,0,0,1,0,0,73,73,73,,,,,,,,,,,,,,,,,,,,,,,,,,,,,,9,23,female,9,2022_May_06_1027,Partial repeat,2021.2.3,59.965051961991016,
8,8,0,1,2,2,2,2,1,0,1,1,0,1,0,0,74,74,74,0,0,0,0,,,,,,,1226.9149417988956,None,1227.3860154002905,None,1228.3337146993726,None,s,1,0.5766049008816481,1228.3337146993726,None,None,None,,,,,,,9,23,female,9,2022_May_06_1027,Partial repeat,2021.2.3,59.965051961991016,
8,8,0,1,2,2,2,2,1,0,1,1,0,1,0,0,74,74,74,1,0,1,0,,,,,,,,,1228.935865700245,None,1229.753345400095,None,l,1,0.6769551001489162,1229.753345400095,None,None,None,,,,,,,9,23,female,9,2022_May_06_1027,Partial repeat,2021.2.3,59.965051961991016,
8,8,0,1,2,2,2,2,1,0,1,1,0,1,0,0,74,74,74,,,,,,,,,,,,,,,,,,,,,,,,,,,,,,9,23,female,9,2022_May_06_1027,Partial repeat,2021.2.3,59.965051961991016,
8,8,0,1,3,3,1,1,1,1,1,1,1,1,0,0,75,75,75,0,0,0,0,,,,,,,1230.449934700504,None,1231.1433038003743,None,1232.0579767003655,None,s,1,0.6043417006731033,1232.0579767003655,None,None,None,,,,,,,9,23,female,9,2022_May_06_1027,Partial repeat,2021.2.3,59.965051961991016,
8,8,0,1,3,3,1,1,1,1,1,1,1,1,0,0,75,75,75,1,0,1,0,,,,,,,,,1232.6782069988549,None,1233.493649398908,None,s,1,0.6966639999300241,1233.493649398908,None,None,None,,,,,,,9,23,female,9,2022_May_06_1027,Partial repeat,2021.2.3,59.965051961991016,
8,8,0,1,3,3,1,1,1,1,1,1,1,1,0,0,75,75,75,,,,,,,,,,,,,,,,,,,,,,,,,,,,,,9,23,female,9,2022_May_06_1027,Partial repeat,2021.2.3,59.965051961991016,
8,8,0,1,2,3,1,1,0,0,0,1,1,1,0,0,76,76,76,0,0,0,0,,,,,,,1234.2058534994721,None,1235.1176318004727,None,1236.1163321994245,None,l,1,0.5939863994717598,1236.1163321994245,None,None,None,,,,,,,9,23,female,9,2022_May_06_1027,Partial repeat,2021.2.3,59.965051961991016,
8,8,0,1,2,3,1,1,0,0,0,1,1,1,0,0,76,76,76,1,0,1,0,,,,,,,,,1236.7304979991168,None,1237.4685040991753,None,l,1,0.7777862995862961,1237.4685040991753,None,None,None,,,,,,,9,23,female,9,2022_May_06_1027,Partial repeat,2021.2.3,59.965051961991016,
8,8,0,1,2,3,1,1,0,0,0,1,1,1,0,0,76,76,76,,,,,,,,,,,,,,,,,,,,,,,,,,,,,,9,23,female,9,2022_May_06_1027,Partial repeat,2021.2.3,59.965051961991016,
8,8,0,1,3,3,1,1,0,1,1,1,0,1,0,0,77,77,77,0,0,0,0,,,,,,,1238.2687867004424,None,1238.7915289998055,None,1239.7223716005683,None,s,0,0.5799359008669853,1239.7223716005683,None,1240.3214065991342,None,,,,,,,9,23,female,9,2022_May_06_1027,Partial repeat,2021.2.3,59.965051961991016,
8,8,0,1,3,3,1,1,0,1,1,1,0,1,0,0,77,77,77,1,0,1,0,,,,,,,,,1240.8287524990737,None,1241.7763394005597,None,s,1,0.7259618006646633,1241.7763394005597,None,None,None,,,,,,,9,23,female,9,2022_May_06_1027,Partial repeat,2021.2.3,59.965051961991016,
8,8,0,1,3,3,1,1,0,1,1,1,0,1,0,0,77,77,77,,,,,,,,,,,,,,,,,,,,,,,,,,,,,,9,23,female,9,2022_May_06_1027,Partial repeat,2021.2.3,59.965051961991016,
8,8,0,1,2,3,2,1,1,0,0,0,0,1,0,0,78,78,78,0,0,0,0,,,,,,,1242.5329078994691,None,1242.9329107999802,None,1243.6803098004311,None,l,0,0.9259792007505894,1243.6803098004311,None,1244.6257237996906,None,,,,,,,9,23,female,9,2022_May_06_1027,Partial repeat,2021.2.3,59.965051961991016,
8,8,0,1,2,3,2,1,1,0,0,0,0,1,0,0,78,78,78,1,0,1,0,,,,,,,,,1245.1371836997569,None,1246.1183008998632,None,l,1,0.5840249005705118,1246.1183008998632,None,None,None,,,,,,,9,23,female,9,2022_May_06_1027,Partial repeat,2021.2.3,59.965051961991016,
8,8,0,1,2,3,2,1,1,0,0,0,0,1,0,0,78,78,78,,,,,,,,,,,,,,,,,,,,,,,,,,,,,,9,23,female,9,2022_May_06_1027,Partial repeat,2021.2.3,59.965051961991016,
8,8,0,1,3,3,2,1,1,1,1,0,1,1,0,0,79,79,79,0,0,0,0,,,,,,,1246.7229238990694,None,1247.1578107997775,None,1248.088815798983,None,s,1,0.6534978002309799,1248.088815798983,None,None,None,,,,,,,9,23,female,9,2022_May_06_1027,Partial repeat,2021.2.3,59.965051961991016,
8,8,0,1,3,3,2,1,1,1,1,0,1,1,0,0,79,79,79,1,0,1,0,,,,,,,,,1248.7566311992705,None,1249.5920746996999,None,s,1,0.5342868994921446,1249.5920746996999,None,None,None,,,,,,,9,23,female,9,2022_May_06_1027,Partial repeat,2021.2.3,59.965051961991016,
8,8,0,1,3,3,2,1,1,1,1,0,1,1,0,0,79,79,79,,,,,,,,,,,,,,,,,,,,,,,,,,,,,,9,23,female,9,2022_May_06_1027,Partial repeat,2021.2.3,59.965051961991016,
8,8,0,1,3,3,2,2,1,1,1,1,1,1,0,0,80,80,80,0,0,0,0,,,,,,,1250.1576489005238,None,1250.6812992002815,None,1251.6291439998895,None,s,1,0.8331675007939339,1251.6291439998895,None,None,None,,,,,,,9,23,female,9,2022_May_06_1027,Partial repeat,2021.2.3,59.965051961991016,
8,8,0,1,3,3,2,2,1,1,1,1,1,1,0,0,80,80,80,1,0,1,0,,,,,,,,,1252.4857877995819,None,1253.3825463000685,None,s,1,0.5997845008969307,1253.3825463000685,None,None,None,,,,,,,9,23,female,9,2022_May_06_1027,Partial repeat,2021.2.3,59.965051961991016,
8,8,0,1,3,3,2,2,1,1,1,1,1,1,0,0,80,80,80,,,,,,,,,,,,,,,,,,,,,,,,,,,,,,9,23,female,9,2022_May_06_1027,Partial repeat,2021.2.3,59.965051961991016,
8,8,0,1,2,2,2,1,1,1,1,0,1,1,0,0,81,81,81,0,0,0,0,,,,,,,1254.009258799255,None,1254.4219473991543,None,1255.2026057001203,None,s,1,1.1477894000709057,1255.2026057001203,None,None,None,,,,,,,9,23,female,9,2022_May_06_1027,Partial repeat,2021.2.3,59.965051961991016,
8,8,0,1,2,2,2,1,1,1,1,0,1,1,0,0,81,81,81,1,0,1,0,,,,,,,,,1256.3609903994948,None,1257.2564893998206,None,s,1,0.6139441002160311,1257.2564893998206,None,None,None,,,,,,,9,23,female,9,2022_May_06_1027,Partial repeat,2021.2.3,59.965051961991016,
8,8,0,1,2,2,2,1,1,1,1,0,1,1,0,0,81,81,81,,,,,,,,,,,,,,,,,,,,,,,,,,,,,,9,23,female,9,2022_May_06_1027,Partial repeat,2021.2.3,59.965051961991016,
8,8,0,1,3,3,2,1,0,0,1,0,1,1,0,0,82,82,82,0,0,0,0,,,,,,,1257.883315699175,None,1258.312822299078,None,1259.0432690996677,None,l,1,0.6110425982624292,1259.0432690996677,None,None,None,,,,,,,9,23,female,9,2022_May_06_1027,Partial repeat,2021.2.3,59.965051961991016,
8,8,0,1,3,3,2,1,0,0,1,0,1,1,0,0,82,82,82,1,0,1,0,,,,,,,,,1259.670372100547,None,1260.3959654998034,None,l,1,0.5784058999270201,1260.3959654998034,None,None,None,,,,,,,9,23,female,9,2022_May_06_1027,Partial repeat,2021.2.3,59.965051961991016,
8,8,0,1,3,3,2,1,0,0,1,0,1,1,0,0,82,82,82,,,,,,,,,,,,,,,,,,,,,,,,,,,,,,9,23,female,9,2022_May_06_1027,Partial repeat,2021.2.3,59.965051961991016,
8,8,0,1,2,2,1,1,0,0,1,1,1,1,0,0,83,83,83,0,0,0,0,,,,,,,1261.0047720000148,None,1261.719461299479,None,1262.5338240005076,None,l,1,0.6885058004409075,1262.5338240005076,None,None,None,,,,,,,9,23,female,9,2022_May_06_1027,Partial repeat,2021.2.3,59.965051961991016,
8,8,0,1,2,2,1,1,0,0,1,1,1,1,0,0,83,83,83,1,0,1,0,,,,,,,,,1263.2498144991696,None,1264.2700968999416,None,l,1,0.5042319986969233,1264.2700968999416,None,None,None,,,,,,,9,23,female,9,2022_May_06_1027,Partial repeat,2021.2.3,59.965051961991016,
8,8,0,1,2,2,1,1,0,0,1,1,1,1,0,0,83,83,83,,,,,,,,,,,,,,,,,,,,,,,,,,,,,,9,23,female,9,2022_May_06_1027,Partial repeat,2021.2.3,59.965051961991016,
8,8,0,1,2,2,2,1,0,0,1,0,1,1,0,0,84,84,84,0,0,0,0,,,,,,,1264.7953719999641,None,1265.4099564999342,None,1266.4077070001513,None,l,1,0.45458330027759075,1266.4077070001513,None,None,None,,,,,,,9,23,female,9,2022_May_06_1027,Partial repeat,2021.2.3,59.965051961991016,
8,8,0,1,2,2,2,1,0,0,1,0,1,1,0,0,84,84,84,1,0,1,0,,,,,,,,,1266.8822751995176,None,1267.710128199309,None,l,1,0.42430150136351585,1267.710128199309,None,None,None,,,,,,,9,23,female,9,2022_May_06_1027,Partial repeat,2021.2.3,59.965051961991016,
8,8,0,1,2,2,2,1,0,0,1,0,1,1,0,0,84,84,84,,,,,,,,,,,,,,,,,,,,,,,,,,,,,,9,23,female,9,2022_May_06_1027,Partial repeat,2021.2.3,59.965051961991016,
8,8,0,1,2,3,1,2,1,0,0,0,0,1,0,0,85,85,85,0,0,0,0,,,,,,,1268.1475138999522,None,1268.6996701993048,None,1269.6310990992934,None,l,0,0.5672233998775482,1269.6310990992934,None,1270.2117832992226,None,,,,,,,9,23,female,9,2022_May_06_1027,Partial repeat,2021.2.3,59.965051961991016,
8,8,0,1,2,3,1,2,1,0,0,0,0,1,0,0,85,85,85,1,0,1,0,,,,,,,,,1270.7203513998538,None,1271.6849862001836,None,l,1,0.569318100810051,1271.6849862001836,None,None,None,,,,,,,9,23,female,9,2022_May_06_1027,Partial repeat,2021.2.3,59.965051961991016,
8,8,0,1,2,3,1,2,1,0,0,0,0,1,0,0,85,85,85,,,,,,,,,,,,,,,,,,,,,,,,,,,,,,9,23,female,9,2022_May_06_1027,Partial repeat,2021.2.3,59.965051961991016,
8,8,0,1,2,2,1,2,0,0,1,0,1,1,0,0,86,86,86,0,0,0,0,,,,,,,1272.2758836001158,None,1272.7074843998998,None,1273.5049763992429,None,l,1,0.5973441991955042,1273.5049763992429,None,None,None,,,,,,,9,23,female,9,2022_May_06_1027,Partial repeat,2021.2.3,59.965051961991016,
8,8,0,1,2,2,1,2,0,0,1,0,1,1,0,0,86,86,86,1,0,1,0,,,,,,,,,1274.1238745003939,None,1274.9742712005973,None,l,1,0.44005170091986656,1274.9742712005973,None,None,None,,,,,,,9,23,female,9,2022_May_06_1027,Partial repeat,2021.2.3,59.965051961991016,
8,8,0,1,2,2,1,2,0,0,1,0,1,1,0,0,86,86,86,,,,,,,,,,,,,,,,,,,,,,,,,,,,,,9,23,female,9,2022_May_06_1027,Partial repeat,2021.2.3,59.965051961991016,
8,8,0,1,2,3,2,1,1,1,0,0,1,1,0,0,87,87,87,0,0,0,0,,,,,,,1275.4316269997507,None,1275.813564300537,None,1276.7443663999438,None,l,0,0.9339998997747898,1276.7443663999438,None,1277.7064151000232,None,,,,,,,9,23,female,9,2022_May_06_1027,Partial repeat,2021.2.3,59.965051961991016,
8,8,0,1,2,3,2,1,1,1,0,0,1,1,0,0,87,87,87,1,0,1,0,,,,,,,,,1278.2181259989738,None,1279.149541100487,None,s,1,0.6967767998576164,1279.149541100487,None,None,None,,,,,,,9,23,female,9,2022_May_06_1027,Partial repeat,2021.2.3,59.965051961991016,
8,8,0,1,2,3,2,1,1,1,0,0,1,1,0,0,87,87,87,,,,,,,,,,,,,,,,,,,,,,,,,,,,,,9,23,female,9,2022_May_06_1027,Partial repeat,2021.2.3,59.965051961991016,
8,8,0,1,2,3,1,1,1,0,0,1,0,1,0,0,88,88,88,0,0,0,0,,,,,,,1279.8630931992084,None,1280.2889187000692,None,1281.1532421000302,None,s,1,0.7491376996040344,1281.1532421000302,None,None,None,,,,,,,9,23,female,9,2022_May_06_1027,Partial repeat,2021.2.3,59.965051961991016,
8,8,0,1,2,3,1,1,1,0,0,1,0,1,0,0,88,88,88,1,0,1,0,,,,,,,,,1281.9272048994899,None,1282.8235235996544,None,l,1,0.4948003999888897,1282.8235235996544,None,None,None,,,,,,,9,23,female,9,2022_May_06_1027,Partial repeat,2021.2.3,59.965051961991016,
8,8,0,1,2,3,1,1,1,0,0,1,0,1,0,0,88,88,88,,,,,,,,,,,,,,,,,,,,,,,,,,,,,,9,23,female,9,2022_May_06_1027,Partial repeat,2021.2.3,59.965051961991016,
8,8,0,1,3,3,2,1,0,1,1,0,0,1,0,0,89,89,89,0,0,0,0,,,,,,,1283.3452244997025,None,1283.7289767991751,None,1284.593259099871,None,l,1,0.7410695012658834,1284.593259099871,None,None,None,,,,,,,9,23,female,9,2022_May_06_1027,Partial repeat,2021.2.3,59.965051961991016,
8,8,0,1,3,3,2,1,0,1,1,0,0,1,0,0,89,89,89,1,0,1,0,,,,,,,,,1285.36343799904,None,1286.1124911997467,None,s,1,0.6698275003582239,1286.1124911997467,None,None,None,,,,,,,9,23,female,9,2022_May_06_1027,Partial repeat,2021.2.3,59.965051961991016,
8,8,0,1,3,3,2,1,0,1,1,0,0,1,0,0,89,89,89,,,,,,,,,,,,,,,,,,,,,,,,,,,,,,9,23,female,9,2022_May_06_1027,Partial repeat,2021.2.3,59.965051961991016,
8,8,0,1,2,3,1,2,1,1,0,0,1,1,0,0,90,90,90,0,0,0,0,,,,,,,1286.806363100186,None,1287.202362800017,None,1288.1175065003335,None,s,1,0.6568168997764587,1288.1175065003335,None,None,None,,,,,,,9,23,female,9,2022_May_06_1027,Partial repeat,2021.2.3,59.965051961991016,
8,8,0,1,2,3,1,2,1,1,0,0,1,1,0,0,90,90,90,1,0,1,0,,,,,,,,,1288.7998951002955,None,1289.8031526990235,None,s,1,0.5552338995039463,1289.8031526990235,None,None,None,,,,,,,9,23,female,9,2022_May_06_1027,Partial repeat,2021.2.3,59.965051961991016,
8,8,0,1,2,3,1,2,1,1,0,0,1,1,0,0,90,90,90,,,,,,,,,,,,,,,,,,,,,,,,,,,,,,9,23,female,9,2022_May_06_1027,Partial repeat,2021.2.3,59.965051961991016,
8,8,0,1,2,3,2,1,0,1,0,0,0,1,0,0,91,91,91,0,0,0,0,,,,,,,1290.3891649991274,None,1290.742615699768,None,1291.7402679994702,None,l,1,0.5301271993666887,1291.7402679994702,None,None,None,,,,,,,9,23,female,9,2022_May_06_1027,Partial repeat,2021.2.3,59.965051961991016,
8,8,0,1,2,3,2,1,0,1,0,0,0,1,0,0,91,91,91,1,0,1,0,,,,,,,,,1292.2797854989767,None,1293.0428976994008,None,s,1,0.563485000282526,1293.0428976994008,None,None,None,,,,,,,9,23,female,9,2022_May_06_1027,Partial repeat,2021.2.3,59.965051961991016,
8,8,0,1,2,3,2,1,0,1,0,0,0,1,0,0,91,91,91,,,,,,,,,,,,,,,,,,,,,,,,,,,,,,9,23,female,9,2022_May_06_1027,Partial repeat,2021.2.3,59.965051961991016,
8,8,0,1,3,2,1,1,0,0,0,1,1,1,0,0,92,92,92,0,0,0,0,,,,,,,1293.631017299369,None,1294.082509798929,None,1295.0143532995135,None,l,1,0.5520045012235641,1295.0143532995135,None,None,None,,,,,,,9,23,female,9,2022_May_06_1027,Partial repeat,2021.2.3,59.965051961991016,
8,8,0,1,3,2,1,1,0,0,0,1,1,1,0,0,92,92,92,1,0,1,0,,,,,,,,,1295.5747616998851,None,1296.5497404988855,None,l,1,0.5126300007104874,1296.5497404988855,None,None,None,,,,,,,9,23,female,9,2022_May_06_1027,Partial repeat,2021.2.3,59.965051961991016,
8,8,0,1,3,2,1,1,0,0,0,1,1,1,0,0,92,92,92,,,,,,,,,,,,,,,,,,,,,,,,,,,,,,9,23,female,9,2022_May_06_1027,Partial repeat,2021.2.3,59.965051961991016,
8,8,0,1,3,3,1,2,1,0,1,0,0,1,0,0,93,93,93,0,0,0,0,,,,,,,1297.0737197995186,None,1297.5057257004082,None,1298.4200406000018,None,s,1,0.6582623012363911,1298.4200406000018,None,None,None,,,,,,,9,23,female,9,2022_May_06_1027,Partial repeat,2021.2.3,59.965051961991016,
8,8,0,1,3,3,1,2,1,0,1,0,0,1,0,0,93,93,93,1,0,1,0,,,,,,,,,1299.1059205997735,None,1300.0734224002808,None,l,1,0.4769005998969078,1300.0734224002808,None,None,None,,,,,,,9,23,female,9,2022_May_06_1027,Partial repeat,2021.2.3,59.965051961991016,
8,8,0,1,3,3,1,2,1,0,1,0,0,1,0,0,93,93,93,,,,,,,,,,,,,,,,,,,,,,,,,,,,,,9,23,female,9,2022_May_06_1027,Partial repeat,2021.2.3,59.965051961991016,
8,8,0,1,3,3,2,1,1,0,1,0,0,1,0,0,94,94,94,0,0,0,0,,,,,,,1300.5705740004778,None,1300.9290871005505,None,1301.8097495995462,None,s,1,0.596586499363184,1301.8097495995462,None,None,None,,,,,,,9,23,female,9,2022_May_06_1027,Partial repeat,2021.2.3,59.965051961991016,
8,8,0,1,3,3,2,1,1,0,1,0,0,1,0,0,94,94,94,1,0,1,0,,,,,,,,,1302.434083899483,None,1303.1960016004741,None,l,1,0.6103229988366365,1303.1960016004741,None,None,None,,,,,,,9,23,female,9,2022_May_06_1027,Partial repeat,2021.2.3,59.965051961991016,
8,8,0,1,3,3,2,1,1,0,1,0,0,1,0,0,94,94,94,,,,,,,,,,,,,,,,,,,,,,,,,,,,,,9,23,female,9,2022_May_06_1027,Partial repeat,2021.2.3,59.965051961991016,
8,8,0,1,3,3,2,2,0,1,1,1,0,1,0,0,95,95,95,0,0,0,0,,,,,,,1303.8295272998512,None,1304.2188825998455,None,1305.2175412997603,None,l,1,0.7487701997160912,1305.2175412997603,None,None,None,,,,,,,9,23,female,9,2022_May_06_1027,Partial repeat,2021.2.3,59.965051961991016,
8,8,0,1,3,3,2,2,0,1,1,1,0,1,0,0,95,95,95,1,0,1,0,,,,,,,,,1305.9879400003701,None,1306.8696042001247,None,s,1,0.38472310081124306,1306.8696042001247,None,None,None,,,,,,,9,23,female,9,2022_May_06_1027,Partial repeat,2021.2.3,59.965051961991016,
8,8,0,1,3,3,2,2,0,1,1,1,0,1,0,0,95,95,95,,,,,,,,,,,,,,,,,,,,,,,,,,,,,,9,23,female,9,2022_May_06_1027,Partial repeat,2021.2.3,59.965051961991016,
8,8,0,1,3,3,1,1,0,0,1,1,1,1,0,0,96,96,96,0,0,0,0,,,,,,,1307.2818481996655,None,1307.6922939997166,None,1308.673544799909,None,l,1,0.7327759992331266,1308.673544799909,None,None,None,,,,,,,9,23,female,9,2022_May_06_1027,Partial repeat,2021.2.3,59.965051961991016,
8,8,0,1,3,3,1,1,0,0,1,1,1,1,0,0,96,96,96,1,0,1,0,,,,,,,,,1309.4238053001463,None,1310.209466200322,None,l,1,0.4768569003790617,1310.209466200322,None,None,None,,,,,,,9,23,female,9,2022_May_06_1027,Partial repeat,2021.2.3,59.965051961991016,
8,8,0,1,3,3,1,1,0,0,1,1,1,1,0,0,96,96,96,,,,,,,,,,,,,,,,,,,,,,,,,,,,,,9,23,female,9,2022_May_06_1027,Partial repeat,2021.2.3,59.965051961991016,
8,8,0,1,3,2,2,1,0,0,0,0,1,1,0,0,97,97,97,0,0,0,0,,,,,,,1310.7113143987954,None,1311.3326866999269,None,1312.0967462994158,None,l,1,0.549618698656559,1312.0967462994158,None,None,None,,,,,,,9,23,female,9,2022_May_06_1027,Partial repeat,2021.2.3,59.965051961991016,
8,8,0,1,3,2,2,1,0,0,0,0,1,1,0,0,97,97,97,1,0,1,0,,,,,,,,,1312.6546058990061,None,1313.3825777005404,None,l,1,0.6957470010966063,1313.3825777005404,None,None,None,,,,,,,9,23,female,9,2022_May_06_1027,Partial repeat,2021.2.3,59.965051961991016,
8,8,0,1,3,2,2,1,0,0,0,0,1,1,0,0,97,97,97,,,,,,,,,,,,,,,,,,,,,,,,,,,,,,9,23,female,9,2022_May_06_1027,Partial repeat,2021.2.3,59.965051961991016,
8,8,0,1,3,2,1,1,0,1,0,1,0,1,0,0,98,98,98,0,0,0,0,,,,,,,1314.0970607995987,None,1314.472131099552,None,1315.4707983992994,None,l,1,0.4795252997428179,1315.4707983992994,None,None,None,,,,,,,9,23,female,9,2022_May_06_1027,Partial repeat,2021.2.3,59.965051961991016,
8,8,0,1,3,2,1,1,0,1,0,1,0,1,0,0,98,98,98,1,0,1,0,,,,,,,,,1315.9711313005537,None,1316.8057230003178,None,s,1,0.39257119968533516,1316.8057230003178,None,None,None,,,,,,,9,23,female,9,2022_May_06_1027,Partial repeat,2021.2.3,59.965051961991016,
8,8,0,1,3,2,1,1,0,1,0,1,0,1,0,0,98,98,98,,,,,,,,,,,,,,,,,,,,,,,,,,,,,,9,23,female,9,2022_May_06_1027,Partial repeat,2021.2.3,59.965051961991016,
8,8,0,1,3,3,1,2,0,1,1,0,0,1,0,0,99,99,99,0,0,0,0,,,,,,,1317.2219628989697,None,1317.544684799388,None,1318.5592116005719,None,l,1,0.8071315996348858,1318.5592116005719,None,None,None,,,,,,,9,23,female,9,2022_May_06_1027,Partial repeat,2021.2.3,59.965051961991016,
8,8,0,1,3,3,1,2,0,1,1,0,0,1,0,0,99,99,99,1,0,1,0,,,,,,,,,1319.393797500059,None,1320.3124286998063,None,l,0,0.49390679970383644,1320.3124286998063,None,1320.832947799936,None,,,,,,,9,23,female,9,2022_May_06_1027,Partial repeat,2021.2.3,59.965051961991016,
8,8,0,1,3,3,1,2,0,1,1,0,0,1,0,0,99,99,99,,,,,,,,,,,,,,,,,,,,,,,,,,,,,,9,23,female,9,2022_May_06_1027,Partial repeat,2021.2.3,59.965051961991016,
8,8,0,1,3,2,2,2,1,1,0,1,1,1,0,0,100,100,100,0,0,0,0,,,,,,,1321.3355059996247,None,1321.6861441992223,None,1322.4504137989134,None,s,1,0.7479165997356176,1322.4504137989134,None,None,None,,,,,,,9,23,female,9,2022_May_06_1027,Partial repeat,2021.2.3,59.965051961991016,
8,8,0,1,3,2,2,2,1,1,0,1,1,1,0,0,100,100,100,1,0,1,0,,,,,,,,,1323.2221764996648,None,1323.9700770992786,None,l,0,0.7562432009726763,1323.9700770992786,None,1324.7428491991013,None,,,,,,,9,23,female,9,2022_May_06_1027,Partial repeat,2021.2.3,59.965051961991016,
8,8,0,1,3,2,2,2,1,1,0,1,1,1,0,0,100,100,100,,,,,,,,,,,,,,,,,,,,,,,,,,,,,,9,23,female,9,2022_May_06_1027,Partial repeat,2021.2.3,59.965051961991016,
8,8,0,1,3,3,2,2,1,0,1,1,0,1,0,0,101,101,101,0,0,0,0,,,,,,,1325.2430444993079,None,1325.7105260994285,None,1326.6247565988451,None,s,1,0.629576800391078,1326.6247565988451,None,None,None,,,,,,,9,23,female,9,2022_May_06_1027,Partial repeat,2021.2.3,59.965051961991016,
8,8,0,1,3,3,2,2,1,0,1,1,0,1,0,0,101,101,101,1,0,1,0,,,,,,,,,1327.2700041998178,None,1328.0950985997915,None,l,1,0.6391963008791208,1328.0950985997915,None,None,None,,,,,,,9,23,female,9,2022_May_06_1027,Partial repeat,2021.2.3,59.965051961991016,
8,8,0,1,3,3,2,2,1,0,1,1,0,1,0,0,101,101,101,,,,,,,,,,,,,,,,,,,,,,,,,,,,,,9,23,female,9,2022_May_06_1027,Partial repeat,2021.2.3,59.965051961991016,
8,8,0,1,3,2,1,1,1,1,0,1,1,1,0,0,102,102,102,0,0,0,0,,,,,,,1328.7653211001307,None,1329.2675407994539,None,1330.2150093987584,None,s,1,1.2953205984085798,1330.2150093987584,None,None,None,,,,,,,9,23,female,9,2022_May_06_1027,Partial repeat,2021.2.3,59.965051961991016,
8,8,0,1,3,2,1,1,1,1,0,1,1,1,0,0,102,102,102,1,0,1,0,,,,,,,,,1331.5366348996758,None,1332.302442399785,None,s,1,0.5278880000114441,1332.302442399785,None,None,None,,,,,,,9,23,female,9,2022_May_06_1027,Partial repeat,2021.2.3,59.965051961991016,
8,8,0,1,3,2,1,1,1,1,0,1,1,1,0,0,102,102,102,,,,,,,,,,,,,,,,,,,,,,,,,,,,,,9,23,female,9,2022_May_06_1027,Partial repeat,2021.2.3,59.965051961991016,
8,8,0,1,3,2,2,2,0,1,0,1,0,1,0,0,103,103,103,0,0,0,0,,,,,,,1332.8452035989612,None,1333.3254521004856,None,1334.1893818993121,None,l,1,0.6249471995979548,1334.1893818993121,None,None,None,,,,,,,9,23,female,9,2022_May_06_1027,Partial repeat,2021.2.3,59.965051961991016,
8,8,0,1,3,2,2,2,0,1,0,1,0,1,0,0,103,103,103,1,0,1,0,,,,,,,,,1334.8325284998864,None,1335.59219859913,None,s,1,0.4381517004221678,1335.59219859913,None,None,None,,,,,,,9,23,female,9,2022_May_06_1027,Partial repeat,2021.2.3,59.965051961991016,
8,8,0,1,3,2,2,2,0,1,0,1,0,1,0,0,103,103,103,,,,,,,,,,,,,,,,,,,,,,,,,,,,,,9,23,female,9,2022_May_06_1027,Partial repeat,2021.2.3,59.965051961991016,
8,8,0,1,2,3,2,2,0,1,0,1,0,1,0,0,104,104,104,0,0,0,0,,,,,,,1336.0544757004827,None,1336.4648591000587,None,1337.4291459992528,None,l,1,0.6411867998540401,1337.4291459992528,None,None,None,,,,,,,9,23,female,9,2022_May_06_1027,Partial repeat,2021.2.3,59.965051961991016,
8,8,0,1,2,3,2,2,0,1,0,1,0,1,0,0,104,104,104,1,0,1,0,,,,,,,,,1338.0963180996478,None,1339.0991667993367,None,s,1,0.6111692003905773,1339.0991667993367,None,None,None,,,,,,,9,23,female,9,2022_May_06_1027,Partial repeat,2021.2.3,59.965051961991016,
8,8,0,1,2,3,2,2,0,1,0,1,0,1,0,0,104,104,104,,,,,,,,,,,,,,,,,,,,,,,,,,,,,,9,23,female,9,2022_May_06_1027,Partial repeat,2021.2.3,59.965051961991016,
8,8,0,1,3,3,1,2,0,0,1,0,1,1,0,0,105,105,105,0,0,0,0,,,,,,,1339.7300311997533,None,1340.1053369995207,None,1340.835723599419,None,l,1,0.6586428005248308,1340.835723599419,None,None,None,,,,,,,9,23,female,9,2022_May_06_1027,Partial repeat,2021.2.3,59.965051961991016,
8,8,0,1,3,3,1,2,0,0,1,0,1,1,0,0,105,105,105,1,0,1,0,,,,,,,,,1341.5215121991932,None,1342.33925130032,None,l,1,0.5950640011578798,1342.33925130032,None,None,None,,,,,,,9,23,female,9,2022_May_06_1027,Partial repeat,2021.2.3,59.965051961991016,
8,8,0,1,3,3,1,2,0,0,1,0,1,1,0,0,105,105,105,,,,,,,,,,,,,,,,,,,,,,,,,,,,,,9,23,female,9,2022_May_06_1027,Partial repeat,2021.2.3,59.965051961991016,
8,8,0,1,2,2,1,2,0,1,1,0,0,1,0,0,106,106,106,0,0,0,0,,,,,,,1342.949658298865,None,1343.311551099643,None,1344.159841299057,None,l,1,0.4866003002971411,1344.159841299057,None,None,None,,,,,,,9,23,female,9,2022_May_06_1027,Partial repeat,2021.2.3,59.965051961991016,
8,8,0,1,2,2,1,2,0,1,1,0,0,1,0,0,106,106,106,1,0,1,0,,,,,,,,,1344.655764799565,None,1345.5119115002453,None,s,1,0.5424159988760948,1345.5119115002453,None,None,None,,,,,,,9,23,female,9,2022_May_06_1027,Partial repeat,2021.2.3,59.965051961991016,
8,8,0,1,2,2,1,2,0,1,1,0,0,1,0,0,106,106,106,,,,,,,,,,,,,,,,,,,,,,,,,,,,,,9,23,female,9,2022_May_06_1027,Partial repeat,2021.2.3,59.965051961991016,
8,8,0,1,2,3,2,2,1,0,0,1,0,1,0,0,107,107,107,0,0,0,0,,,,,,,1346.0779097992927,None,1346.8016617000103,None,1347.599234400317,None,l,0,0.5911044999957085,1347.599234400317,None,1348.198864100501,None,,,,,,,9,23,female,9,2022_May_06_1027,Partial repeat,2021.2.3,59.965051961991016,
8,8,0,1,2,3,2,2,1,0,0,1,0,1,0,0,107,107,107,1,0,1,0,,,,,,,,,1348.705389900133,None,1349.6528022997081,None,l,1,0.38555900007486343,1349.6528022997081,None,None,None,,,,,,,9,23,female,9,2022_May_06_1027,Partial repeat,2021.2.3,59.965051961991016,
8,8,0,1,2,3,2,2,1,0,0,1,0,1,0,0,107,107,107,,,,,,,,,,,,,,,,,,,,,,,,,,,,,,9,23,female,9,2022_May_06_1027,Partial repeat,2021.2.3,59.965051961991016,
8,8,0,1,2,2,1,2,1,1,1,0,1,1,0,0,108,108,108,0,0,0,0,,,,,,,1350.0496836993843,None,1350.4254139997065,None,1351.389652600512,None,s,1,0.520677000284195,1351.389652600512,None,None,None,,,,,,,9,23,female,9,2022_May_06_1027,Partial repeat,2021.2.3,59.965051961991016,
8,8,0,1,2,2,1,2,1,1,1,0,1,1,0,0,108,108,108,1,0,1,0,,,,,,,,,1351.9281537998468,None,1352.7923364993185,None,s,1,0.8859900999814272,1352.7923364993185,None,None,None,,,,,,,9,23,female,9,2022_May_06_1027,Partial repeat,2021.2.3,59.965051961991016,
8,8,0,1,2,2,1,2,1,1,1,0,1,1,0,0,108,108,108,,,,,,,,,,,,,,,,,,,,,,,,,,,,,,9,23,female,9,2022_May_06_1027,Partial repeat,2021.2.3,59.965051961991016,
8,8,0,1,3,2,2,1,1,0,0,0,0,1,0,0,109,109,109,0,0,0,0,,,,,,,1353.695532700047,None,1354.3163379002362,None,1355.2306439988315,None,s,1,0.7596652992069721,1355.2306439988315,None,None,None,,,,,,,9,23,female,9,2022_May_06_1027,Partial repeat,2021.2.3,59.965051961991016,
8,8,0,1,3,2,2,1,1,0,0,0,0,1,0,0,109,109,109,1,0,1,0,,,,,,,,,1356.003274999559,None,1356.750432599336,None,l,1,0.9518975000828505,1356.750432599336,None,None,None,,,,,,,9,23,female,9,2022_May_06_1027,Partial repeat,2021.2.3,59.965051961991016,
8,8,0,1,3,2,2,1,1,0,0,0,0,1,0,0,109,109,109,,,,,,,,,,,,,,,,,,,,,,,,,,,,,,9,23,female,9,2022_May_06_1027,Partial repeat,2021.2.3,59.965051961991016,
8,8,0,1,2,2,2,2,0,0,1,1,1,1,0,0,110,110,110,0,0,0,0,,,,,,,1357.7171633001417,None,1359.3260637000203,None,1360.3076371997595,None,l,1,0.5386820007115602,1360.3076371997595,None,None,None,,,,,,,9,23,female,9,2022_May_06_1027,Partial repeat,2021.2.3,59.965051961991016,
8,8,0,1,2,2,2,2,0,0,1,1,1,1,0,0,110,110,110,1,0,1,0,,,,,,,,,1360.8677891995758,None,1361.6765211001039,None,l,1,0.9698617998510599,1361.6765211001039,None,None,None,,,,,,,9,23,female,9,2022_May_06_1027,Partial repeat,2021.2.3,59.965051961991016,
8,8,0,1,2,2,2,2,0,0,1,1,1,1,0,0,110,110,110,,,,,,,,,,,,,,,,,,,,,,,,,,,,,,9,23,female,9,2022_May_06_1027,Partial repeat,2021.2.3,59.965051961991016,
8,8,0,1,2,2,1,1,1,0,1,1,0,1,0,0,111,111,111,0,0,0,0,,,,,,,1362.659426100552,None,1363.0833889003843,None,1363.914854599163,None,s,1,0.8275924995541573,1363.914854599163,None,None,None,,,,,,,9,23,female,9,2022_May_06_1027,Partial repeat,2021.2.3,59.965051961991016,
8,8,0,1,2,2,1,1,1,0,1,1,0,1,0,0,111,111,111,1,0,1,0,,,,,,,,,1364.7532186992466,None,1365.5860926993191,None,l,1,0.4202433004975319,1365.5860926993191,None,None,None,,,,,,,9,23,female,9,2022_May_06_1027,Partial repeat,2021.2.3,59.965051961991016,
8,8,0,1,2,2,1,1,1,0,1,1,0,1,0,0,111,111,111,,,,,,,,,,,,,,,,,,,,,,,,,,,,,,9,23,female,9,2022_May_06_1027,Partial repeat,2021.2.3,59.965051961991016,
8,8,0,1,3,2,2,1,0,1,0,0,0,1,0,0,112,112,112,0,0,0,0,,,,,,,1366.0220727995038,None,1366.5568068996072,None,1367.287719000131,None,l,1,0.5186308994889259,1367.287719000131,None,None,None,,,,,,,9,23,female,9,2022_May_06_1027,Partial repeat,2021.2.3,59.965051961991016,
8,8,0,1,3,2,2,1,0,1,0,0,0,1,0,0,112,112,112,1,0,1,0,,,,,,,,,1367.825667599216,None,1368.589862499386,None,s,1,0.4724679011851549,1368.589862499386,None,None,None,,,,,,,9,23,female,9,2022_May_06_1027,Partial repeat,2021.2.3,59.965051961991016,
8,8,0,1,3,2,2,1,0,1,0,0,0,1,0,0,112,112,112,,,,,,,,,,,,,,,,,,,,,,,,,,,,,,9,23,female,9,2022_May_06_1027,Partial repeat,2021.2.3,59.965051961991016,
8,8,0,1,2,2,2,2,1,1,1,1,1,1,0,0,113,113,113,0,0,0,0,,,,,,,1369.0894758999348,None,1369.4958404004574,None,1370.2600567005575,None,s,1,0.570311801508069,1370.2600567005575,None,None,None,,,,,,,9,23,female,9,2022_May_06_1027,Partial repeat,2021.2.3,59.965051961991016,
8,8,0,1,2,2,2,2,1,1,1,1,1,1,0,0,113,113,113,1,0,1,0,,,,,,,,,1370.8404590003192,None,1371.5788307990879,None,s,1,0.49161050096154213,1371.5788307990879,None,None,None,,,,,,,9,23,female,9,2022_May_06_1027,Partial repeat,2021.2.3,59.965051961991016,
8,8,0,1,2,2,2,2,1,1,1,1,1,1,0,0,113,113,113,,,,,,,,,,,,,,,,,,,,,,,,,,,,,,9,23,female,9,2022_May_06_1027,Partial repeat,2021.2.3,59.965051961991016,
8,8,0,1,3,3,1,1,1,0,1,1,0,1,0,0,114,114,114,0,0,0,0,,,,,,,1372.1008067000657,None,1372.4516134988517,None,1373.2826134003699,None,s,1,0.5957498010247946,1373.2826134003699,None,None,None,,,,,,,9,23,female,9,2022_May_06_1027,Partial repeat,2021.2.3,59.965051961991016,
8,8,0,1,3,3,1,1,1,0,1,1,0,1,0,0,114,114,114,1,0,1,0,,,,,,,,,1373.9066026993096,None,1374.801856899634,None,l,1,0.6604708004742861,1374.801856899634,None,None,None,,,,,,,9,23,female,9,2022_May_06_1027,Partial repeat,2021.2.3,59.965051961991016,
8,8,0,1,3,3,1,1,1,0,1,1,0,1,0,0,114,114,114,,,,,,,,,,,,,,,,,,,,,,,,,,,,,,9,23,female,9,2022_May_06_1027,Partial repeat,2021.2.3,59.965051961991016,
8,8,0,1,3,2,1,2,0,0,0,0,1,1,0,0,115,115,115,0,0,0,0,,,,,,,1375.4767578002065,None,1375.8749460000545,None,1376.8560387995094,None,l,1,0.6302805989980698,1376.8560387995094,None,None,None,,,,,,,9,23,female,9,2022_May_06_1027,Partial repeat,2021.2.3,59.965051961991016,
8,8,0,1,3,2,1,2,0,0,0,0,1,1,0,0,115,115,115,1,0,1,0,,,,,,,,,1377.5004855003208,None,1378.4091696999967,None,l,1,0.7331796009093523,1378.4091696999967,None,None,None,,,,,,,9,23,female,9,2022_May_06_1027,Partial repeat,2021.2.3,59.965051961991016,
8,8,0,1,3,2,1,2,0,0,0,0,1,1,0,0,115,115,115,,,,,,,,,,,,,,,,,,,,,,,,,,,,,,9,23,female,9,2022_May_06_1027,Partial repeat,2021.2.3,59.965051961991016,
8,8,0,1,2,3,2,2,0,0,0,1,1,1,0,0,116,116,116,0,0,0,0,,,,,,,1379.1696543004364,None,1379.5654536988586,None,1380.5133047997952,None,l,1,0.5730952993035316,1380.5133047997952,None,None,None,,,,,,,9,23,female,9,2022_May_06_1027,Partial repeat,2021.2.3,59.965051961991016,
8,8,0,1,2,3,2,2,0,0,0,1,1,1,0,0,116,116,116,1,0,1,0,,,,,,,,,1381.096425300464,None,1381.9825018998235,None,l,1,0.48785969987511635,1381.9825018998235,None,None,None,,,,,,,9,23,female,9,2022_May_06_1027,Partial repeat,2021.2.3,59.965051961991016,
8,8,0,1,2,3,2,2,0,0,0,1,1,1,0,0,116,116,116,,,,,,,,,,,,,,,,,,,,,,,,,,,,,,9,23,female,9,2022_May_06_1027,Partial repeat,2021.2.3,59.965051961991016,
8,8,0,1,3,2,1,2,1,0,0,0,0,1,0,0,117,117,117,0,0,0,0,,,,,,,1382.4865936990827,None,1382.855179099366,None,1383.7370250988752,None,s,1,0.669293599203229,1383.7370250988752,None,None,None,,,,,,,9,23,female,9,2022_May_06_1027,Partial repeat,2021.2.3,59.965051961991016,
8,8,0,1,3,2,1,2,1,0,0,0,0,1,0,0,117,117,117,1,0,1,0,,,,,,,,,1384.4218562990427,None,1385.4229160994291,None,l,1,0.5275075007230043,1385.4229160994291,None,None,None,,,,,,,9,23,female,9,2022_May_06_1027,Partial repeat,2021.2.3,59.965051961991016,
8,8,0,1,3,2,1,2,1,0,0,0,0,1,0,0,117,117,117,,,,,,,,,,,,,,,,,,,,,,,,,,,,,,9,23,female,9,2022_May_06_1027,Partial repeat,2021.2.3,59.965051961991016,
8,8,0,1,2,3,1,1,0,1,0,1,0,1,0,0,118,118,118,0,0,0,0,,,,,,,1385.968936799094,None,1386.3451575003564,None,1387.3264835998416,None,l,1,0.5597929004579782,1387.3264835998416,None,None,None,,,,,,,9,23,female,9,2022_May_06_1027,Partial repeat,2021.2.3,59.965051961991016,
8,8,0,1,2,3,1,1,0,1,0,1,0,1,0,0,118,118,118,1,0,1,0,,,,,,,,,1387.904364598915,None,1388.795759100467,None,s,1,0.5786150991916656,1388.795759100467,None,None,None,,,,,,,9,23,female,9,2022_May_06_1027,Partial repeat,2021.2.3,59.965051961991016,
8,8,0,1,2,3,1,1,0,1,0,1,0,1,0,0,118,118,118,,,,,,,,,,,,,,,,,,,,,,,,,,,,,,9,23,female,9,2022_May_06_1027,Partial repeat,2021.2.3,59.965051961991016,
8,8,0,1,2,3,1,1,1,1,0,1,1,1,0,0,119,119,119,0,0,0,0,,,,,,,1389.4039011001587,None,1389.785343600437,None,1390.5827025994658,None,s,1,0.9515936002135277,1390.5827025994658,None,None,None,,,,,,,9,23,female,9,2022_May_06_1027,Partial repeat,2021.2.3,59.965051961991016,
8,8,0,1,2,3,1,1,1,1,0,1,1,1,0,0,119,119,119,1,0,1,0,,,,,,,,,1391.5435461997986,None,1392.5196132995188,None,s,1,0.41470810025930405,1392.5196132995188,None,None,None,,,,,,,9,23,female,9,2022_May_06_1027,Partial repeat,2021.2.3,59.965051961991016,
8,8,0,1,2,3,1,1,1,1,0,1,1,1,0,0,119,119,119,,,,,,,,,,,,,,,,,,,,,,,,,,,,,,9,23,female,9,2022_May_06_1027,Partial repeat,2021.2.3,59.965051961991016,
8,8,0,1,3,2,1,2,0,1,0,0,0,1,0,0,120,120,120,0,0,0,0,,,,,,,1392.9558109994978,None,1393.308875899762,None,1394.0895389989018,None,l,1,0.7167846988886595,1394.0895389989018,None,None,None,,,,,,,9,23,female,9,2022_May_06_1027,Partial repeat,2021.2.3,59.965051961991016,
8,8,0,1,3,2,1,2,0,1,0,0,0,1,0,0,120,120,120,1,0,1,0,,,,,,,,,1394.821941100061,None,1395.7926284000278,None,s,1,0.7496675010770559,1395.7926284000278,None,None,None,,,,,,,9,23,female,9,2022_May_06_1027,Partial repeat,2021.2.3,59.965051961991016,
8,8,0,1,3,2,1,2,0,1,0,0,0,1,0,0,120,120,120,,,,,,,,,,,,,,,,,,,,,,,,,,,,,,9,23,female,9,2022_May_06_1027,Partial repeat,2021.2.3,59.965051961991016,
8,8,0,1,3,2,2,2,1,0,0,1,0,1,0,0,121,121,121,0,0,0,0,,,,,,,1396.5541797988117,None,1397.2164395991713,None,1398.0485392995179,None,s,1,0.6457923986017704,1398.0485392995179,None,None,None,,,,,,,9,23,female,9,2022_May_06_1027,Partial repeat,2021.2.3,59.965051961991016,
8,8,0,1,3,2,2,2,1,0,0,1,0,1,0,0,121,121,121,1,0,1,0,,,,,,,,,1398.7120631989092,None,1399.4331248998642,None,l,1,0.5412009991705418,1399.4331248998642,None,None,None,,,,,,,9,23,female,9,2022_May_06_1027,Partial repeat,2021.2.3,59.965051961991016,
8,8,0,1,3,2,2,2,1,0,0,1,0,1,0,0,121,121,121,,,,,,,,,,,,,,,,,,,,,,,,,,,,,,9,23,female,9,2022_May_06_1027,Partial repeat,2021.2.3,59.965051961991016,
8,8,0,1,3,3,2,2,0,0,1,1,1,1,0,0,122,122,122,0,0,0,0,,,,,,,1399.996482199058,None,1400.5729740988463,None,1401.486981600523,None,l,1,0.5513316001743078,1401.486981600523,None,None,None,,,,,,,9,23,female,9,2022_May_06_1027,Partial repeat,2021.2.3,59.965051961991016,
8,8,0,1,3,3,2,2,0,0,1,1,1,1,0,0,122,122,122,1,0,1,0,,,,,,,,,1402.0483905989677,None,1402.9566616993397,None,l,1,0.48977870121598244,1402.9566616993397,None,None,None,,,,,,,9,23,female,9,2022_May_06_1027,Partial repeat,2021.2.3,59.965051961991016,
8,8,0,1,3,3,2,2,0,0,1,1,1,1,0,0,122,122,122,,,,,,,,,,,,,,,,,,,,,,,,,,,,,,9,23,female,9,2022_May_06_1027,Partial repeat,2021.2.3,59.965051961991016,
8,8,0,1,2,3,2,2,1,1,0,1,1,1,0,0,123,123,123,0,0,0,0,,,,,,,1403.4771506991237,None,1403.8460064996034,None,1404.6261484995484,None,s,1,0.636157900094986,1404.6261484995484,None,None,None,,,,,,,9,23,female,9,2022_May_06_1027,Partial repeat,2021.2.3,59.965051961991016,
8,8,0,1,2,3,2,2,1,1,0,1,1,1,0,0,123,123,123,1,0,1,0,,,,,,,,,1405.270878398791,None,1405.9959580004215,None,s,1,0.5463639013469219,1405.9959580004215,None,None,None,,,,,,,9,23,female,9,2022_May_06_1027,Partial repeat,2021.2.3,59.965051961991016,
8,8,0,1,2,3,2,2,1,1,0,1,1,1,0,0,123,123,123,,,,,,,,,,,,,,,,,,,,,,,,,,,,,,9,23,female,9,2022_May_06_1027,Partial repeat,2021.2.3,59.965051961991016,
8,8,0,1,3,2,2,2,0,0,0,1,1,1,0,0,124,124,124,0,0,0,0,,,,,,,1406.5611393004656,None,1407.1023516003042,None,1407.9836966004223,None,l,1,0.7187069989740849,1407.9836966004223,None,None,None,,,,,,,9,23,female,9,2022_May_06_1027,Partial repeat,2021.2.3,59.965051961991016,
8,8,0,1,3,2,2,2,0,0,0,1,1,1,0,0,124,124,124,1,0,1,0,,,,,,,,,1408.7132057994604,None,1409.535791900009,None,l,1,0.5585379004478455,1409.535791900009,None,None,None,,,,,,,9,23,female,9,2022_May_06_1027,Partial repeat,2021.2.3,59.965051961991016,
8,8,0,1,3,2,2,2,0,0,0,1,1,1,0,0,124,124,124,,,,,,,,,,,,,,,,,,,,,,,,,,,,,,9,23,female,9,2022_May_06_1027,Partial repeat,2021.2.3,59.965051961991016,
8,8,0,1,2,2,1,1,1,1,1,1,1,1,0,0,125,125,125,0,0,0,0,,,,,,,1410.12047999911,None,1410.6426355000585,None,1411.5066729988903,None,s,1,0.83566639944911,1411.5066729988903,None,None,None,,,,,,,9,23,female,9,2022_May_06_1027,Partial repeat,2021.2.3,59.965051961991016,
8,8,0,1,2,2,1,1,1,1,1,1,1,1,0,0,125,125,125,1,0,1,0,,,,,,,,,1412.3590986989439,None,1413.3432947006077,None,s,1,0.6470703985542059,1413.3432947006077,None,None,None,,,,,,,9,23,female,9,2022_May_06_1027,Partial repeat,2021.2.3,59.965051961991016,
8,8,0,1,2,2,1,1,1,1,1,1,1,1,0,0,125,125,125,,,,,,,,,,,,,,,,,,,,,,,,,,,,,,9,23,female,9,2022_May_06_1027,Partial repeat,2021.2.3,59.965051961991016,
8,8,0,1,2,2,2,1,0,1,1,0,0,1,0,0,126,126,126,0,0,0,0,,,,,,,1414.008998800069,None,1414.483435800299,None,1415.2470018994063,None,l,1,0.5513736009597778,1415.2470018994063,None,None,None,,,,,,,9,23,female,9,2022_May_06_1027,Partial repeat,2021.2.3,59.965051961991016,
8,8,0,1,2,2,2,1,0,1,1,0,0,1,0,0,126,126,126,1,0,1,0,,,,,,,,,1415.8254975993186,None,1416.7166926003993,None,s,1,0.6096282005310059,1416.7166926003993,None,None,None,,,,,,,9,23,female,9,2022_May_06_1027,Partial repeat,2021.2.3,59.965051961991016,
8,8,0,1,2,2,2,1,0,1,1,0,0,1,0,0,126,126,126,,,,,,,,,,,,,,,,,,,,,,,,,,,,,,9,23,female,9,2022_May_06_1027,Partial repeat,2021.2.3,59.965051961991016,
8,8,0,1,2,3,2,1,0,0,0,0,1,1,0,0,127,127,127,0,0,0,0,,,,,,,1417.3421640004963,None,1417.7063445989043,None,1418.5871500000358,None,s,0,0.4991537984460592,1418.5871500000358,None,1419.1032922994345,None,,,,,,,9,23,female,9,2022_May_06_1027,Partial repeat,2021.2.3,59.965051961991016,
8,8,0,1,2,3,2,1,0,0,0,0,1,1,0,0,127,127,127,1,0,1,0,,,,,,,,,1419.6099856998771,None,1420.5906218998134,None,l,1,0.4797095004469156,1420.5906218998134,None,None,None,,,,,,,9,23,female,9,2022_May_06_1027,Partial repeat,2021.2.3,59.965051961991016,
8,8,0,1,2,3,2,1,0,0,0,0,1,1,0,0,127,127,127,,,,,,,,,,,,,,,,,,,,,,,,,,,,,,9,23,female,9,2022_May_06_1027,Partial repeat,2021.2.3,59.965051961991016,
2,3,0,1,3,2,1,2,0,0,0,0,1,0,0,0,128,128,128,0,0,0,0,,,,,,,1421.3812224995345,None,1423.1835939995944,None,1424.164269099012,None,l,1,1.4740464985370636,1424.164269099012,None,None,None,,,,,,,9,23,female,9,2022_May_06_1027,Partial repeat,2021.2.3,59.965051961991016,
2,3,0,1,3,2,1,2,0,0,0,0,1,0,0,0,128,128,128,1,0,1,0,,,,,,,,,1425.6544406991452,None,1426.5198809988797,None,l,1,0.7184533998370171,1426.5198809988797,None,None,None,,,,,,,9,23,female,9,2022_May_06_1027,Partial repeat,2021.2.3,59.965051961991016,
2,3,0,1,3,2,1,2,0,0,0,0,1,0,0,0,128,128,128,,,,,,,,,,,,,,,,,,,,,,,,,,,,,,9,23,female,9,2022_May_06_1027,Partial repeat,2021.2.3,59.965051961991016,
3,5,0,1,3,2,2,2,0,0,0,1,1,0,0,0,129,129,129,0,0,0,0,,,,,,,1427.2566531002522,None,1427.7258486002684,None,1428.556221500039,None,l,1,0.6181055009365082,1428.556221500039,None,None,None,,,,,,,9,23,female,9,2022_May_06_1027,Partial repeat,2021.2.3,59.965051961991016,
3,5,0,1,3,2,2,2,0,0,0,1,1,0,0,0,129,129,129,1,0,1,0,,,,,,,,,1429.1989178992808,None,1430.2093919999897,None,l,1,1.0289312992244959,1430.2093919999897,None,None,None,,,,,,,9,23,female,9,2022_May_06_1027,Partial repeat,2021.2.3,59.965051961991016,
3,5,0,1,3,2,2,2,0,0,0,1,1,0,0,0,129,129,129,,,,,,,,,,,,,,,,,,,,,,,,,,,,,,9,23,female,9,2022_May_06_1027,Partial repeat,2021.2.3,59.965051961991016,
8,5,0,1,3,2,2,1,1,0,0,0,0,0,0,0,130,130,130,0,0,0,0,,,,,,,1431.2612385004759,None,1431.666832499206,None,1432.647787200287,None,s,1,0.7985367998480797,1432.647787200287,None,None,None,,,,,,,9,23,female,9,2022_May_06_1027,Partial repeat,2021.2.3,59.965051961991016,
8,5,0,1,3,2,2,1,1,0,0,0,0,0,0,0,130,130,130,1,0,1,0,,,,,,,,,1433.4637601990253,None,1434.4510308988392,None,l,1,0.707294600084424,1434.4510308988392,None,None,None,,,,,,,9,23,female,9,2022_May_06_1027,Partial repeat,2021.2.3,59.965051961991016,
8,5,0,1,3,2,2,1,1,0,0,0,0,0,0,0,130,130,130,,,,,,,,,,,,,,,,,,,,,,,,,,,,,,9,23,female,9,2022_May_06_1027,Partial repeat,2021.2.3,59.965051961991016,
6,4,0,1,2,3,2,1,1,0,0,0,0,0,0,0,131,131,131,0,0,0,0,,,,,,,1435.1865534000099,None,1435.5911555998027,None,1436.388104800135,None,s,1,0.8982314988970757,1436.388104800135,None,None,None,,,,,,,9,23,female,9,2022_May_06_1027,Partial repeat,2021.2.3,59.965051961991016,
6,4,0,1,2,3,2,1,1,0,0,0,0,0,0,0,131,131,131,1,0,1,0,,,,,,,,,1437.306001899764,None,1438.2752167005092,None,l,1,0.7071147989481688,1438.2752167005092,None,None,None,,,,,,,9,23,female,9,2022_May_06_1027,Partial repeat,2021.2.3,59.965051961991016,
6,4,0,1,2,3,2,1,1,0,0,0,0,0,0,0,131,131,131,,,,,,,,,,,,,,,,,,,,,,,,,,,,,,9,23,female,9,2022_May_06_1027,Partial repeat,2021.2.3,59.965051961991016,
4,8,0,1,3,3,2,1,0,1,1,0,0,0,0,0,132,132,132,0,0,0,0,,,,,,,1439.0073907990009,None,1439.4318832997233,None,1440.1621384993196,None,l,1,0.6361947990953922,1440.1621384993196,None,None,None,,,,,,,9,23,female,9,2022_May_06_1027,Partial repeat,2021.2.3,59.965051961991016,
4,8,0,1,3,3,2,1,0,1,1,0,0,0,0,0,132,132,132,1,0,1,0,,,,,,,,,1440.8173746000975,None,1441.781949000433,None,s,1,0.5524949990212917,1441.781949000433,None,None,None,,,,,,,9,23,female,9,2022_May_06_1027,Partial repeat,2021.2.3,59.965051961991016,
4,8,0,1,3,3,2,1,0,1,1,0,0,0,0,0,132,132,132,,,,,,,,,,,,,,,,,,,,,,,,,,,,,,9,23,female,9,2022_May_06_1027,Partial repeat,2021.2.3,59.965051961991016,
7,6,0,1,3,3,2,2,1,1,1,1,1,0,0,0,133,133,133,0,0,0,0,,,,,,,1442.3465924989432,None,1442.838587898761,None,1443.635735500604,None,s,1,0.8185863010585308,1443.635735500604,None,None,None,,,,,,,9,23,female,9,2022_May_06_1027,Partial repeat,2021.2.3,59.965051961991016,
7,6,0,1,3,3,2,2,1,1,1,1,1,0,0,0,133,133,133,1,0,1,0,,,,,,,,,1444.4833899997175,None,1445.205307200551,None,l,0,0.6490282993763685,1445.205307200551,None,1445.8749099001288,None,,,,,,,9,23,female,9,2022_May_06_1027,Partial repeat,2021.2.3,59.965051961991016,
7,6,0,1,3,3,2,2,1,1,1,1,1,0,0,0,133,133,133,,,,,,,,,,,,,,,,,,,,,,,,,,,,,,9,23,female,9,2022_May_06_1027,Partial repeat,2021.2.3,59.965051961991016,
7,7,0,1,3,3,2,1,1,0,1,0,0,0,0,0,134,134,134,0,0,0,0,,,,,,,1446.3788437005132,None,1446.7127312999219,None,1447.5441316999495,None,s,1,0.7422538995742798,1447.5441316999495,None,None,None,,,,,,,9,23,female,9,2022_May_06_1027,Partial repeat,2021.2.3,59.965051961991016,
7,7,0,1,3,3,2,1,1,0,1,0,0,0,0,0,134,134,134,1,0,1,0,,,,,,,,,1448.3129798993468,None,1449.096386000514,None,l,1,0.6379777006804943,1449.096386000514,None,None,None,,,,,,,9,23,female,9,2022_May_06_1027,Partial repeat,2021.2.3,59.965051961991016,
7,7,0,1,3,3,2,1,1,0,1,0,0,0,0,0,134,134,134,,,,,,,,,,,,,,,,,,,,,,,,,,,,,,9,23,female,9,2022_May_06_1027,Partial repeat,2021.2.3,59.965051961991016,
1,1,0,1,2,2,2,1,0,1,1,0,0,0,0,0,135,135,135,0,0,0,0,,,,,,,1449.7630796991289,None,1450.1193639989942,None,1450.9832362998277,None,s,0,0.7830982990562916,1450.9832362998277,None,1451.778829799965,None,,,,,,,9,23,female,9,2022_May_06_1027,Partial repeat,2021.2.3,59.965051961991016,
1,1,0,1,2,2,2,1,0,1,1,0,0,0,0,0,135,135,135,1,0,1,0,,,,,,,,,1452.2901721987873,None,1453.204099399969,None,s,1,1.2502213008701801,1453.204099399969,None,None,None,,,,,,,9,23,female,9,2022_May_06_1027,Partial repeat,2021.2.3,59.965051961991016,
1,1,0,1,2,2,2,1,0,1,1,0,0,0,0,0,135,135,135,,,,,,,,,,,,,,,,,,,,,,,,,,,,,,9,23,female,9,2022_May_06_1027,Partial repeat,2021.2.3,59.965051961991016,
4,1,0,1,2,3,1,2,1,0,0,0,0,0,0,0,136,136,136,0,0,0,0,,,,,,,1454.4705745000392,None,1454.9120581988245,None,1455.7757561001927,None,s,1,0.9506301991641521,1455.7757561001927,None,None,None,,,,,,,9,23,female,9,2022_May_06_1027,Partial repeat,2021.2.3,59.965051961991016,
4,1,0,1,2,3,1,2,1,0,0,0,0,0,0,0,136,136,136,1,0,1,0,,,,,,,,,1456.7555068992078,None,1457.5461515001953,None,l,1,1.1561613995581865,1457.5461515001953,None,None,None,,,,,,,9,23,female,9,2022_May_06_1027,Partial repeat,2021.2.3,59.965051961991016,
4,1,0,1,2,3,1,2,1,0,0,0,0,0,0,0,136,136,136,,,,,,,,,,,,,,,,,,,,,,,,,,,,,,9,23,female,9,2022_May_06_1027,Partial repeat,2021.2.3,59.965051961991016,
1,7,0,1,2,2,1,2,0,0,1,0,1,0,0,0,137,137,137,0,0,0,0,,,,,,,1458.7276993989944,None,1459.086892100051,None,1459.8173843994737,None,l,1,1.020914999768138,1459.8173843994737,None,None,None,,,,,,,9,23,female,9,2022_May_06_1027,Partial repeat,2021.2.3,59.965051961991016,
1,7,0,1,2,2,1,2,0,0,1,0,1,0,0,0,137,137,137,1,0,1,0,,,,,,,,,1460.8634242005646,None,1461.8710826989263,None,l,1,0.703269699588418,1461.8710826989263,None,None,None,,,,,,,9,23,female,9,2022_May_06_1027,Partial repeat,2021.2.3,59.965051961991016,
1,7,0,1,2,2,1,2,0,0,1,0,1,0,0,0,137,137,137,,,,,,,,,,,,,,,,,,,,,,,,,,,,,,9,23,female,9,2022_May_06_1027,Partial repeat,2021.2.3,59.965051961991016,
5,6,0,1,3,3,2,1,0,0,1,0,1,0,0,0,138,138,138,0,0,0,0,,,,,,,1462.6041643992066,None,1463.0111068990082,None,1463.8247787002474,None,l,1,0.5815818011760712,1463.8247787002474,None,None,None,,,,,,,9,23,female,9,2022_May_06_1027,Partial repeat,2021.2.3,59.965051961991016,
5,6,0,1,3,3,2,1,0,0,1,0,1,0,0,0,138,138,138,1,0,1,0,,,,,,,,,1464.4258574005216,None,1465.2276748996228,None,l,1,0.7066663987934589,1465.2276748996228,None,None,None,,,,,,,9,23,female,9,2022_May_06_1027,Partial repeat,2021.2.3,59.965051961991016,
5,6,0,1,3,3,2,1,0,0,1,0,1,0,0,0,138,138,138,,,,,,,,,,,,,,,,,,,,,,,,,,,,,,9,23,female,9,2022_May_06_1027,Partial repeat,2021.2.3,59.965051961991016,
7,5,0,1,2,3,1,2,0,1,0,0,0,0,0,0,139,139,139,0,0,0,0,,,,,,,1465.9628304988146,None,1466.417790999636,None,1467.1479988005012,None,l,1,0.6743080001324415,1467.1479988005012,None,None,None,,,,,,,9,23,female,9,2022_May_06_1027,Partial repeat,2021.2.3,59.965051961991016,
7,5,0,1,2,3,1,2,0,1,0,0,0,0,0,0,139,139,139,1,0,1,0,,,,,,,,,1467.8306543994695,None,1468.8344882000238,None,s,1,1.4358121007680893,1468.8344882000238,None,None,None,,,,,,,9,23,female,9,2022_May_06_1027,Partial repeat,2021.2.3,59.965051961991016,
7,5,0,1,2,3,1,2,0,1,0,0,0,0,0,0,139,139,139,,,,,,,,,,,,,,,,,,,,,,,,,,,,,,9,23,female,9,2022_May_06_1027,Partial repeat,2021.2.3,59.965051961991016,
3,1,0,1,2,3,2,2,1,1,0,1,1,0,0,0,140,140,140,0,0,0,0,,,,,,,1470.2917259000242,None,1470.7094234991819,None,1471.5567342992872,None,s,1,0.6415997985750437,1471.5567342992872,None,None,None,,,,,,,9,23,female,9,2022_May_06_1027,Partial repeat,2021.2.3,59.965051961991016,
3,1,0,1,2,3,2,2,1,1,0,1,1,0,0,0,140,140,140,1,0,1,0,,,,,,,,,1472.224124699831,None,1473.0928556993604,None,s,1,0.8015425000339746,1473.0928556993604,None,None,None,,,,,,,9,23,female,9,2022_May_06_1027,Partial repeat,2021.2.3,59.965051961991016,
3,1,0,1,2,3,2,2,1,1,0,1,1,0,0,0,140,140,140,,,,,,,,,,,,,,,,,,,,,,,,,,,,,,9,23,female,9,2022_May_06_1027,Partial repeat,2021.2.3,59.965051961991016,
3,6,0,1,2,2,2,2,0,0,1,1,1,0,0,0,141,141,141,0,0,0,0,,,,,,,1473.915897699073,None,1474.3833015989512,None,1475.1308091003448,None,s,0,0.5555555000901222,1475.1308091003448,None,1475.713768798858,None,,,,,,,9,23,female,9,2022_May_06_1027,Partial repeat,2021.2.3,59.965051961991016,
3,6,0,1,2,2,2,2,0,0,1,1,1,0,0,0,141,141,141,1,0,1,0,,,,,,,,,1476.2202566992491,None,1477.1512342989445,None,s,0,1.03109659999609,1477.1512342989445,None,1478.2041611988097,None,,,,,,,9,23,female,9,2022_May_06_1027,Partial repeat,2021.2.3,59.965051961991016,
3,6,0,1,2,2,2,2,0,0,1,1,1,0,0,0,141,141,141,,,,,,,,,,,,,,,,,,,,,,,,,,,,,,9,23,female,9,2022_May_06_1027,Partial repeat,2021.2.3,59.965051961991016,
2,1,0,1,2,2,1,1,1,1,1,1,1,0,0,0,142,142,142,0,0,0,0,,,,,,,1478.7084218002856,None,1479.209314700216,None,1480.140343800187,None,s,1,1.6979966014623642,1480.140343800187,None,None,None,,,,,,,9,23,female,9,2022_May_06_1027,Partial repeat,2021.2.3,59.965051961991016,
2,1,0,1,2,2,1,1,1,1,1,1,1,0,0,0,142,142,142,1,0,1,0,,,,,,,,,1481.8637904990464,None,1482.6953123994172,None,s,1,0.7670964002609253,1482.6953123994172,None,None,None,,,,,,,9,23,female,9,2022_May_06_1027,Partial repeat,2021.2.3,59.965051961991016,
2,1,0,1,2,2,1,1,1,1,1,1,1,0,0,0,142,142,142,,,,,,,,,,,,,,,,,,,,,,,,,,,,,,9,23,female,9,2022_May_06_1027,Partial repeat,2021.2.3,59.965051961991016,
4,7,0,1,3,3,1,1,1,0,1,1,0,0,0,0,143,143,143,0,0,0,0,,,,,,,1483.4927076995373,None,1483.901828199625,None,1484.6489096004516,None,s,1,0.6054270006716251,1484.6489096004516,None,None,None,,,,,,,9,23,female,9,2022_May_06_1027,Partial repeat,2021.2.3,59.965051961991016,
4,7,0,1,3,3,1,1,1,0,1,1,0,0,0,0,143,143,143,1,0,1,0,,,,,,,,,1485.2809268999845,None,1486.152099499479,None,l,1,0.6542194988578558,1486.152099499479,None,None,None,,,,,,,9,23,female,9,2022_May_06_1027,Partial repeat,2021.2.3,59.965051961991016,
4,7,0,1,3,3,1,1,1,0,1,1,0,0,0,0,143,143,143,,,,,,,,,,,,,,,,,,,,,,,,,,,,,,9,23,female,9,2022_May_06_1027,Partial repeat,2021.2.3,59.965051961991016,
1,6,0,1,3,2,2,2,0,1,0,1,0,0,0,0,144,144,144,0,0,0,0,,,,,,,1486.8234809990972,None,1487.2082473989576,None,1488.1059495992959,None,l,1,0.7163881007581949,1488.1059495992959,None,None,None,,,,,,,9,23,female,9,2022_May_06_1027,Partial repeat,2021.2.3,59.965051961991016,
1,6,0,1,3,2,2,2,0,1,0,1,0,0,0,0,144,144,144,1,0,1,0,,,,,,,,,1488.8381361998618,None,1489.6589687988162,None,s,1,0.8433627001941204,1489.6589687988162,None,None,None,,,,,,,9,23,female,9,2022_May_06_1027,Partial repeat,2021.2.3,59.965051961991016,
1,6,0,1,3,2,2,2,0,1,0,1,0,0,0,0,144,144,144,,,,,,,,,,,,,,,,,,,,,,,,,,,,,,9,23,female,9,2022_May_06_1027,Partial repeat,2021.2.3,59.965051961991016,
8,4,0,1,2,2,1,1,0,1,1,1,0,0,0,0,145,145,145,0,0,0,0,,,,,,,1490.519964499399,None,1490.9321426991373,None,1491.7129303999245,None,l,1,0.7574030999094248,1491.7129303999245,None,None,None,,,,,,,9,23,female,9,2022_May_06_1027,Partial repeat,2021.2.3,59.965051961991016,
8,4,0,1,2,2,1,1,0,1,1,1,0,0,0,0,145,145,145,1,0,1,0,,,,,,,,,1492.4849577005953,None,1493.4661976993084,None,s,1,0.6682008001953363,1493.4661976993084,None,None,None,,,,,,,9,23,female,9,2022_May_06_1027,Partial repeat,2021.2.3,59.965051961991016,
8,4,0,1,2,2,1,1,0,1,1,1,0,0,0,0,145,145,145,,,,,,,,,,,,,,,,,,,,,,,,,,,,,,9,23,female,9,2022_May_06_1027,Partial repeat,2021.2.3,59.965051961991016,
2,5,0,1,3,2,1,1,1,1,0,1,1,0,0,0,146,146,146,0,0,0,0,,,,,,,1494.163545500487,None,1494.505751799792,None,1495.4368545990437,None,l,0,0.6094699986279011,1495.4368545990437,None,1496.0597446002066,None,,,,,,,9,23,female,9,2022_May_06_1027,Partial repeat,2021.2.3,59.965051961991016,
2,5,0,1,3,2,1,1,1,1,0,1,1,0,0,0,146,146,146,1,0,1,0,,,,,,,,,1496.5597820989788,None,1497.3578910995275,None,s,1,0.8085756991058588,1497.3578910995275,None,None,None,,,,,,,9,23,female,9,2022_May_06_1027,Partial repeat,2021.2.3,59.965051961991016,
2,5,0,1,3,2,1,1,1,1,0,1,1,0,0,0,146,146,146,,,,,,,,,,,,,,,,,,,,,,,,,,,,,,9,23,female,9,2022_May_06_1027,Partial repeat,2021.2.3,59.965051961991016,
4,4,0,1,2,2,1,2,1,1,1,0,1,0,0,0,147,147,147,0,0,0,0,,,,,,,1498.179332299158,None,1498.5469300989062,None,1499.2777014989406,None,s,1,0.5046248994767666,1499.2777014989406,None,None,None,,,,,,,9,23,female,9,2022_May_06_1027,Partial repeat,2021.2.3,59.965051961991016,
4,4,0,1,2,2,1,2,1,1,1,0,1,0,0,0,147,147,147,1,0,1,0,,,,,,,,,1499.7943635992706,None,1500.5967250000685,None,s,1,0.5696095991879702,1500.5967250000685,None,None,None,,,,,,,9,23,female,9,2022_May_06_1027,Partial repeat,2021.2.3,59.965051961991016,
4,4,0,1,2,2,1,2,1,1,1,0,1,0,0,0,147,147,147,,,,,,,,,,,,,,,,,,,,,,,,,,,,,,9,23,female,9,2022_May_06_1027,Partial repeat,2021.2.3,59.965051961991016,
6,3,0,1,3,3,2,2,0,0,1,1,1,0,0,0,148,148,148,0,0,0,0,,,,,,,1501.1887135002762,None,1501.552827199921,None,1502.5347342994064,None,l,1,0.8796011004596949,1502.5347342994064,None,None,None,,,,,,,9,23,female,9,2022_May_06_1027,Partial repeat,2021.2.3,59.965051961991016,
6,3,0,1,3,3,2,2,0,0,1,1,1,0,0,0,148,148,148,1,0,1,0,,,,,,,,,1503.4329278003424,None,1504.2372817005962,None,l,1,0.6411556992679834,1504.2372817005962,None,None,None,,,,,,,9,23,female,9,2022_May_06_1027,Partial repeat,2021.2.3,59.965051961991016,
6,3,0,1,3,3,2,2,0,0,1,1,1,0,0,0,148,148,148,,,,,,,,,,,,,,,,,,,,,,,,,,,,,,9,23,female,9,2022_May_06_1027,Partial repeat,2021.2.3,59.965051961991016,
3,7,0,1,2,2,1,1,1,0,1,1,0,0,0,0,149,149,149,0,0,0,0,,,,,,,1504.8908871002495,None,1505.310113798827,None,1506.3079914990813,None,s,1,0.7303459011018276,1506.3079914990813,None,None,None,,,,,,,9,23,female,9,2022_May_06_1027,Partial repeat,2021.2.3,59.965051961991016,
3,7,0,1,2,2,1,1,1,0,1,1,0,0,0,0,149,149,149,1,0,1,0,,,,,,,,,1507.056394699961,None,1507.8286268003285,None,l,1,0.7217168007045984,1507.8286268003285,None,None,None,,,,,,,9,23,female,9,2022_May_06_1027,Partial repeat,2021.2.3,59.965051961991016,
3,7,0,1,2,2,1,1,1,0,1,1,0,0,0,0,149,149,149,,,,,,,,,,,,,,,,,,,,,,,,,,,,,,9,23,female,9,2022_May_06_1027,Partial repeat,2021.2.3,59.965051961991016,
3,3,0,1,2,3,2,1,1,1,0,0,1,0,0,0,150,150,150,0,0,0,0,,,,,,,1508.5616666004062,None,1508.9505275003612,None,1509.79787879996,None,s,1,0.6324733011424541,1509.79787879996,None,None,None,,,,,,,9,23,female,9,2022_May_06_1027,Partial repeat,2021.2.3,59.965051961991016,
3,3,0,1,2,3,2,1,1,1,0,0,1,0,0,0,150,150,150,1,0,1,0,,,,,,,,,1510.4422545004636,None,1511.452580999583,None,s,1,0.6177957002073526,1511.452580999583,None,None,None,,,,,,,9,23,female,9,2022_May_06_1027,Partial repeat,2021.2.3,59.965051961991016,
3,3,0,1,2,3,2,1,1,1,0,0,1,0,0,0,150,150,150,,,,,,,,,,,,,,,,,,,,,,,,,,,,,,9,23,female,9,2022_May_06_1027,Partial repeat,2021.2.3,59.965051961991016,
