prime_tar_pos,probe_tar_pos,dimension,tar_color,tar_shape,prime_dist_color,probe_dist_color,prime_dist_shape,probe_dist_shape,prime_tar_ori,probe_tar_ori,col_rep,shape_rep,resp_rep,pos_fixed,sparse,MainLoop.thisRepN,MainLoop.thisTrialN,MainLoop.thisN,MainLoop.thisIndex,PrimeProbe.thisRepN,PrimeProbe.thisTrialN,PrimeProbe.thisN,PrimeProbe.thisIndex,Instruction.started,Instruction.stopped,instruction_key.keys,instruction_key.rt,instruction_key.started,instruction_key.stopped,PairStartText.started,PairStartText.stopped,fixdur,FixCross.started,FixCross.stopped,dist_ori,SearchFixCross.started,SearchFixCross.stopped,key_resp.keys,key_resp.corr,key_resp.rt,key_resp.started,key_resp.stopped,feedback_text.started,feedback_text.stopped,text_finish.started,text_finish.stopped,finish_key.keys,finish_key.rt,finish_key.started,finish_key.stopped,participant,age,gender,group,date,expName,psychopyVersion,frameRate,
,,,,,,,,,,,,,,,,,,,,,,,,67.06171954576803,None,space,17.56612750538443,67.06171954576803,None,,,,,,,,,,,,,,,,,,,,,,01_BY,26,M,1,2021_Oct_27_1751,Partial repeat,2021.2.3,120.10215047540554,
1,6,0,1,1,3,3,2,3,0,0,1,0,1,0,0,0,0,0,0,0,0,0,0,,,,,,,126.81136291330222,None,0.9126891089746351,131.78946882288164,None,"[93. 93. 93. 87. 87. 93. 93. 87. 87. 93. 87. 87. 93. 87. 87. 87. 87. 87.
 87. 87. 87. 87. 93. 93. 93. 93. 87. 87. 93. 93. 93. 87. 87. 87.]",132.78860514371718,None,s,1,2.299950438648011,132.78860514371718,None,None,None,,,,,,,01_BY,26,M,1,2021_Oct_27_1751,Partial repeat,2021.2.3,120.10215047540554,
1,6,0,1,1,3,3,2,3,0,0,1,0,1,0,0,0,0,0,0,1,0,1,0,,,,,,,,,0.8936522204018408,135.16989175306662,None,"[87. 87. 87. 93. 87. 93. 93. 87. 87. 93. 93. 87. 93. 87. 87. 93. 87. 93.
 87. 93. 93. 87. 93. 87. 87. 93. 87. 93. 93. 87. 87. 87. 87. 93.]",136.15237571101989,None,s,1,1.320182275408115,136.15237571101989,None,None,None,,,,,,,01_BY,26,M,1,2021_Oct_27_1751,Partial repeat,2021.2.3,120.10215047540554,
1,6,0,1,1,3,3,2,3,0,0,1,0,1,0,0,0,0,0,0,,,,,,,,,,,,,,,,,,,,,,,,,,,,,,,,01_BY,26,M,1,2021_Oct_27_1751,Partial repeat,2021.2.3,120.10215047540554,
4,1,0,1,1,2,3,3,3,1,0,0,1,0,0,0,0,1,1,1,0,0,0,0,,,,,,,137.49290294978618,None,0.7396388034297775,138.7335182562465,None,"[87. 87. 87. 93. 93. 93. 87. 87. 87. 93. 87. 93. 93. 93. 93. 87. 93. 93.
 87. 87. 93. 87. 87. 93. 93. 87. 93. 87. 87. 87. 93. 87. 93. 93.]",139.55779530579275,None,l,1,1.0188057125751584,139.55779530579275,None,None,None,,,,,,,01_BY,26,M,1,2021_Oct_27_1751,Partial repeat,2021.2.3,120.10215047540554,
4,1,0,1,1,2,3,3,3,1,0,0,1,0,0,0,0,1,1,1,1,0,1,0,,,,,,,,,0.784115593270073,140.64851721713785,None,"[93. 93. 87. 93. 93. 87. 93. 87. 93. 93. 93. 93. 87. 93. 93. 87. 93. 87.
 93. 93. 87. 93. 93. 87. 87. 87. 93. 87. 93. 93. 93. 87. 87. 93.]",141.51445227410932,None,s,1,1.4141870014291271,141.51445227410932,None,None,None,,,,,,,01_BY,26,M,1,2021_Oct_27_1751,Partial repeat,2021.2.3,120.10215047540554,
4,1,0,1,1,2,3,3,3,1,0,0,1,0,0,0,0,1,1,1,,,,,,,,,,,,,,,,,,,,,,,,,,,,,,,,01_BY,26,M,1,2021_Oct_27_1751,Partial repeat,2021.2.3,120.10215047540554,
4,4,0,1,1,3,3,2,2,1,0,1,1,0,0,0,0,2,2,2,0,0,0,0,,,,,,,142.94655580271774,None,0.9497214851534537,143.74586088255,None,"[87. 87. 93. 87. 93. 93. 93. 93. 93. 93. 93. 93. 93. 93. 87. 93. 87. 87.
 87. 93. 93. 93. 93. 87. 93. 87. 87. 93. 93. 87. 93. 93. 87. 87.]",144.77832053048405,None,l,1,0.9991024102610027,144.77832053048405,None,None,None,,,,,,,01_BY,26,M,1,2021_Oct_27_1751,Partial repeat,2021.2.3,120.10215047540554,
4,4,0,1,1,3,3,2,2,1,0,1,1,0,0,0,0,2,2,2,1,0,1,0,,,,,,,,,0.897168064689293,145.83574028176554,None,"[93. 87. 87. 93. 87. 87. 93. 93. 93. 87. 87. 93. 87. 87. 87. 87. 93. 87.
 87. 93. 93. 87. 93. 93. 93. 87. 87. 93. 93. 93. 93. 87. 87. 87.]",146.8182277675578,None,s,1,0.9575014896881839,146.8182277675578,None,None,None,,,,,,,01_BY,26,M,1,2021_Oct_27_1751,Partial repeat,2021.2.3,120.10215047540554,
4,4,0,1,1,3,3,2,2,1,0,1,1,0,0,0,0,2,2,2,,,,,,,,,,,,,,,,,,,,,,,,,,,,,,,,01_BY,26,M,1,2021_Oct_27_1751,Partial repeat,2021.2.3,120.10215047540554,
4,6,0,1,1,2,2,3,2,0,1,1,0,0,0,0,0,3,3,3,0,0,0,0,,,,,,,147.7923757623339,None,0.8762692911394495,150.65659725162095,None,"[93. 93. 87. 93. 93. 87. 87. 87. 87. 93. 93. 93. 87. 87. 87. 93. 87. 93.
 87. 87. 93. 93. 93. 87. 93. 87. 87. 87. 93. 93. 87. 93. 87. 93.]",151.61411469197446,None,s,1,1.0576452972391053,151.61411469197446,None,None,None,,,,,,,01_BY,26,M,1,2021_Oct_27_1751,Partial repeat,2021.2.3,120.10215047540554,
4,6,0,1,1,2,2,3,2,0,1,1,0,0,0,0,0,3,3,3,1,0,1,0,,,,,,,,,0.8696177763296673,152.73812561416435,None,"[93. 93. 93. 87. 87. 93. 93. 93. 87. 93. 87. 93. 87. 93. 87. 93. 93. 93.
 93. 87. 87. 87. 87. 87. 87. 87. 93. 87. 87. 93. 87. 93. 87. 93.]",153.6956629387023,None,l,1,0.784103385227354,153.6956629387023,None,None,None,,,,,,,01_BY,26,M,1,2021_Oct_27_1751,Partial repeat,2021.2.3,120.10215047540554,
4,6,0,1,1,2,2,3,2,0,1,1,0,0,0,0,0,3,3,3,,,,,,,,,,,,,,,,,,,,,,,,,,,,,,,,01_BY,26,M,1,2021_Oct_27_1751,Partial repeat,2021.2.3,120.10215047540554,
3,7,0,1,1,2,3,3,3,1,1,0,1,1,0,0,0,4,4,4,0,0,0,0,,,,,,,154.49497122566117,None,0.9724307924341313,155.46913172823042,None,"[87. 93. 87. 93. 93. 93. 87. 93. 87. 87. 87. 87. 87. 93. 87. 87. 87. 93.
 87. 93. 87. 87. 87. 87. 93. 87. 87. 93. 93. 93. 93. 87. 93. 93.]",156.52657040155736,None,l,1,1.1535002145337785,156.52657040155736,None,None,None,,,,,,,01_BY,26,M,1,2021_Oct_27_1751,Partial repeat,2021.2.3,120.10215047540554,
3,7,0,1,1,2,3,3,3,1,1,0,1,1,0,0,0,4,4,4,1,0,1,0,,,,,,,,,0.890086408781826,157.75051891306612,None,"[93. 87. 87. 93. 87. 87. 87. 87. 93. 87. 87. 93. 87. 93. 93. 93. 93. 93.
 93. 93. 87. 93. 93. 87. 93. 87. 93. 87. 87. 87. 93. 93. 93. 93.]",158.71635307383804,None,l,1,0.8034798813514499,158.71635307383804,None,None,None,,,,,,,01_BY,26,M,1,2021_Oct_27_1751,Partial repeat,2021.2.3,120.10215047540554,
3,7,0,1,1,2,3,3,3,1,1,0,1,1,0,0,0,4,4,4,,,,,,,,,,,,,,,,,,,,,,,,,,,,,,,,01_BY,26,M,1,2021_Oct_27_1751,Partial repeat,2021.2.3,120.10215047540554,
8,1,0,1,1,3,3,3,3,1,1,1,1,1,0,0,0,5,5,5,0,0,0,0,,,,,,,159.53232430719618,None,0.884409493200937,160.09016547489864,None,"[93. 87. 93. 93. 87. 93. 93. 93. 87. 87. 93. 93. 87. 87. 93. 93. 93. 87.
 87. 87. 87. 87. 87. 93. 87. 93. 87. 87. 93. 93. 87. 87. 87. 93.]",161.0643400888248,None,l,1,1.0465621095090683,161.0643400888248,None,None,None,,,,,,,01_BY,26,M,1,2021_Oct_27_1751,Partial repeat,2021.2.3,120.10215047540554,
8,1,0,1,1,3,3,3,3,1,1,1,1,1,0,0,0,5,5,5,1,0,1,0,,,,,,,,,0.8264963659243446,162.18004294983803,None,"[87. 93. 87. 93. 93. 93. 87. 93. 93. 87. 93. 87. 87. 87. 87. 93. 87. 93.
 87. 93. 93. 93. 93. 87. 87. 87. 93. 93. 93. 93. 87. 93. 93. 93.]",163.09592675692784,None,l,1,1.448042390813498,163.09592675692784,None,None,None,,,,,,,01_BY,26,M,1,2021_Oct_27_1751,Partial repeat,2021.2.3,120.10215047540554,
8,1,0,1,1,3,3,3,3,1,1,1,1,1,0,0,0,5,5,5,,,,,,,,,,,,,,,,,,,,,,,,,,,,,,,,01_BY,26,M,1,2021_Oct_27_1751,Partial repeat,2021.2.3,120.10215047540554,
6,3,0,1,1,2,3,2,3,1,1,0,0,1,0,0,0,6,6,6,0,0,0,0,,,,,,,164.55300931092916,None,0.880854086481694,165.08588716815848,None,"[87. 87. 93. 93. 87. 93. 87. 87. 93. 93. 87. 87. 93. 93. 87. 87. 93. 93.
 93. 87. 87. 93. 87. 87. 87. 93. 87. 93. 87. 87. 87. 87. 93. 93.]",166.0517213289304,None,l,1,0.9392064366165869,166.0517213289304,None,None,None,,,,,,,01_BY,26,M,1,2021_Oct_27_1751,Partial repeat,2021.2.3,120.10215047540554,
6,3,0,1,1,2,3,2,3,1,1,0,0,1,0,0,0,6,6,6,1,0,1,0,,,,,,,,,0.878201942943718,167.05086695043337,None,"[87. 87. 93. 93. 93. 87. 87. 93. 93. 93. 87. 93. 93. 93. 87. 93. 93. 93.
 93. 87. 87. 87. 87. 93. 93. 93. 87. 87. 87. 87. 93. 93. 87. 93.]",168.00837444869467,None,l,1,1.1425985501637115,168.00837444869467,None,None,None,,,,,,,01_BY,26,M,1,2021_Oct_27_1751,Partial repeat,2021.2.3,120.10215047540554,
6,3,0,1,1,2,3,2,3,1,1,0,0,1,0,0,0,6,6,6,,,,,,,,,,,,,,,,,,,,,,,,,,,,,,,,01_BY,26,M,1,2021_Oct_27_1751,Partial repeat,2021.2.3,120.10215047540554,
4,2,0,1,1,2,2,3,2,0,0,1,0,1,0,0,0,7,7,7,0,0,0,0,,,,,,,169.17403920904508,None,0.7169315801691726,169.82347815433695,None,"[87. 87. 93. 93. 87. 87. 87. 87. 87. 93. 93. 93. 93. 93. 87. 93. 87. 93.
 87. 87. 87. 93. 93. 87. 87. 87. 87. 87. 93. 87. 93. 87. 93. 87.]",170.6227976662376,None,s,1,0.8322035476367091,170.6227976662376,None,None,None,,,,,,,01_BY,26,M,1,2021_Oct_27_1751,Partial repeat,2021.2.3,120.10215047540554,
4,2,0,1,1,2,2,3,2,0,0,1,0,1,0,0,0,7,7,7,1,0,1,0,,,,,,,,,0.7166738630382379,171.52202878973276,None,"[93. 87. 87. 87. 93. 87. 87. 93. 87. 87. 93. 93. 87. 93. 93. 93. 93. 93.
 93. 93. 93. 93. 93. 93. 93. 87. 87. 93. 93. 93. 93. 87. 93. 93.]",172.31301714914662,None,s,1,0.7900038565467185,172.31301714914662,None,None,None,,,,,,,01_BY,26,M,1,2021_Oct_27_1751,Partial repeat,2021.2.3,120.10215047540554,
4,2,0,1,1,2,2,3,2,0,0,1,0,1,0,0,0,7,7,7,,,,,,,,,,,,,,,,,,,,,,,,,,,,,,,,01_BY,26,M,1,2021_Oct_27_1751,Partial repeat,2021.2.3,120.10215047540554,
6,4,0,1,1,2,3,2,2,1,0,0,1,0,0,0,0,8,8,8,0,0,0,0,,,,,,,173.12065274004,None,0.8916264630278667,173.62854611976127,None,"[87. 87. 93. 93. 87. 93. 93. 93. 87. 93. 87. 93. 87. 93. 93. 93. 93. 93.
 93. 87. 87. 93. 87. 87. 87. 93. 93. 93. 93. 93. 87. 93. 87. 93.]",174.60273388290625,None,l,1,0.8843017139297444,174.60273388290625,None,None,None,,,,,,,01_BY,26,M,1,2021_Oct_27_1751,Partial repeat,2021.2.3,120.10215047540554,
6,4,0,1,1,2,3,2,2,1,0,0,1,0,0,0,0,8,8,8,1,0,1,0,,,,,,,,,0.9977721843110046,175.55189515518668,None,"[87. 93. 93. 87. 87. 87. 87. 87. 93. 87. 87. 87. 93. 93. 93. 87. 93. 93.
 87. 93. 87. 87. 93. 87. 93. 87. 93. 93. 87. 87. 87. 87. 93. 93.]",176.6259647036486,None,s,1,1.4201522567045686,176.6259647036486,None,None,None,,,,,,,01_BY,26,M,1,2021_Oct_27_1751,Partial repeat,2021.2.3,120.10215047540554,
6,4,0,1,1,2,3,2,2,1,0,0,1,0,0,0,0,8,8,8,,,,,,,,,,,,,,,,,,,,,,,,,,,,,,,,01_BY,26,M,1,2021_Oct_27_1751,Partial repeat,2021.2.3,120.10215047540554,
2,3,0,1,1,2,3,2,2,0,0,0,1,1,0,0,0,9,9,9,0,0,0,0,,,,,,,178.06640483685987,None,0.7977728692381021,178.6242716615734,None,"[93. 87. 87. 93. 93. 93. 93. 93. 87. 93. 87. 87. 93. 87. 93. 93. 93. 93.
 93. 87. 93. 87. 87. 93. 93. 93. 87. 87. 87. 93. 87. 87. 87. 93.]",179.50684721505968,None,s,1,0.8752534479590395,179.50684721505968,None,None,None,,,,,,,01_BY,26,M,1,2021_Oct_27_1751,Partial repeat,2021.2.3,120.10215047540554,
2,3,0,1,1,2,3,2,2,0,0,0,1,1,0,0,0,9,9,9,1,0,1,0,,,,,,,,,0.7556550236205637,180.4476949740474,None,"[87. 93. 87. 87. 93. 87. 87. 93. 87. 87. 93. 93. 93. 93. 93. 87. 87. 87.
 87. 87. 87. 87. 87. 87. 87. 93. 87. 87. 87. 87. 93. 87. 93. 87.]",181.28031375959836,None,s,1,1.0218239393170734,181.28031375959836,None,None,None,,,,,,,01_BY,26,M,1,2021_Oct_27_1751,Partial repeat,2021.2.3,120.10215047540554,
2,3,0,1,1,2,3,2,2,0,0,0,1,1,0,0,0,9,9,9,,,,,,,,,,,,,,,,,,,,,,,,,,,,,,,,01_BY,26,M,1,2021_Oct_27_1751,Partial repeat,2021.2.3,120.10215047540554,
8,3,0,1,1,3,2,2,3,1,0,0,0,0,0,0,0,10,10,10,0,0,0,0,,,,,,,182.32108916581365,None,0.7978074174996819,182.90391801814985,None,"[93. 87. 87. 93. 93. 87. 93. 93. 87. 87. 87. 93. 87. 93. 87. 93. 87. 87.
 87. 93. 87. 87. 93. 87. 87. 93. 87. 93. 87. 93. 93. 87. 87. 93.]",183.78650030660083,None,l,1,1.1396714058146244,183.78650030660083,None,None,None,,,,,,,01_BY,26,M,1,2021_Oct_27_1751,Partial repeat,2021.2.3,120.10215047540554,
8,3,0,1,1,3,2,2,3,1,0,0,0,0,0,0,0,10,10,10,1,0,1,0,,,,,,,,,0.7494098507310175,184.98547107556715,None,"[93. 87. 87. 87. 93. 87. 87. 93. 87. 87. 93. 87. 93. 93. 93. 87. 87. 87.
 93. 93. 87. 93. 93. 93. 93. 93. 93. 93. 93. 87. 87. 87. 93. 93.]",185.80976480217123,None,s,1,1.0684687077227863,185.80976480217123,None,None,None,,,,,,,01_BY,26,M,1,2021_Oct_27_1751,Partial repeat,2021.2.3,120.10215047540554,
8,3,0,1,1,3,2,2,3,1,0,0,0,0,0,0,0,10,10,10,,,,,,,,,,,,,,,,,,,,,,,,,,,,,,,,01_BY,26,M,1,2021_Oct_27_1751,Partial repeat,2021.2.3,120.10215047540554,
8,6,0,1,1,3,3,2,3,1,0,1,0,0,0,0,0,11,11,11,0,0,0,0,,,,,,,186.9004950520448,None,0.9809093241332074,187.37508883740338,None,"[93. 87. 93. 87. 87. 87. 93. 87. 93. 87. 87. 93. 93. 87. 93. 87. 87. 93.
 93. 93. 87. 87. 93. 87. 93. 87. 93. 87. 93. 93. 87. 93. 87. 87.]",188.432524624317,None,l,1,1.0698070416083283,188.432524624317,None,None,None,,,,,,,01_BY,26,M,1,2021_Oct_27_1751,Partial repeat,2021.2.3,120.10215047540554,
8,6,0,1,1,3,3,2,3,1,0,1,0,0,0,0,0,11,11,11,1,0,1,0,,,,,,,,,0.7977202265181834,189.5648737546726,None,"[87. 93. 93. 93. 93. 87. 93. 93. 93. 93. 87. 87. 87. 87. 87. 93. 87. 87.
 87. 87. 87. 93. 87. 93. 93. 93. 87. 93. 93. 87. 93. 93. 93. 93.]",190.43912617348724,None,s,1,0.8396774352131615,190.43912617348724,None,None,None,,,,,,,01_BY,26,M,1,2021_Oct_27_1751,Partial repeat,2021.2.3,120.10215047540554,
8,6,0,1,1,3,3,2,3,1,0,1,0,0,0,0,0,11,11,11,,,,,,,,,,,,,,,,,,,,,,,,,,,,,,,,01_BY,26,M,1,2021_Oct_27_1751,Partial repeat,2021.2.3,120.10215047540554,
4,3,0,1,1,2,2,3,2,1,0,1,0,0,0,0,0,12,12,12,0,0,0,0,,,,,,,191.30504551553895,None,0.7621649223395885,191.9128588453832,None,"[87. 93. 87. 93. 93. 93. 93. 93. 87. 87. 87. 87. 93. 87. 93. 87. 87. 93.
 93. 87. 93. 93. 93. 93. 87. 87. 93. 93. 93. 93. 93. 93. 93. 87.]",192.76213159738018,None,l,1,0.9312277473300128,192.76213159738018,None,None,None,,,,,,,01_BY,26,M,1,2021_Oct_27_1751,Partial repeat,2021.2.3,120.10215047540554,
4,3,0,1,1,2,2,3,2,1,0,1,0,0,0,0,0,12,12,12,1,0,1,0,,,,,,,,,0.7947453701487603,193.75297332697028,None,"[87. 93. 93. 93. 87. 87. 87. 87. 93. 87. 87. 93. 87. 93. 87. 93. 87. 87.
 93. 87. 93. 87. 87. 93. 93. 87. 93. 93. 87. 93. 87. 87. 93. 87.]",194.62720746516425,None,s,1,0.8100576977867604,194.62720746516425,None,None,None,,,,,,,01_BY,26,M,1,2021_Oct_27_1751,Partial repeat,2021.2.3,120.10215047540554,
4,3,0,1,1,2,2,3,2,1,0,1,0,0,0,0,0,12,12,12,,,,,,,,,,,,,,,,,,,,,,,,,,,,,,,,01_BY,26,M,1,2021_Oct_27_1751,Partial repeat,2021.2.3,120.10215047540554,
3,8,0,1,1,3,3,3,3,0,1,1,1,0,0,0,0,13,13,13,0,0,0,0,,,,,,,195.45148579756096,None,0.7299352578541757,195.9593811015584,None,"[93. 93. 93. 93. 93. 93. 93. 87. 93. 87. 87. 93. 87. 93. 87. 87. 93. 87.
 87. 93. 93. 87. 93. 87. 87. 87. 93. 87. 87. 87. 87. 93. 87. 87.]",196.76702182385452,None,s,1,0.8462975857164565,196.76702182385452,None,None,None,,,,,,,01_BY,26,M,1,2021_Oct_27_1751,Partial repeat,2021.2.3,120.10215047540554,
3,8,0,1,1,3,3,3,3,0,1,1,1,0,0,0,0,13,13,13,1,0,1,0,,,,,,,,,0.9833649685737056,197.68290755522048,None,"[93. 93. 93. 93. 87. 87. 87. 93. 93. 87. 93. 93. 87. 93. 87. 93. 93. 93.
 87. 93. 93. 93. 93. 87. 93. 87. 87. 87. 87. 93. 93. 93. 87. 93.]",198.7486526861603,None,l,1,1.9687059067991868,198.7486526861603,None,None,None,,,,,,,01_BY,26,M,1,2021_Oct_27_1751,Partial repeat,2021.2.3,120.10215047540554,
3,8,0,1,1,3,3,3,3,0,1,1,1,0,0,0,0,13,13,13,,,,,,,,,,,,,,,,,,,,,,,,,,,,,,,,01_BY,26,M,1,2021_Oct_27_1751,Partial repeat,2021.2.3,120.10215047540554,
2,7,0,1,1,2,2,3,3,1,0,1,1,0,0,0,0,14,14,14,0,0,0,0,,,,,,,200.7469423256025,None,0.9762059018593501,201.4546688706041,None,"[93. 93. 87. 87. 93. 87. 87. 87. 93. 87. 93. 87. 87. 93. 93. 93. 87. 87.
 93. 87. 87. 93. 87. 93. 93. 87. 87. 87. 87. 93. 93. 87. 93. 87.]",202.52042009508477,None,l,1,1.0129818915793294,202.52042009508477,None,None,None,,,,,,,01_BY,26,M,1,2021_Oct_27_1751,Partial repeat,2021.2.3,120.10215047540554,
2,7,0,1,1,2,2,3,3,1,0,1,1,0,0,0,0,14,14,14,1,0,1,0,,,,,,,,,0.7555086912168364,203.59449830278845,None,"[93. 93. 87. 87. 93. 87. 93. 87. 87. 93. 93. 93. 93. 87. 93. 93. 93. 93.
 93. 93. 87. 87. 87. 93. 93. 93. 93. 87. 93. 87. 87. 93. 93. 93.]",204.43544535441288,None,s,1,1.0659527169900684,204.43544535441288,None,None,None,,,,,,,01_BY,26,M,1,2021_Oct_27_1751,Partial repeat,2021.2.3,120.10215047540554,
2,7,0,1,1,2,2,3,3,1,0,1,1,0,0,0,0,14,14,14,,,,,,,,,,,,,,,,,,,,,,,,,,,,,,,,01_BY,26,M,1,2021_Oct_27_1751,Partial repeat,2021.2.3,120.10215047540554,
7,5,0,1,1,3,2,2,2,0,1,0,1,0,0,0,0,15,15,15,0,0,0,0,,,,,,,205.5095219585537,None,0.8627643297521042,206.12566002663152,None,"[87. 93. 87. 87. 87. 93. 87. 87. 87. 87. 93. 87. 93. 93. 93. 87. 87. 87.
 93. 93. 93. 87. 87. 87. 87. 87. 93. 93. 93. 93. 87. 93. 93. 93.]",207.07485369088954,None,s,1,1.5616285483420143,207.07485369088954,None,None,None,,,,,,,01_BY,26,M,1,2021_Oct_27_1751,Partial repeat,2021.2.3,120.10215047540554,
7,5,0,1,1,3,2,2,2,0,1,0,1,0,0,0,0,15,15,15,1,0,1,0,,,,,,,,,0.915991935403042,208.7151032566444,None,"[87. 87. 87. 87. 93. 87. 87. 93. 93. 93. 87. 93. 87. 87. 87. 93. 87. 93.
 93. 93. 87. 93. 93. 93. 87. 93. 93. 93. 93. 87. 93. 93. 93. 87.]",209.70592125349867,None,l,1,0.8185758257477573,209.70592125349867,None,None,None,,,,,,,01_BY,26,M,1,2021_Oct_27_1751,Partial repeat,2021.2.3,120.10215047540554,
7,5,0,1,1,3,2,2,2,0,1,0,1,0,0,0,0,15,15,15,,,,,,,,,,,,,,,,,,,,,,,,,,,,,,,,01_BY,26,M,1,2021_Oct_27_1751,Partial repeat,2021.2.3,120.10215047540554,
1,7,0,1,1,2,2,3,3,1,1,1,1,1,0,0,0,16,16,16,0,0,0,0,,,,,,,210.5551917605071,None,0.966637468664322,211.0547645712586,None,"[87. 93. 87. 93. 93. 87. 93. 93. 93. 93. 93. 93. 87. 93. 93. 87. 93. 87.
 93. 93. 87. 87. 87. 87. 87. 93. 87. 93. 87. 93. 87. 87. 93. 93.]",212.10386439499507,None,l,1,1.0286772479166757,212.10386439499507,None,None,None,,,,,,,01_BY,26,M,1,2021_Oct_27_1751,Partial repeat,2021.2.3,120.10215047540554,
1,7,0,1,1,2,2,3,3,1,1,1,1,1,0,0,0,16,16,16,1,0,1,0,,,,,,,,,0.922871083245329,213.20291777953935,None,"[93. 93. 87. 93. 87. 87. 93. 87. 87. 87. 87. 87. 93. 93. 93. 87. 87. 87.
 87. 87. 87. 93. 93. 87. 87. 93. 93. 87. 87. 93. 93. 93. 93. 87.]",214.2103884599892,None,l,1,0.8741684770666325,214.2103884599892,None,None,None,,,,,,,01_BY,26,M,1,2021_Oct_27_1751,Partial repeat,2021.2.3,120.10215047540554,
1,7,0,1,1,2,2,3,3,1,1,1,1,1,0,0,0,16,16,16,,,,,,,,,,,,,,,,,,,,,,,,,,,,,,,,01_BY,26,M,1,2021_Oct_27_1751,Partial repeat,2021.2.3,120.10215047540554,
5,1,0,1,1,3,3,2,3,1,1,1,0,1,0,0,0,17,17,17,0,0,0,0,,,,,,,215.10128843099665,None,0.8973926003287512,215.7257528408727,None,"[87. 87. 93. 87. 87. 93. 87. 87. 93. 87. 87. 93. 93. 87. 93. 87. 87. 87.
 93. 87. 87. 87. 93. 93. 93. 87. 93. 87. 87. 87. 93. 87. 93. 93.]",216.69991975769517,None,l,1,0.9606749413505895,216.69991975769517,None,None,None,,,,,,,01_BY,26,M,1,2021_Oct_27_1751,Partial repeat,2021.2.3,120.10215047540554,
5,1,0,1,1,3,3,2,3,1,1,1,0,1,0,0,0,17,17,17,1,0,1,0,,,,,,,,,0.8937201675139674,217.7323595214457,None,"[87. 87. 93. 87. 87. 87. 87. 87. 93. 93. 93. 93. 93. 87. 93. 87. 93. 93.
 87. 87. 87. 93. 93. 87. 93. 87. 87. 87. 87. 87. 87. 87. 87. 93.]",218.71485406291595,None,l,1,0.9457634067284744,218.71485406291595,None,None,None,,,,,,,01_BY,26,M,1,2021_Oct_27_1751,Partial repeat,2021.2.3,120.10215047540554,
5,1,0,1,1,3,3,2,3,1,1,1,0,1,0,0,0,17,17,17,,,,,,,,,,,,,,,,,,,,,,,,,,,,,,,,01_BY,26,M,1,2021_Oct_27_1751,Partial repeat,2021.2.3,120.10215047540554,
1,8,0,1,1,3,3,3,2,0,1,1,0,0,0,0,0,18,18,18,0,0,0,0,,,,,,,219.6890177726118,None,0.7161049570204651,220.22189530912874,None,"[87. 93. 87. 87. 87. 87. 93. 93. 87. 93. 93. 93. 87. 87. 87. 93. 93. 87.
 93. 93. 87. 93. 93. 93. 93. 87. 87. 87. 93. 93. 87. 93. 93. 87.]",221.01288270640453,None,s,1,1.6711528801697568,221.01288270640453,None,None,None,,,,,,,01_BY,26,M,1,2021_Oct_27_1751,Partial repeat,2021.2.3,120.10215047540554,
1,8,0,1,1,3,3,3,2,0,1,1,0,0,0,0,0,18,18,18,1,0,1,0,,,,,,,,,0.9171824511580546,222.75305927796035,None,"[87. 87. 93. 87. 87. 93. 87. 87. 87. 87. 93. 93. 87. 93. 87. 87. 87. 93.
 87. 93. 93. 87. 93. 93. 93. 93. 87. 93. 93. 87. 93. 93. 87. 93.]",223.7521984852101,None,l,1,1.0435342613891407,223.7521984852101,None,None,None,,,,,,,01_BY,26,M,1,2021_Oct_27_1751,Partial repeat,2021.2.3,120.10215047540554,
1,8,0,1,1,3,3,3,2,0,1,1,0,0,0,0,0,18,18,18,,,,,,,,,,,,,,,,,,,,,,,,,,,,,,,,01_BY,26,M,1,2021_Oct_27_1751,Partial repeat,2021.2.3,120.10215047540554,
8,5,0,1,1,3,2,3,3,1,1,0,1,1,0,0,0,19,19,19,0,0,0,0,,,,,,,224.8179622174839,None,0.8937738576603731,225.36747223269867,None,"[87. 87. 93. 93. 87. 93. 87. 87. 93. 87. 93. 87. 87. 87. 87. 93. 93. 87.
 93. 93. 93. 87. 87. 87. 93. 93. 93. 87. 87. 93. 87. 87. 87. 93.]",226.349960680629,None,l,1,0.8777755322316807,226.349960680629,None,None,None,,,,,,,01_BY,26,M,1,2021_Oct_27_1751,Partial repeat,2021.2.3,120.10215047540554,
8,5,0,1,1,3,2,3,3,1,1,0,1,1,0,0,0,19,19,19,1,0,1,0,,,,,,,,,0.8933163915625042,227.2908238338241,None,"[87. 93. 87. 93. 87. 87. 87. 87. 93. 87. 87. 93. 93. 93. 93. 93. 93. 87.
 93. 87. 87. 93. 87. 87. 93. 87. 87. 93. 93. 87. 93. 87. 93. 93.]",228.2733241481228,None,l,1,0.8118152031038335,228.2733241481228,None,None,None,,,,,,,01_BY,26,M,1,2021_Oct_27_1751,Partial repeat,2021.2.3,120.10215047540554,
8,5,0,1,1,3,2,3,3,1,1,0,1,1,0,0,0,19,19,19,,,,,,,,,,,,,,,,,,,,,,,,,,,,,,,,01_BY,26,M,1,2021_Oct_27_1751,Partial repeat,2021.2.3,120.10215047540554,
4,7,0,1,1,3,3,2,2,1,1,1,1,1,0,0,0,20,20,20,0,0,0,0,,,,,,,229.1059345951453,None,0.9298346565143141,229.672111726024,None,"[93. 87. 87. 87. 87. 87. 87. 93. 87. 93. 93. 93. 87. 87. 93. 87. 87. 93.
 93. 93. 87. 93. 87. 93. 93. 93. 87. 87. 93. 87. 93. 93. 93. 87.]",230.68791067254733,None,l,1,0.7798536219133894,230.68791067254733,None,None,None,,,,,,,01_BY,26,M,1,2021_Oct_27_1751,Partial repeat,2021.2.3,120.10215047540554,
4,7,0,1,1,3,3,2,2,1,1,1,1,1,0,0,0,20,20,20,1,0,1,0,,,,,,,,,0.7254766011522374,231.52885547918322,None,"[93. 93. 87. 87. 93. 87. 87. 87. 93. 87. 93. 93. 87. 93. 87. 93. 87. 93.
 87. 93. 93. 93. 87. 93. 93. 93. 93. 93. 87. 87. 87. 87. 87. 93.]",232.34482446755283,None,l,1,0.8189930729040498,232.34482446755283,None,None,None,,,,,,,01_BY,26,M,1,2021_Oct_27_1751,Partial repeat,2021.2.3,120.10215047540554,
4,7,0,1,1,3,3,2,2,1,1,1,1,1,0,0,0,20,20,20,,,,,,,,,,,,,,,,,,,,,,,,,,,,,,,,01_BY,26,M,1,2021_Oct_27_1751,Partial repeat,2021.2.3,120.10215047540554,
1,4,0,1,1,3,2,3,2,0,0,0,0,1,0,0,0,21,21,21,0,0,0,0,,,,,,,233.1857769712924,None,0.833332082967645,233.75194319794082,None,"[93. 87. 93. 93. 93. 87. 87. 93. 93. 87. 87. 93. 93. 93. 87. 87. 87. 93.
 93. 93. 93. 93. 87. 87. 87. 93. 93. 87. 93. 93. 87. 87. 93. 93.]",234.66782957073247,None,s,1,0.7519865791146003,234.66782957073247,None,None,None,,,,,,,01_BY,26,M,1,2021_Oct_27_1751,Partial repeat,2021.2.3,120.10215047540554,
1,4,0,1,1,3,2,3,2,0,0,0,0,1,0,0,0,21,21,21,1,0,1,0,,,,,,,,,0.8944808806421571,235.49212201448609,None,"[93. 93. 93. 87. 93. 93. 87. 87. 87. 93. 93. 93. 93. 93. 93. 93. 93. 93.
 93. 87. 93. 87. 93. 93. 87. 87. 87. 87. 87. 93. 93. 87. 87. 87.]",236.46629149700948,None,s,1,1.8327234228408997,236.46629149700948,None,None,None,,,,,,,01_BY,26,M,1,2021_Oct_27_1751,Partial repeat,2021.2.3,120.10215047540554,
1,4,0,1,1,3,2,3,2,0,0,0,0,1,0,0,0,21,21,21,,,,,,,,,,,,,,,,,,,,,,,,,,,,,,,,01_BY,26,M,1,2021_Oct_27_1751,Partial repeat,2021.2.3,120.10215047540554,
7,3,0,1,1,3,3,3,3,0,0,1,1,1,0,0,0,22,22,22,0,0,0,0,,,,,,,238.3313516498738,None,0.903235083649806,238.7809664098395,None,"[87. 93. 93. 87. 93. 87. 93. 93. 87. 93. 93. 93. 93. 93. 93. 93. 87. 93.
 87. 87. 87. 87. 87. 87. 93. 93. 93. 87. 87. 87. 93. 93. 93. 87.]",239.77178408598138,None,s,1,0.8953223626931504,239.77178408598138,None,None,None,,,,,,,01_BY,26,M,1,2021_Oct_27_1751,Partial repeat,2021.2.3,120.10215047540554,
7,3,0,1,1,3,3,3,3,0,0,1,1,1,0,0,0,22,22,22,1,0,1,0,,,,,,,,,0.8099168389879451,240.73761536034,None,"[87. 87. 93. 93. 87. 87. 93. 93. 87. 93. 93. 87. 87. 93. 93. 93. 93. 93.
 93. 87. 87. 87. 87. 93. 87. 93. 93. 87. 87. 87. 87. 93. 93. 93.]",241.63685065309892,None,s,1,1.078051280967884,241.63685065309892,None,None,None,,,,,,,01_BY,26,M,1,2021_Oct_27_1751,Partial repeat,2021.2.3,120.10215047540554,
7,3,0,1,1,3,3,3,3,0,0,1,1,1,0,0,0,22,22,22,,,,,,,,,,,,,,,,,,,,,,,,,,,,,,,,01_BY,26,M,1,2021_Oct_27_1751,Partial repeat,2021.2.3,120.10215047540554,
8,8,0,1,1,2,3,3,3,0,0,0,1,1,0,0,0,23,23,23,0,0,0,0,,,,,,,242.73590467906888,None,0.8043233548177703,243.61015357004453,None,"[87. 93. 87. 93. 93. 87. 93. 87. 87. 93. 87. 87. 87. 93. 87. 87. 93. 93.
 93. 93. 87. 87. 87. 87. 93. 87. 93. 87. 87. 93. 87. 87. 87. 93.]",244.5010567481786,None,s,1,1.1738802205381944,244.5010567481786,None,None,None,,,,,,,01_BY,26,M,1,2021_Oct_27_1751,Partial repeat,2021.2.3,120.10215047540554,
8,8,0,1,1,2,3,3,3,0,0,0,1,1,0,0,0,23,23,23,1,0,1,0,,,,,,,,,0.8943243489114625,245.7416653196733,None,"[93. 87. 87. 87. 87. 93. 87. 87. 87. 87. 87. 87. 87. 93. 87. 93. 87. 87.
 87. 87. 93. 93. 87. 93. 87. 87. 87. 87. 87. 93. 93. 93. 87. 93.]",246.71583287792146,None,s,1,0.6551355283318117,246.71583287792146,None,None,None,,,,,,,01_BY,26,M,1,2021_Oct_27_1751,Partial repeat,2021.2.3,120.10215047540554,
8,8,0,1,1,2,3,3,3,0,0,0,1,1,0,0,0,23,23,23,,,,,,,,,,,,,,,,,,,,,,,,,,,,,,,,01_BY,26,M,1,2021_Oct_27_1751,Partial repeat,2021.2.3,120.10215047540554,
2,8,0,1,1,3,2,2,2,1,1,0,1,1,0,0,0,24,24,24,0,0,0,0,,,,,,,247.3902405858007,None,0.9554181879556807,247.96475047272997,None,"[87. 93. 87. 87. 87. 87. 87. 93. 87. 87. 93. 93. 93. 87. 93. 87. 93. 93.
 93. 87. 87. 93. 93. 93. 93. 93. 87. 93. 87. 87. 87. 93. 87. 93.]",248.9971969714461,None,l,1,1.38180496595578,248.9971969714461,None,None,None,,,,,,,01_BY,26,M,1,2021_Oct_27_1751,Partial repeat,2021.2.3,120.10215047540554,
2,8,0,1,1,3,2,2,2,1,1,0,1,1,0,0,0,24,24,24,1,0,1,0,,,,,,,,,0.9412533026345931,250.44595382507578,None,"[93. 87. 93. 87. 87. 93. 87. 87. 93. 93. 87. 93. 87. 93. 87. 87. 93. 93.
 87. 93. 87. 87. 93. 93. 93. 93. 87. 87. 93. 87. 93. 93. 87. 87.]",251.47008488622396,None,l,1,1.484943908938476,251.47008488622396,None,None,None,,,,,,,01_BY,26,M,1,2021_Oct_27_1751,Partial repeat,2021.2.3,120.10215047540554,
2,8,0,1,1,3,2,2,2,1,1,0,1,1,0,0,0,24,24,24,,,,,,,,,,,,,,,,,,,,,,,,,,,,,,,,01_BY,26,M,1,2021_Oct_27_1751,Partial repeat,2021.2.3,120.10215047540554,
6,7,0,1,1,3,2,3,3,0,0,0,1,1,0,0,0,25,25,25,0,0,0,0,,,,,,,252.98544573926847,None,0.8130332681870349,253.493344571104,None,"[93. 93. 87. 87. 93. 93. 87. 87. 87. 93. 93. 93. 87. 93. 93. 93. 93. 93.
 87. 87. 87. 87. 87. 87. 87. 93. 93. 93. 87. 93. 87. 87. 87. 93.]",254.38424357997428,None,s,1,1.1458634049322427,254.38424357997428,None,None,None,,,,,,,01_BY,26,M,1,2021_Oct_27_1751,Partial repeat,2021.2.3,120.10215047540554,
6,7,0,1,1,3,2,3,3,0,0,0,1,1,0,0,0,25,25,25,1,0,1,0,,,,,,,,,0.9702861473526205,255.59153203149617,None,"[87. 93. 87. 93. 93. 93. 87. 93. 87. 93. 87. 93. 87. 87. 87. 87. 87. 87.
 93. 87. 93. 93. 87. 87. 93. 93. 87. 93. 93. 87. 93. 93. 93. 87.]",256.6406411558992,None,s,1,0.9694441873170945,256.6406411558992,None,None,None,,,,,,,01_BY,26,M,1,2021_Oct_27_1751,Partial repeat,2021.2.3,120.10215047540554,
6,7,0,1,1,3,2,3,3,0,0,0,1,1,0,0,0,25,25,25,,,,,,,,,,,,,,,,,,,,,,,,,,,,,,,,01_BY,26,M,1,2021_Oct_27_1751,Partial repeat,2021.2.3,120.10215047540554,
2,1,0,1,1,3,2,3,3,1,0,0,1,0,0,0,0,26,26,26,0,0,0,0,,,,,,,257.63145209707545,None,0.8507151174600833,258.1643261057525,None,"[87. 93. 87. 87. 93. 87. 93. 87. 87. 93. 93. 93. 87. 87. 93. 93. 93. 87.
 87. 87. 93. 93. 93. 87. 93. 87. 93. 93. 87. 93. 93. 93. 93. 87.]",259.10519054179895,None,l,1,1.2249543513426033,259.10519054179895,None,None,None,,,,,,,01_BY,26,M,1,2021_Oct_27_1751,Partial repeat,2021.2.3,120.10215047540554,
2,1,0,1,1,3,2,3,3,1,0,0,1,0,0,0,0,26,26,26,1,0,1,0,,,,,,,,,0.8045312763352626,260.39574305272254,None,"[93. 87. 93. 87. 93. 87. 87. 87. 93. 87. 87. 87. 87. 87. 87. 87. 93. 87.
 87. 93. 87. 93. 87. 93. 93. 87. 93. 87. 87. 93. 93. 87. 87. 87.]",261.28664398586807,None,s,1,0.8672712308343762,261.28664398586807,None,None,None,,,,,,,01_BY,26,M,1,2021_Oct_27_1751,Partial repeat,2021.2.3,120.10215047540554,
2,1,0,1,1,3,2,3,3,1,0,0,1,0,0,0,0,26,26,26,,,,,,,,,,,,,,,,,,,,,,,,,,,,,,,,01_BY,26,M,1,2021_Oct_27_1751,Partial repeat,2021.2.3,120.10215047540554,
2,6,0,1,1,3,3,2,2,0,0,1,1,1,0,0,0,27,27,27,0,0,0,0,,,,,,,262.177545239726,None,0.9005410789320412,262.6937745826244,None,"[93. 87. 87. 87. 87. 87. 87. 93. 93. 87. 87. 93. 87. 87. 87. 87. 93. 87.
 87. 87. 87. 93. 87. 87. 87. 87. 93. 93. 87. 93. 93. 93. 87. 93.]",263.68459450375485,None,s,1,0.805576379939339,263.68459450375485,None,None,None,,,,,,,01_BY,26,M,1,2021_Oct_27_1751,Partial repeat,2021.2.3,120.10215047540554,
2,6,0,1,1,3,3,2,2,0,0,1,1,1,0,0,0,27,27,27,1,0,1,0,,,,,,,,,0.7944407040761118,264.55051063867995,None,"[87. 87. 87. 93. 93. 87. 87. 93. 87. 93. 93. 87. 87. 93. 93. 93. 93. 93.
 93. 93. 87. 93. 93. 87. 87. 87. 93. 87. 93. 93. 93. 93. 93. 93.]",265.4247691510345,None,s,1,1.0174648129896013,265.4247691510345,None,None,None,,,,,,,01_BY,26,M,1,2021_Oct_27_1751,Partial repeat,2021.2.3,120.10215047540554,
2,6,0,1,1,3,3,2,2,0,0,1,1,1,0,0,0,27,27,27,,,,,,,,,,,,,,,,,,,,,,,,,,,,,,,,01_BY,26,M,1,2021_Oct_27_1751,Partial repeat,2021.2.3,120.10215047540554,
8,7,0,1,1,2,3,3,2,0,0,0,0,1,0,0,0,28,28,28,0,0,0,0,,,,,,,266.4572150083259,None,0.7808556769085232,266.98175658166474,None,"[87. 87. 87. 87. 93. 93. 93. 87. 93. 93. 87. 87. 87. 87. 87. 87. 93. 93.
 87. 87. 93. 87. 87. 93. 93. 87. 87. 87. 93. 87. 93. 87. 93. 93.]",267.83935984472373,None,s,1,1.130868485020983,267.83935984472373,None,None,None,,,,,,,01_BY,26,M,1,2021_Oct_27_1751,Partial repeat,2021.2.3,120.10215047540554,
8,7,0,1,1,2,3,3,2,0,0,0,0,1,0,0,0,28,28,28,1,0,1,0,,,,,,,,,0.9488732881634422,269.0383293308396,None,"[87. 93. 93. 93. 87. 93. 87. 93. 87. 87. 93. 87. 87. 93. 93. 93. 87. 87.
 87. 87. 87. 87. 93. 93. 87. 87. 87. 93. 93. 93. 87. 87. 87. 93.]",270.0624526948841,None,s,1,0.9549277706782959,270.0624526948841,None,None,None,,,,,,,01_BY,26,M,1,2021_Oct_27_1751,Partial repeat,2021.2.3,120.10215047540554,
8,7,0,1,1,2,3,3,2,0,0,0,0,1,0,0,0,28,28,28,,,,,,,,,,,,,,,,,,,,,,,,,,,,,,,,01_BY,26,M,1,2021_Oct_27_1751,Partial repeat,2021.2.3,120.10215047540554,
1,1,0,1,1,2,3,3,2,1,0,0,0,0,0,0,0,29,29,29,0,0,0,0,,,,,,,271.0366083867639,None,0.8456678416565686,271.54450882216315,None,"[93. 87. 87. 93. 87. 93. 87. 93. 93. 93. 87. 93. 93. 93. 93. 93. 87. 87.
 93. 87. 93. 93. 93. 87. 87. 93. 93. 93. 93. 93. 93. 93. 87. 93.]",272.46872025390167,None,l,1,1.7965925772114133,272.46872025390167,None,None,None,,,,,,,01_BY,26,M,1,2021_Oct_27_1751,Partial repeat,2021.2.3,120.10215047540554,
1,1,0,1,1,2,3,3,2,1,0,0,0,0,0,0,0,29,29,29,1,0,1,0,,,,,,,,,0.7646939548508731,274.32545406496865,None,"[93. 93. 93. 87. 87. 93. 87. 93. 93. 93. 93. 93. 93. 93. 93. 93. 87. 87.
 93. 87. 93. 93. 93. 87. 93. 87. 93. 93. 87. 87. 87. 87. 87. 93.]",275.1747313069427,None,s,1,0.7865940396604856,275.1747313069427,None,None,None,,,,,,,01_BY,26,M,1,2021_Oct_27_1751,Partial repeat,2021.2.3,120.10215047540554,
1,1,0,1,1,2,3,3,2,1,0,0,0,0,0,0,0,29,29,29,,,,,,,,,,,,,,,,,,,,,,,,,,,,,,,,01_BY,26,M,1,2021_Oct_27_1751,Partial repeat,2021.2.3,120.10215047540554,
7,8,0,1,1,2,3,3,3,0,1,0,1,0,0,0,0,30,30,30,0,0,0,0,,,,,,,275.98237138781315,None,0.7353466675872616,276.4569600417699,None,"[87. 87. 87. 93. 87. 87. 93. 87. 93. 87. 93. 93. 87. 93. 93. 87. 93. 93.
 87. 93. 87. 93. 87. 93. 93. 93. 93. 87. 87. 87. 93. 87. 87. 93.]",277.28125761692536,None,s,1,1.480095695820637,277.28125761692536,None,None,None,,,,,,,01_BY,26,M,1,2021_Oct_27_1751,Partial repeat,2021.2.3,120.10215047540554,
7,8,0,1,1,2,3,3,3,0,1,0,1,0,0,0,0,30,30,30,1,0,1,0,,,,,,,,,0.9774850819593501,278.82159236396,None,"[93. 93. 87. 87. 87. 93. 93. 93. 93. 93. 87. 93. 87. 87. 87. 87. 87. 93.
 87. 87. 87. 93. 87. 93. 93. 93. 93. 93. 87. 93. 87. 93. 93. 87.]",279.87903135800025,None,l,1,1.3943566969064705,279.87903135800025,None,None,None,,,,,,,01_BY,26,M,1,2021_Oct_27_1751,Partial repeat,2021.2.3,120.10215047540554,
7,8,0,1,1,2,3,3,3,0,1,0,1,0,0,0,0,30,30,30,,,,,,,,,,,,,,,,,,,,,,,,,,,,,,,,01_BY,26,M,1,2021_Oct_27_1751,Partial repeat,2021.2.3,120.10215047540554,
5,5,0,1,1,3,3,3,3,1,0,1,1,0,0,0,0,31,31,31,0,0,0,0,,,,,,,281.2944757887608,None,0.925895738299937,282.06879863607264,None,"[87. 93. 87. 87. 87. 93. 87. 93. 87. 93. 87. 87. 93. 87. 87. 87. 87. 93.
 93. 87. 87. 93. 87. 93. 87. 93. 93. 87. 87. 87. 93. 87. 87. 87.]",283.07628054146517,None,l,1,1.5415282037683937,283.07628054146517,None,None,None,,,,,,,01_BY,26,M,1,2021_Oct_27_1751,Partial repeat,2021.2.3,120.10215047540554,
5,5,0,1,1,3,3,3,3,1,0,1,1,0,0,0,0,31,31,31,1,0,1,0,,,,,,,,,0.9143984669936858,284.6749176409912,None,"[87. 93. 87. 93. 93. 93. 87. 87. 87. 87. 93. 93. 93. 93. 93. 87. 87. 87.
 87. 87. 93. 93. 93. 93. 87. 87. 87. 93. 87. 87. 87. 87. 87. 93.]",285.6740523582639,None,s,1,1.071502328672068,285.6740523582639,None,None,None,,,,,,,01_BY,26,M,1,2021_Oct_27_1751,Partial repeat,2021.2.3,120.10215047540554,
5,5,0,1,1,3,3,3,3,1,0,1,1,0,0,0,0,31,31,31,,,,,,,,,,,,,,,,,,,,,,,,,,,,,,,,01_BY,26,M,1,2021_Oct_27_1751,Partial repeat,2021.2.3,120.10215047540554,
5,3,0,1,1,2,2,2,3,0,0,1,0,1,0,0,0,32,32,32,0,0,0,0,,,,,,,286.764781325287,None,0.9167048784890239,287.32264045289776,None,"[87. 93. 87. 87. 87. 93. 93. 87. 93. 87. 87. 87. 93. 93. 93. 93. 93. 87.
 93. 93. 93. 87. 87. 93. 93. 93. 87. 87. 93. 93. 93. 87. 93. 87.]",288.3134536390626,None,s,1,1.3110727533212412,288.3134536390626,None,None,None,,,,,,,01_BY,26,M,1,2021_Oct_27_1751,Partial repeat,2021.2.3,120.10215047540554,
5,3,0,1,1,2,2,2,3,0,0,1,0,1,0,0,0,32,32,32,1,0,1,0,,,,,,,,,0.7632168858543011,289.6956023240118,None,"[93. 87. 87. 87. 93. 93. 93. 87. 87. 87. 93. 93. 87. 93. 93. 87. 87. 93.
 93. 87. 87. 93. 93. 87. 87. 93. 93. 93. 87. 87. 93. 93. 87. 87.]",290.53654873421146,None,s,1,1.5199743894690982,290.53654873421146,None,None,None,,,,,,,01_BY,26,M,1,2021_Oct_27_1751,Partial repeat,2021.2.3,120.10215047540554,
5,3,0,1,1,2,2,2,3,0,0,1,0,1,0,0,0,32,32,32,,,,,,,,,,,,,,,,,,,,,,,,,,,,,,,,01_BY,26,M,1,2021_Oct_27_1751,Partial repeat,2021.2.3,120.10215047540554,
5,8,0,1,1,2,2,3,3,0,1,1,1,0,0,0,0,33,33,33,0,0,0,0,,,,,,,292.08522361368705,None,0.7458405438197371,292.5847903308986,None,"[87. 87. 93. 87. 93. 93. 87. 87. 93. 93. 93. 87. 93. 93. 93. 87. 93. 93.
 87. 87. 93. 87. 93. 93. 93. 87. 93. 93. 93. 93. 93. 87. 87. 87.]",293.40908181251416,None,s,1,1.0474694055947111,293.40908181251416,None,None,None,,,,,,,01_BY,26,M,1,2021_Oct_27_1751,Partial repeat,2021.2.3,120.10215047540554,
5,8,0,1,1,2,2,3,3,0,1,1,1,0,0,0,0,33,33,33,1,0,1,0,,,,,,,,,0.8724111153330192,294.51647949876406,None,"[93. 93. 87. 93. 87. 93. 87. 93. 87. 87. 93. 93. 87. 87. 87. 87. 93. 93.
 93. 87. 87. 93. 93. 93. 93. 93. 87. 87. 87. 93. 87. 93. 87. 87.]",295.4739748099455,None,l,1,1.0307775950559517,295.4739748099455,None,None,None,,,,,,,01_BY,26,M,1,2021_Oct_27_1751,Partial repeat,2021.2.3,120.10215047540554,
5,8,0,1,1,2,2,3,3,0,1,1,1,0,0,0,0,33,33,33,,,,,,,,,,,,,,,,,,,,,,,,,,,,,,,,01_BY,26,M,1,2021_Oct_27_1751,Partial repeat,2021.2.3,120.10215047540554,
3,3,0,1,1,3,2,3,3,0,1,0,1,0,0,0,0,34,34,34,0,0,0,0,,,,,,,296.5230733508315,None,0.8627112789185208,297.0476248662626,None,"[87. 93. 87. 93. 93. 93. 93. 87. 93. 87. 87. 93. 87. 87. 93. 87. 93. 93.
 87. 87. 93. 87. 87. 87. 93. 93. 93. 87. 87. 87. 87. 87. 93. 93.]",297.9884947544233,None,s,1,1.0755365730856283,297.9884947544233,None,None,None,,,,,,,01_BY,26,M,1,2021_Oct_27_1751,Partial repeat,2021.2.3,120.10215047540554,
3,3,0,1,1,3,2,3,3,0,1,0,1,0,0,0,0,34,34,34,1,0,1,0,,,,,,,,,0.8686418936933787,299.1375010583515,None,"[87. 93. 87. 93. 87. 87. 93. 93. 87. 87. 87. 87. 93. 87. 87. 93. 93. 93.
 87. 87. 87. 93. 87. 87. 87. 87. 93. 87. 93. 93. 93. 93. 87. 93.]",300.0866857426545,None,l,1,0.9779591081523904,300.0866857426545,None,None,None,,,,,,,01_BY,26,M,1,2021_Oct_27_1751,Partial repeat,2021.2.3,120.10215047540554,
3,3,0,1,1,3,2,3,3,0,1,0,1,0,0,0,0,34,34,34,,,,,,,,,,,,,,,,,,,,,,,,,,,,,,,,01_BY,26,M,1,2021_Oct_27_1751,Partial repeat,2021.2.3,120.10215047540554,
8,2,0,1,1,2,3,2,2,1,1,0,1,1,0,0,0,35,35,35,0,0,0,0,,,,,,,301.08584226838775,None,0.79923750271609,301.6519998357953,None,"[87. 87. 93. 87. 87. 87. 87. 87. 87. 93. 87. 87. 87. 93. 87. 87. 87. 93.
 87. 93. 87. 87. 93. 87. 93. 87. 93. 93. 93. 87. 93. 87. 93. 87.]",302.5262516131843,None,l,1,1.6894110512866973,302.5262516131843,None,None,None,,,,,,,01_BY,26,M,1,2021_Oct_27_1751,Partial repeat,2021.2.3,120.10215047540554,
8,2,0,1,1,2,3,2,2,1,1,0,1,1,0,0,0,35,35,35,1,0,1,0,,,,,,,,,0.7451812910545269,304.28307413337006,None,"[93. 87. 87. 87. 87. 93. 93. 93. 93. 87. 93. 87. 93. 93. 87. 87. 87. 93.
 93. 87. 93. 93. 87. 93. 93. 93. 87. 93. 87. 87. 93. 93. 93. 93.]",305.1073874234453,None,l,1,1.4763193043772844,305.1073874234453,None,None,None,,,,,,,01_BY,26,M,1,2021_Oct_27_1751,Partial repeat,2021.2.3,120.10215047540554,
8,2,0,1,1,2,3,2,2,1,1,0,1,1,0,0,0,35,35,35,,,,,,,,,,,,,,,,,,,,,,,,,,,,,,,,01_BY,26,M,1,2021_Oct_27_1751,Partial repeat,2021.2.3,120.10215047540554,
1,3,0,1,1,2,2,2,2,1,1,1,1,1,0,0,0,36,36,36,0,0,0,0,,,,,,,306.59776059185606,None,0.8812840271602022,307.1556168330526,None,"[93. 93. 93. 93. 93. 87. 87. 93. 87. 93. 93. 87. 87. 93. 93. 93. 87. 87.
 93. 87. 93. 93. 93. 93. 93. 93. 93. 87. 87. 93. 93. 87. 87. 87.]",308.11312625559003,None,l,1,1.4142649346031249,308.11312625559003,None,None,None,,,,,,,01_BY,26,M,1,2021_Oct_27_1751,Partial repeat,2021.2.3,120.10215047540554,
1,3,0,1,1,2,2,2,2,1,1,1,1,1,0,0,0,36,36,36,1,0,1,0,,,,,,,,,0.7757895500371794,309.5951817414434,None,"[93. 87. 87. 87. 87. 93. 93. 87. 87. 87. 93. 93. 93. 87. 87. 87. 87. 87.
 87. 93. 93. 87. 87. 87. 87. 87. 87. 87. 87. 87. 93. 87. 93. 93.]",310.4527891737671,None,l,1,0.9304041572468122,310.4527891737671,None,None,None,,,,,,,01_BY,26,M,1,2021_Oct_27_1751,Partial repeat,2021.2.3,120.10215047540554,
1,3,0,1,1,2,2,2,2,1,1,1,1,1,0,0,0,36,36,36,,,,,,,,,,,,,,,,,,,,,,,,,,,,,,,,01_BY,26,M,1,2021_Oct_27_1751,Partial repeat,2021.2.3,120.10215047540554,
4,8,0,1,1,3,3,2,2,0,1,1,1,0,0,0,0,37,37,37,0,0,0,0,,,,,,,311.4019696888063,None,0.9355778116792208,312.06806003484235,None,"[93. 87. 93. 93. 93. 87. 87. 93. 87. 87. 87. 87. 87. 93. 87. 87. 93. 87.
 93. 87. 93. 87. 87. 93. 93. 87. 93. 87. 87. 93. 93. 93. 87. 87.]",313.08386315062944,None,s,1,0.9719672337287193,313.08386315062944,None,None,None,,,,,,,01_BY,26,M,1,2021_Oct_27_1751,Partial repeat,2021.2.3,120.10215047540554,
4,8,0,1,1,3,3,2,2,0,1,1,1,0,0,0,0,37,37,37,1,0,1,0,,,,,,,,,0.7940014080540462,314.1163013108162,None,"[93. 93. 87. 87. 93. 87. 93. 87. 87. 93. 87. 87. 87. 87. 87. 93. 87. 87.
 93. 87. 93. 93. 93. 93. 93. 87. 93. 93. 87. 87. 93. 87. 87. 93.]",314.9905588610336,None,l,1,1.2574175271165586,314.9905588610336,None,None,None,,,,,,,01_BY,26,M,1,2021_Oct_27_1751,Partial repeat,2021.2.3,120.10215047540554,
4,8,0,1,1,3,3,2,2,0,1,1,1,0,0,0,0,37,37,37,,,,,,,,,,,,,,,,,,,,,,,,,,,,,,,,01_BY,26,M,1,2021_Oct_27_1751,Partial repeat,2021.2.3,120.10215047540554,
3,5,0,1,1,2,3,2,3,1,0,0,0,0,0,0,0,38,38,38,0,0,0,0,,,,,,,316.264463499052,None,0.9535652599341373,316.85562157959976,None,"[87. 93. 93. 87. 87. 93. 93. 87. 87. 93. 87. 93. 87. 93. 93. 87. 87. 87.
 87. 93. 93. 87. 87. 93. 93. 93. 87. 87. 87. 93. 93. 93. 87. 87.]",317.888068078315,None,l,1,1.0148850004388805,317.888068078315,None,None,None,,,,,,,01_BY,26,M,1,2021_Oct_27_1751,Partial repeat,2021.2.3,120.10215047540554,
3,5,0,1,1,2,3,2,3,1,0,0,0,0,0,0,0,38,38,38,1,0,1,0,,,,,,,,,0.936692542370358,318.97046974140267,None,"[93. 93. 87. 87. 93. 93. 93. 93. 93. 93. 93. 93. 93. 93. 93. 93. 93. 93.
 93. 93. 87. 87. 87. 93. 87. 87. 93. 87. 93. 93. 93. 93. 93. 93.]",319.986275743604,None,s,1,1.3486429573204077,319.986275743604,None,None,None,,,,,,,01_BY,26,M,1,2021_Oct_27_1751,Partial repeat,2021.2.3,120.10215047540554,
3,5,0,1,1,2,3,2,3,1,0,0,0,0,0,0,0,38,38,38,,,,,,,,,,,,,,,,,,,,,,,,,,,,,,,,01_BY,26,M,1,2021_Oct_27_1751,Partial repeat,2021.2.3,120.10215047540554,
3,6,0,1,1,3,3,3,2,0,0,1,0,1,0,0,0,39,39,39,0,0,0,0,,,,,,,321.35176500999296,None,0.9098033359644,321.9096241376037,None,"[87. 93. 87. 87. 93. 87. 87. 93. 93. 93. 93. 93. 93. 93. 87. 93. 87. 93.
 87. 87. 87. 87. 87. 87. 87. 93. 87. 93. 87. 87. 87. 93. 93. 93.]",322.9087684762553,None,s,1,1.2581792196579045,322.9087684762553,None,None,None,,,,,,,01_BY,26,M,1,2021_Oct_27_1751,Partial repeat,2021.2.3,120.10215047540554,
3,6,0,1,1,3,3,3,2,0,0,1,0,1,0,0,0,39,39,39,1,0,1,0,,,,,,,,,0.7465845488890447,324.23263341004804,None,"[93. 87. 87. 93. 87. 93. 93. 87. 87. 87. 87. 87. 93. 87. 87. 93. 87. 87.
 87. 93. 93. 87. 87. 93. 87. 87. 87. 93. 93. 87. 93. 87. 87. 87.]",325.05691206315714,None,s,1,1.0780586573582696,325.05691206315714,None,None,None,,,,,,,01_BY,26,M,1,2021_Oct_27_1751,Partial repeat,2021.2.3,120.10215047540554,
3,6,0,1,1,3,3,3,2,0,0,1,0,1,0,0,0,39,39,39,,,,,,,,,,,,,,,,,,,,,,,,,,,,,,,,01_BY,26,M,1,2021_Oct_27_1751,Partial repeat,2021.2.3,120.10215047540554,
3,2,0,1,1,3,2,3,2,1,1,0,0,1,0,0,0,40,40,40,0,0,0,0,,,,,,,326.1643042972928,None,0.789717100247827,326.6805243395238,None,"[93. 87. 87. 87. 87. 93. 93. 87. 87. 93. 87. 87. 87. 93. 93. 87. 87. 87.
 93. 93. 87. 87. 93. 93. 87. 93. 87. 87. 93. 93. 93. 93. 87. 87.]",327.5547680990976,None,l,1,0.9962265799358647,327.5547680990976,None,None,None,,,,,,,01_BY,26,M,1,2021_Oct_27_1751,Partial repeat,2021.2.3,120.10215047540554,
3,2,0,1,1,3,2,3,2,1,1,0,0,1,0,0,0,40,40,40,1,0,1,0,,,,,,,,,0.9000309916571441,328.6205190028659,None,"[93. 87. 87. 93. 93. 93. 93. 87. 93. 87. 93. 87. 93. 93. 87. 87. 87. 93.
 93. 93. 93. 87. 87. 87. 87. 87. 87. 93. 87. 93. 87. 93. 87. 87.]",329.5947045210223,None,l,1,1.3250532591227966,329.5947045210223,None,None,None,,,,,,,01_BY,26,M,1,2021_Oct_27_1751,Partial repeat,2021.2.3,120.10215047540554,
3,2,0,1,1,3,2,3,2,1,1,0,0,1,0,0,0,40,40,40,,,,,,,,,,,,,,,,,,,,,,,,,,,,,,,,01_BY,26,M,1,2021_Oct_27_1751,Partial repeat,2021.2.3,120.10215047540554,
1,2,0,1,1,2,3,3,2,0,1,0,0,0,0,0,0,41,41,41,0,0,0,0,,,,,,,330.94353693455105,None,0.9876931779438048,331.4597624288981,None,"[93. 87. 93. 87. 87. 87. 87. 93. 93. 93. 93. 93. 93. 93. 87. 93. 93. 87.
 87. 87. 87. 93. 93. 93. 87. 87. 93. 93. 87. 87. 93. 87. 93. 87.]",332.52551044625216,None,s,1,0.9525920204541762,332.52551044625216,None,None,None,,,,,,,01_BY,26,M,1,2021_Oct_27_1751,Partial repeat,2021.2.3,120.10215047540554,
1,2,0,1,1,2,3,3,2,0,1,0,0,0,0,0,0,41,41,41,1,0,1,0,,,,,,,,,0.8968035312149141,333.5496283581824,None,"[93. 93. 87. 87. 87. 87. 87. 93. 93. 93. 93. 87. 93. 93. 87. 93. 93. 87.
 87. 87. 87. 93. 87. 87. 87. 87. 87. 93. 93. 93. 87. 87. 87. 87.]",334.52379238859066,None,l,1,1.5792982117482097,334.52379238859066,None,None,None,,,,,,,01_BY,26,M,1,2021_Oct_27_1751,Partial repeat,2021.2.3,120.10215047540554,
1,2,0,1,1,2,3,3,2,0,1,0,0,0,0,0,0,41,41,41,,,,,,,,,,,,,,,,,,,,,,,,,,,,,,,,01_BY,26,M,1,2021_Oct_27_1751,Partial repeat,2021.2.3,120.10215047540554,
5,6,0,1,1,2,3,3,2,1,1,0,0,1,0,0,0,42,42,42,0,0,0,0,,,,,,,336.1224201874502,None,0.840538920081419,336.72190557193335,None,"[93. 93. 87. 87. 93. 87. 87. 93. 93. 87. 87. 93. 87. 93. 87. 87. 87. 87.
 93. 93. 93. 93. 93. 87. 87. 93. 93. 93. 93. 93. 87. 87. 93. 87.]",337.6378153567475,None,l,1,0.7852149752698097,337.6378153567475,None,None,None,,,,,,,01_BY,26,M,1,2021_Oct_27_1751,Partial repeat,2021.2.3,120.10215047540554,
5,6,0,1,1,2,3,3,2,1,1,0,0,1,0,0,0,42,42,42,1,0,1,0,,,,,,,,,0.7927082378284168,338.48705090607746,None,"[87. 87. 87. 87. 87. 87. 93. 93. 87. 87. 93. 93. 93. 87. 87. 93. 87. 87.
 93. 87. 93. 93. 87. 87. 93. 87. 87. 93. 87. 93. 87. 93. 93. 93.]",339.36130845629395,None,l,1,2.0688574114537914,339.36130845629395,None,None,None,,,,,,,01_BY,26,M,1,2021_Oct_27_1751,Partial repeat,2021.2.3,120.10215047540554,
5,6,0,1,1,2,3,3,2,1,1,0,0,1,0,0,0,42,42,42,,,,,,,,,,,,,,,,,,,,,,,,,,,,,,,,01_BY,26,M,1,2021_Oct_27_1751,Partial repeat,2021.2.3,120.10215047540554,
4,5,0,1,1,3,3,3,2,1,0,1,0,0,0,0,0,43,43,43,0,0,0,0,,,,,,,341.45117791341727,None,0.8650645073056368,342.39203465236005,None,"[93. 87. 93. 93. 93. 87. 87. 93. 87. 93. 87. 93. 93. 87. 93. 93. 93. 93.
 93. 87. 87. 87. 93. 93. 87. 93. 87. 93. 87. 93. 87. 87. 87. 87.]",343.33289139130284,None,l,1,0.9933978943709008,343.33289139130284,None,None,None,,,,,,,01_BY,26,M,1,2021_Oct_27_1751,Partial repeat,2021.2.3,120.10215047540554,
4,5,0,1,1,3,3,3,2,1,0,1,0,0,0,0,0,43,43,43,1,0,1,0,,,,,,,,,0.7319537761319826,344.3903226882385,None,"[87. 87. 93. 87. 87. 93. 93. 93. 93. 87. 93. 93. 93. 87. 87. 87. 93. 87.
 93. 87. 87. 93. 93. 93. 87. 87. 87. 87. 93. 93. 87. 93. 87. 87.]",345.19796276910984,None,s,1,0.8082626690884354,345.19796276910984,None,None,None,,,,,,,01_BY,26,M,1,2021_Oct_27_1751,Partial repeat,2021.2.3,120.10215047540554,
4,5,0,1,1,3,3,3,2,1,0,1,0,0,0,0,0,43,43,43,,,,,,,,,,,,,,,,,,,,,,,,,,,,,,,,01_BY,26,M,1,2021_Oct_27_1751,Partial repeat,2021.2.3,120.10215047540554,
5,7,0,1,1,2,3,2,2,0,1,0,1,0,0,0,0,44,44,44,0,0,0,0,,,,,,,346.02226258925384,None,0.8512425111082348,346.59675644055096,None,"[87. 87. 93. 93. 87. 93. 87. 87. 93. 93. 87. 93. 87. 87. 87. 87. 87. 87.
 93. 87. 93. 87. 87. 87. 93. 93. 87. 93. 93. 93. 87. 93. 87. 93.]",347.52929549693727,None,s,1,1.18000005930935,347.52929549693727,None,None,None,,,,,,,01_BY,26,M,1,2021_Oct_27_1751,Partial repeat,2021.2.3,120.10215047540554,
5,7,0,1,1,2,3,2,2,0,1,0,1,0,0,0,0,44,44,44,1,0,1,0,,,,,,,,,0.9663343105416473,348.7698925227769,None,"[93. 87. 87. 87. 93. 93. 93. 87. 93. 93. 93. 93. 93. 93. 93. 87. 93. 93.
 93. 87. 93. 93. 93. 93. 87. 87. 87. 87. 87. 93. 87. 87. 93. 87.]",349.81067241896835,None,l,1,1.0425782169822924,349.81067241896835,None,None,None,,,,,,,01_BY,26,M,1,2021_Oct_27_1751,Partial repeat,2021.2.3,120.10215047540554,
5,7,0,1,1,2,3,2,2,0,1,0,1,0,0,0,0,44,44,44,,,,,,,,,,,,,,,,,,,,,,,,,,,,,,,,01_BY,26,M,1,2021_Oct_27_1751,Partial repeat,2021.2.3,120.10215047540554,
6,1,0,1,1,2,3,2,3,0,1,0,0,0,0,0,0,45,45,45,0,0,0,0,,,,,,,350.8764239641623,None,0.747614264384316,351.3593386392031,None,"[87. 87. 93. 93. 93. 93. 93. 87. 87. 93. 93. 87. 93. 93. 87. 87. 87. 87.
 93. 87. 87. 93. 93. 87. 93. 87. 93. 93. 93. 93. 87. 87. 93. 87.]",352.1836237065654,None,s,1,1.8056867050909204,352.1836237065654,None,None,None,,,,,,,01_BY,26,M,1,2021_Oct_27_1751,Partial repeat,2021.2.3,120.10215047540554,
6,1,0,1,1,2,3,2,3,0,1,0,0,0,0,0,0,45,45,45,1,0,1,0,,,,,,,,,0.8360626426575046,354.05702495400965,None,"[87. 93. 93. 93. 87. 87. 87. 93. 87. 93. 93. 87. 93. 93. 87. 87. 87. 87.
 93. 93. 87. 87. 93. 87. 93. 93. 87. 93. 87. 93. 93. 87. 93. 93.]",354.9729148546403,None,l,1,2.5205308259146477,354.9729148546403,None,None,None,,,,,,,01_BY,26,M,1,2021_Oct_27_1751,Partial repeat,2021.2.3,120.10215047540554,
6,1,0,1,1,2,3,2,3,0,1,0,0,0,0,0,0,45,45,45,,,,,,,,,,,,,,,,,,,,,,,,,,,,,,,,01_BY,26,M,1,2021_Oct_27_1751,Partial repeat,2021.2.3,120.10215047540554,
6,8,0,1,1,3,2,2,3,1,1,0,0,1,0,0,0,46,46,46,0,0,0,0,,,,,,,357.5123926574761,None,0.9051652488354553,358.03693743794156,None,"[87. 93. 93. 93. 93. 93. 93. 93. 93. 87. 87. 93. 87. 87. 87. 93. 93. 87.
 87. 93. 93. 87. 93. 87. 93. 87. 87. 87. 87. 93. 93. 87. 93. 87.]",359.01943775224026,None,l,1,1.2899474111209202,359.01943775224026,None,None,None,,,,,,,01_BY,26,M,1,2021_Oct_27_1751,Partial repeat,2021.2.3,120.10215047540554,
6,8,0,1,1,3,2,2,3,1,1,0,0,1,0,0,0,46,46,46,1,0,1,0,,,,,,,,,0.7334918665894208,360.3765756612456,None,"[93. 87. 87. 93. 87. 87. 87. 87. 87. 93. 93. 93. 93. 93. 87. 93. 87. 93.
 87. 87. 93. 87. 93. 87. 93. 87. 93. 93. 93. 87. 87. 87. 93. 87.]",361.1925696652015,None,l,1,1.3413977378622803,361.1925696652015,None,None,None,,,,,,,01_BY,26,M,1,2021_Oct_27_1751,Partial repeat,2021.2.3,120.10215047540554,
6,8,0,1,1,3,2,2,3,1,1,0,0,1,0,0,0,46,46,46,,,,,,,,,,,,,,,,,,,,,,,,,,,,,,,,01_BY,26,M,1,2021_Oct_27_1751,Partial repeat,2021.2.3,120.10215047540554,
5,2,0,1,1,2,3,2,3,0,0,0,0,1,0,0,0,47,47,47,0,0,0,0,,,,,,,362.55807111867125,None,0.8337730556015086,363.05762885592776,None,"[87. 93. 87. 87. 93. 87. 93. 87. 87. 87. 93. 93. 87. 93. 93. 87. 93. 87.
 93. 87. 93. 93. 93. 87. 93. 87. 93. 87. 87. 87. 87. 93. 93. 93.]",363.97351715299556,None,s,1,1.0549750437230614,363.97351715299556,None,None,None,,,,,,,01_BY,26,M,1,2021_Oct_27_1751,Partial repeat,2021.2.3,120.10215047540554,
5,2,0,1,1,2,3,2,3,0,0,0,0,1,0,0,0,47,47,47,1,0,1,0,,,,,,,,,0.9466734192546253,365.0892472745836,None,"[87. 87. 87. 87. 87. 87. 87. 93. 87. 93. 87. 87. 87. 93. 93. 87. 93. 87.
 87. 93. 93. 87. 93. 93. 93. 87. 87. 93. 93. 87. 87. 93. 87. 87.]",366.1133536408579,None,s,1,0.8511499680980705,366.1133536408579,None,None,None,,,,,,,01_BY,26,M,1,2021_Oct_27_1751,Partial repeat,2021.2.3,120.10215047540554,
5,2,0,1,1,2,3,2,3,0,0,0,0,1,0,0,0,47,47,47,,,,,,,,,,,,,,,,,,,,,,,,,,,,,,,,01_BY,26,M,1,2021_Oct_27_1751,Partial repeat,2021.2.3,120.10215047540554,
7,4,0,1,1,2,2,2,2,1,0,1,1,0,0,0,0,48,48,48,0,0,0,0,,,,,,,366.9875925897413,None,0.8980995191731651,367.50381231126084,None,"[87. 87. 87. 93. 87. 87. 93. 87. 93. 93. 93. 87. 93. 93. 87. 93. 87. 87.
 93. 87. 93. 93. 87. 93. 93. 87. 93. 93. 87. 87. 93. 87. 87. 93.]",368.4779907737384,None,l,1,0.9345198626733691,368.4779907737384,None,None,None,,,,,,,01_BY,26,M,1,2021_Oct_27_1751,Partial repeat,2021.2.3,120.10215047540554,
7,4,0,1,1,2,2,2,2,1,0,1,1,0,0,0,0,48,48,48,1,0,1,0,,,,,,,,,0.9772151571534357,369.48544958781986,None,"[87. 93. 87. 93. 87. 93. 87. 87. 87. 93. 93. 87. 93. 87. 87. 93. 87. 87.
 93. 87. 93. 93. 93. 93. 93. 87. 87. 87. 93. 87. 93. 93. 93. 93.]",370.54287543264127,None,s,1,1.125654018057503,370.54287543264127,None,None,None,,,,,,,01_BY,26,M,1,2021_Oct_27_1751,Partial repeat,2021.2.3,120.10215047540554,
7,4,0,1,1,2,2,2,2,1,0,1,1,0,0,0,0,48,48,48,,,,,,,,,,,,,,,,,,,,,,,,,,,,,,,,01_BY,26,M,1,2021_Oct_27_1751,Partial repeat,2021.2.3,120.10215047540554,
5,4,0,1,1,3,2,2,2,1,0,0,1,0,0,0,0,49,49,49,0,0,0,0,,,,,,,371.6918849436952,None,0.7081992390688293,372.1914709036655,None,"[93. 87. 93. 87. 87. 93. 93. 87. 93. 93. 93. 93. 93. 87. 93. 87. 87. 87.
 93. 87. 93. 93. 93. 93. 93. 93. 93. 93. 93. 87. 87. 93. 93. 93.]",372.9824506038376,None,l,1,0.8135489756859897,372.9824506038376,None,None,None,,,,,,,01_BY,26,M,1,2021_Oct_27_1751,Partial repeat,2021.2.3,120.10215047540554,
5,4,0,1,1,3,2,2,2,1,0,0,1,0,0,0,0,49,49,49,1,0,1,0,,,,,,,,,0.9993477645678269,373.86502006378305,None,"[93. 87. 93. 93. 93. 93. 93. 87. 93. 87. 93. 93. 93. 87. 87. 87. 87. 93.
 93. 87. 93. 87. 93. 93. 93. 87. 87. 93. 87. 93. 93. 93. 87. 87.]",374.93910436502756,None,s,1,0.8575029649655335,374.93910436502756,None,None,None,,,,,,,01_BY,26,M,1,2021_Oct_27_1751,Partial repeat,2021.2.3,120.10215047540554,
5,4,0,1,1,3,2,2,2,1,0,0,1,0,0,0,0,49,49,49,,,,,,,,,,,,,,,,,,,,,,,,,,,,,,,,01_BY,26,M,1,2021_Oct_27_1751,Partial repeat,2021.2.3,120.10215047540554,
6,6,0,1,1,3,2,2,3,0,0,0,0,1,0,0,0,50,50,50,0,0,0,0,,,,,,,375.8133564631298,None,0.8139832171818441,376.33789931931915,None,"[93. 93. 87. 87. 87. 87. 93. 87. 93. 87. 93. 87. 87. 87. 93. 93. 93. 87.
 93. 87. 87. 93. 87. 93. 87. 87. 87. 87. 87. 87. 93. 87. 93. 93.]",377.2288073081427,None,s,1,0.8398182280652691,377.2288073081427,None,None,None,,,,,,,01_BY,26,M,1,2021_Oct_27_1751,Partial repeat,2021.2.3,120.10215047540554,
6,6,0,1,1,3,2,2,3,0,0,0,0,1,0,0,0,50,50,50,1,0,1,0,,,,,,,,,0.8601326642268333,378.1280256031323,None,"[87. 93. 93. 87. 93. 87. 93. 87. 93. 93. 87. 93. 87. 87. 93. 87. 93. 87.
 93. 87. 93. 93. 87. 87. 87. 93. 93. 93. 93. 93. 93. 93. 87. 93.]",379.07722087095317,None,s,1,0.7024614904057671,379.07722087095317,None,None,None,,,,,,,01_BY,26,M,1,2021_Oct_27_1751,Partial repeat,2021.2.3,120.10215047540554,
6,6,0,1,1,3,2,2,3,0,0,0,0,1,0,0,0,50,50,50,,,,,,,,,,,,,,,,,,,,,,,,,,,,,,,,01_BY,26,M,1,2021_Oct_27_1751,Partial repeat,2021.2.3,120.10215047540554,
3,1,0,1,1,2,2,2,3,1,0,1,0,0,0,0,0,51,51,51,0,0,0,0,,,,,,,379.80159625099714,None,0.771618784296871,380.3511197361431,None,"[87. 93. 93. 87. 93. 93. 87. 87. 87. 87. 87. 93. 93. 87. 93. 93. 87. 93.
 93. 93. 87. 87. 87. 93. 93. 93. 87. 93. 87. 93. 87. 93. 93. 87.]",381.2003960159791,None,l,1,1.1233105707297,381.2003960159791,None,None,None,,,,,,,01_BY,26,M,1,2021_Oct_27_1751,Partial repeat,2021.2.3,120.10215047540554,
3,1,0,1,1,2,2,2,3,1,0,1,0,0,0,0,0,51,51,51,1,0,1,0,,,,,,,,,0.9908381397558816,382.3910398017224,None,"[93. 87. 87. 93. 87. 87. 93. 93. 93. 93. 87. 87. 87. 87. 87. 93. 93. 93.
 87. 87. 93. 87. 87. 93. 93. 93. 87. 87. 87. 87. 93. 87. 93. 93.]",383.4567887812145,None,s,1,0.7234813181448772,383.4567887812145,None,None,None,,,,,,,01_BY,26,M,1,2021_Oct_27_1751,Partial repeat,2021.2.3,120.10215047540554,
3,1,0,1,1,2,2,2,3,1,0,1,0,0,0,0,0,51,51,51,,,,,,,,,,,,,,,,,,,,,,,,,,,,,,,,01_BY,26,M,1,2021_Oct_27_1751,Partial repeat,2021.2.3,120.10215047540554,
1,5,0,1,1,2,2,2,2,0,1,1,1,0,0,0,0,52,52,52,0,0,0,0,,,,,,,384.20614831805415,None,0.7523289752338851,384.7057150352657,None,"[93. 87. 93. 87. 93. 93. 87. 87. 93. 93. 87. 87. 87. 93. 87. 87. 93. 93.
 93. 87. 87. 87. 93. 93. 87. 87. 87. 93. 87. 87. 87. 87. 87. 87.]",385.53834151792034,None,s,1,0.737382607922882,385.53834151792034,None,None,None,,,,,,,01_BY,26,M,1,2021_Oct_27_1751,Partial repeat,2021.2.3,120.10215047540554,
1,5,0,1,1,2,2,2,2,0,1,1,1,0,0,0,0,52,52,52,1,0,1,0,,,,,,,,,0.8505413671560689,386.34597967451464,None,"[93. 87. 87. 93. 87. 87. 93. 87. 93. 93. 87. 87. 87. 87. 87. 93. 87. 87.
 87. 87. 87. 87. 93. 93. 93. 87. 93. 87. 87. 87. 87. 87. 93. 87.]",387.27850077099265,None,l,1,0.8212621148977632,387.27850077099265,None,None,None,,,,,,,01_BY,26,M,1,2021_Oct_27_1751,Partial repeat,2021.2.3,120.10215047540554,
1,5,0,1,1,2,2,2,2,0,1,1,1,0,0,0,0,52,52,52,,,,,,,,,,,,,,,,,,,,,,,,,,,,,,,,01_BY,26,M,1,2021_Oct_27_1751,Partial repeat,2021.2.3,120.10215047540554,
3,4,0,1,1,2,2,2,3,1,1,1,0,1,0,0,0,53,53,53,0,0,0,0,,,,,,,388.1194606511235,None,0.7327901043708148,388.71894026277914,None,"[87. 93. 93. 93. 87. 93. 93. 87. 87. 93. 93. 93. 87. 87. 87. 93. 93. 87.
 93. 93. 93. 93. 93. 87. 87. 93. 93. 87. 87. 87. 87. 93. 87. 93.]",389.5265934928684,None,l,1,0.8291593431704314,389.5265934928684,None,None,None,,,,,,,01_BY,26,M,1,2021_Oct_27_1751,Partial repeat,2021.2.3,120.10215047540554,
3,4,0,1,1,2,2,2,3,1,1,1,0,1,0,0,0,53,53,53,1,0,1,0,,,,,,,,,0.9630350200006647,390.4258092221562,None,"[87. 93. 93. 87. 93. 87. 87. 87. 93. 87. 93. 93. 87. 87. 87. 93. 93. 87.
 93. 93. 87. 87. 87. 87. 93. 87. 93. 93. 93. 87. 93. 87. 93. 87.]",391.4749071216165,None,l,1,0.9449196117484462,391.4749071216165,None,None,None,,,,,,,01_BY,26,M,1,2021_Oct_27_1751,Partial repeat,2021.2.3,120.10215047540554,
3,4,0,1,1,2,2,2,3,1,1,1,0,1,0,0,0,53,53,53,,,,,,,,,,,,,,,,,,,,,,,,,,,,,,,,01_BY,26,M,1,2021_Oct_27_1751,Partial repeat,2021.2.3,120.10215047540554,
7,6,0,1,1,2,2,3,3,0,0,1,1,1,0,0,0,54,54,54,0,0,0,0,,,,,,,392.4490708313124,None,0.8890931028436773,393.04023243969914,None,"[93. 93. 93. 93. 87. 93. 87. 87. 93. 87. 87. 87. 87. 93. 93. 87. 93. 93.
 87. 87. 93. 93. 87. 93. 87. 93. 87. 93. 93. 93. 93. 87. 93. 87.]",394.00607397686235,None,s,1,0.8143837907109628,394.00607397686235,None,None,None,,,,,,,01_BY,26,M,1,2021_Oct_27_1751,Partial repeat,2021.2.3,120.10215047540554,
7,6,0,1,1,2,2,3,3,0,0,1,1,1,0,0,0,54,54,54,1,0,1,0,,,,,,,,,0.7582620888382975,394.8886405503945,None,"[93. 87. 93. 87. 93. 93. 87. 87. 93. 93. 93. 87. 87. 87. 87. 93. 87. 93.
 93. 93. 87. 87. 87. 93. 87. 87. 93. 93. 87. 87. 93. 87. 93. 93.]",395.72959337484644,None,s,1,1.057324905303176,395.72959337484644,None,None,None,,,,,,,01_BY,26,M,1,2021_Oct_27_1751,Partial repeat,2021.2.3,120.10215047540554,
7,6,0,1,1,2,2,3,3,0,0,1,1,1,0,0,0,54,54,54,,,,,,,,,,,,,,,,,,,,,,,,,,,,,,,,01_BY,26,M,1,2021_Oct_27_1751,Partial repeat,2021.2.3,120.10215047540554,
6,5,0,1,1,3,3,3,2,1,1,1,0,1,0,0,0,55,55,55,0,0,0,0,,,,,,,396.8119934343704,None,0.8155132111833177,397.2949132408139,None,"[87. 93. 93. 87. 93. 93. 93. 93. 87. 87. 93. 87. 87. 93. 93. 87. 93. 93.
 93. 93. 93. 87. 87. 93. 87. 87. 87. 93. 93. 87. 93. 87. 93. 93.]",398.1941430814586,None,l,1,0.7687425321837509,398.1941430814586,None,None,None,,,,,,,01_BY,26,M,1,2021_Oct_27_1751,Partial repeat,2021.2.3,120.10215047540554,
6,5,0,1,1,3,3,3,2,1,1,1,0,1,0,0,0,55,55,55,1,0,1,0,,,,,,,,,0.8267195145878845,399.02676186700955,None,"[93. 87. 87. 93. 93. 93. 87. 87. 93. 93. 93. 93. 93. 87. 93. 87. 93. 93.
 87. 87. 87. 93. 87. 87. 87. 87. 87. 93. 93. 87. 93. 93. 93. 93.]",399.9426415048347,None,l,1,0.7482663123846578,399.9426415048347,None,None,None,,,,,,,01_BY,26,M,1,2021_Oct_27_1751,Partial repeat,2021.2.3,120.10215047540554,
6,5,0,1,1,3,3,3,2,1,1,1,0,1,0,0,0,55,55,55,,,,,,,,,,,,,,,,,,,,,,,,,,,,,,,,01_BY,26,M,1,2021_Oct_27_1751,Partial repeat,2021.2.3,120.10215047540554,
2,5,0,1,1,3,2,3,2,1,0,0,0,0,0,0,0,56,56,56,0,0,0,0,,,,,,,400.7003257799088,None,0.7575624738549508,401.2498576035832,None,"[87. 93. 93. 93. 87. 93. 87. 93. 93. 93. 87. 87. 87. 87. 87. 93. 93. 93.
 87. 93. 93. 93. 93. 87. 93. 93. 87. 87. 87. 87. 93. 87. 93. 93.]",402.09080080665626,None,l,1,1.2717614003495328,402.09080080665626,None,None,None,,,,,,,01_BY,26,M,1,2021_Oct_27_1751,Partial repeat,2021.2.3,120.10215047540554,
2,5,0,1,1,3,2,3,2,1,0,0,0,0,0,0,0,56,56,56,1,0,1,0,,,,,,,,,0.9547752968773227,403.4313094440895,None,"[93. 93. 87. 93. 93. 87. 93. 93. 87. 93. 93. 87. 93. 93. 93. 93. 87. 87.
 93. 93. 93. 87. 93. 87. 87. 87. 87. 93. 87. 93. 93. 93. 87. 93.]",404.4720944716837,None,s,1,1.1308755406989803,404.4720944716837,None,None,None,,,,,,,01_BY,26,M,1,2021_Oct_27_1751,Partial repeat,2021.2.3,120.10215047540554,
2,5,0,1,1,3,2,3,2,1,0,0,0,0,0,0,0,56,56,56,,,,,,,,,,,,,,,,,,,,,,,,,,,,,,,,01_BY,26,M,1,2021_Oct_27_1751,Partial repeat,2021.2.3,120.10215047540554,
7,2,0,1,1,3,2,3,2,0,1,0,0,0,0,0,0,57,57,57,0,0,0,0,,,,,,,405.6210982099101,None,0.9956321102440607,406.1456622331352,None,"[93. 93. 93. 93. 87. 87. 87. 93. 93. 87. 93. 87. 93. 87. 93. 93. 87. 87.
 93. 87. 87. 87. 87. 93. 93. 93. 87. 93. 93. 93. 87. 93. 87. 87.]",407.2280561991183,None,s,1,0.822963174789038,407.2280561991183,None,None,None,,,,,,,01_BY,26,M,1,2021_Oct_27_1751,Partial repeat,2021.2.3,120.10215047540554,
7,2,0,1,1,3,2,3,2,0,1,0,0,0,0,0,0,57,57,57,1,0,1,0,,,,,,,,,0.8326393090139637,408.118955528701,None,"[93. 87. 87. 93. 93. 93. 87. 87. 93. 87. 87. 93. 87. 87. 93. 93. 87. 93.
 93. 93. 87. 87. 93. 87. 87. 93. 87. 87. 87. 93. 87. 87. 87. 87.]",409.0348335629633,None,l,1,1.3042204068588035,409.0348335629633,None,None,None,,,,,,,01_BY,26,M,1,2021_Oct_27_1751,Partial repeat,2021.2.3,120.10215047540554,
7,2,0,1,1,3,2,3,2,0,1,0,0,0,0,0,0,57,57,57,,,,,,,,,,,,,,,,,,,,,,,,,,,,,,,,01_BY,26,M,1,2021_Oct_27_1751,Partial repeat,2021.2.3,120.10215047540554,
8,4,0,1,1,2,2,2,3,0,1,1,0,0,0,0,0,58,58,58,0,0,0,0,,,,,,,410.3670264421162,None,0.7148994384122035,410.8832464843481,None,"[93. 87. 93. 87. 87. 87. 87. 93. 87. 87. 93. 93. 93. 93. 93. 93. 93. 93.
 87. 93. 87. 87. 93. 87. 87. 93. 87. 93. 87. 87. 87. 87. 93. 87.]",411.68256503411067,None,s,1,0.831529409648283,411.68256503411067,None,None,None,,,,,,,01_BY,26,M,1,2021_Oct_27_1751,Partial repeat,2021.2.3,120.10215047540554,
8,4,0,1,1,2,2,2,3,0,1,1,0,0,0,0,0,58,58,58,1,0,1,0,,,,,,,,,0.8816874399052155,412.5818006475829,None,"[87. 93. 93. 87. 93. 93. 93. 93. 93. 87. 93. 87. 87. 87. 87. 93. 93. 87.
 93. 93. 87. 87. 93. 87. 87. 93. 87. 93. 93. 87. 87. 93. 93. 87.]",413.5476325633663,None,l,1,0.9507062300772304,413.5476325633663,None,None,None,,,,,,,01_BY,26,M,1,2021_Oct_27_1751,Partial repeat,2021.2.3,120.10215047540554,
8,4,0,1,1,2,2,2,3,0,1,1,0,0,0,0,0,58,58,58,,,,,,,,,,,,,,,,,,,,,,,,,,,,,,,,01_BY,26,M,1,2021_Oct_27_1751,Partial repeat,2021.2.3,120.10215047540554,
7,1,0,1,1,3,2,2,3,0,1,0,0,0,0,0,0,59,59,59,0,0,0,0,,,,,,,414.52178601025753,None,0.9025981129032086,414.97972679130817,None,"[93. 93. 87. 87. 93. 93. 87. 87. 87. 93. 87. 87. 87. 87. 87. 87. 93. 93.
 93. 87. 87. 93. 93. 93. 87. 87. 87. 87. 93. 93. 87. 87. 87. 93.]",415.96222806774495,None,s,1,0.9835510539032839,415.96222806774495,None,None,None,,,,,,,01_BY,26,M,1,2021_Oct_27_1751,Partial repeat,2021.2.3,120.10215047540554,
7,1,0,1,1,3,2,2,3,0,1,0,0,0,0,0,0,59,59,59,1,0,1,0,,,,,,,,,0.7291853164478749,417.019645574037,None,"[93. 93. 87. 93. 93. 93. 87. 93. 87. 93. 93. 93. 87. 87. 93. 87. 87. 93.
 87. 93. 93. 87. 87. 87. 93. 93. 93. 93. 93. 93. 93. 93. 87. 87.]",417.83561969380935,None,l,1,0.9825376019316536,417.83561969380935,None,None,None,,,,,,,01_BY,26,M,1,2021_Oct_27_1751,Partial repeat,2021.2.3,120.10215047540554,
7,1,0,1,1,3,2,2,3,0,1,0,0,0,0,0,0,59,59,59,,,,,,,,,,,,,,,,,,,,,,,,,,,,,,,,01_BY,26,M,1,2021_Oct_27_1751,Partial repeat,2021.2.3,120.10215047540554,
7,7,0,1,1,3,3,2,3,0,1,1,0,0,0,0,0,60,60,60,0,0,0,0,,,,,,,418.83475761820773,None,0.7951734858457369,419.30935428998055,None,"[93. 93. 87. 93. 93. 87. 87. 87. 87. 93. 87. 93. 87. 87. 93. 93. 87. 87.
 93. 93. 93. 87. 93. 87. 87. 93. 93. 93. 93. 93. 87. 87. 87. 93.]",420.1919298434668,None,s,1,0.850395972660408,420.1919298434668,None,None,None,,,,,,,01_BY,26,M,1,2021_Oct_27_1751,Partial repeat,2021.2.3,120.10215047540554,
7,7,0,1,1,3,3,2,3,0,1,1,0,0,0,0,0,60,60,60,1,0,1,0,,,,,,,,,0.9324470303438959,421.09948281878223,None,"[93. 87. 87. 87. 87. 87. 93. 93. 93. 87. 87. 87. 93. 93. 93. 87. 93. 93.
 87. 93. 93. 93. 87. 87. 87. 87. 93. 93. 87. 93. 87. 87. 87. 93.]",422.11527887889133,None,l,1,0.7029265237479194,422.11527887889133,None,None,None,,,,,,,01_BY,26,M,1,2021_Oct_27_1751,Partial repeat,2021.2.3,120.10215047540554,
7,7,0,1,1,3,3,2,3,0,1,1,0,0,0,0,0,60,60,60,,,,,,,,,,,,,,,,,,,,,,,,,,,,,,,,01_BY,26,M,1,2021_Oct_27_1751,Partial repeat,2021.2.3,120.10215047540554,
6,2,0,1,1,2,2,3,2,1,1,1,0,1,0,0,0,61,61,61,0,0,0,0,,,,,,,422.8396539382229,None,0.7137396606617394,423.38918287548404,None,"[93. 87. 93. 87. 87. 87. 87. 87. 93. 93. 93. 93. 93. 93. 87. 87. 87. 93.
 87. 87. 93. 93. 93. 93. 93. 93. 93. 87. 87. 87. 93. 93. 87. 93.]",424.1884995009714,None,l,1,0.9657226377357802,424.1884995009714,None,None,None,,,,,,,01_BY,26,M,1,2021_Oct_27_1751,Partial repeat,2021.2.3,120.10215047540554,
6,2,0,1,1,2,2,3,2,1,1,1,0,1,0,0,0,61,61,61,1,0,1,0,,,,,,,,,0.7123700308970122,425.21262318572826,None,"[93. 93. 93. 87. 93. 87. 93. 87. 93. 87. 93. 87. 93. 93. 87. 87. 87. 87.
 93. 87. 93. 93. 93. 87. 87. 87. 93. 93. 93. 87. 93. 93. 87. 87.]",426.0119471876069,None,l,1,1.3497057990389294,426.0119471876069,None,None,None,,,,,,,01_BY,26,M,1,2021_Oct_27_1751,Partial repeat,2021.2.3,120.10215047540554,
6,2,0,1,1,2,2,3,2,1,1,1,0,1,0,0,0,61,61,61,,,,,,,,,,,,,,,,,,,,,,,,,,,,,,,,01_BY,26,M,1,2021_Oct_27_1751,Partial repeat,2021.2.3,120.10215047540554,
2,2,0,1,1,2,2,2,2,0,0,1,1,1,0,0,0,62,62,62,0,0,0,0,,,,,,,427.3940824026249,None,0.7403966767905849,427.9436030013567,None,"[93. 87. 93. 87. 87. 87. 93. 87. 93. 93. 87. 93. 93. 93. 93. 93. 93. 93.
 93. 93. 93. 93. 93. 93. 93. 93. 93. 93. 93. 93. 87. 93. 87. 87.]",428.76790121793783,None,s,1,0.7374008885435615,428.76790121793783,None,None,None,,,,,,,01_BY,26,M,1,2021_Oct_27_1751,Partial repeat,2021.2.3,120.10215047540554,
2,2,0,1,1,2,2,2,2,0,0,1,1,1,0,0,0,62,62,62,1,0,1,0,,,,,,,,,0.718861540116431,429.5755336017055,None,"[87. 87. 87. 87. 93. 87. 93. 93. 93. 87. 93. 93. 87. 87. 93. 93. 87. 87.
 87. 87. 93. 87. 93. 87. 87. 93. 93. 93. 87. 87. 93. 87. 93. 87.]",430.37487075280205,None,s,1,0.8585481674890616,430.37487075280205,None,None,None,,,,,,,01_BY,26,M,1,2021_Oct_27_1751,Partial repeat,2021.2.3,120.10215047540554,
2,2,0,1,1,2,2,2,2,0,0,1,1,1,0,0,0,62,62,62,,,,,,,,,,,,,,,,,,,,,,,,,,,,,,,,01_BY,26,M,1,2021_Oct_27_1751,Partial repeat,2021.2.3,120.10215047540554,
2,4,0,1,1,3,2,2,2,0,0,0,1,1,0,0,0,63,63,63,0,0,0,0,,,,,,,431.2574305913686,None,0.7936627156874452,433.4222332761183,None,"[87. 93. 93. 87. 87. 93. 87. 93. 87. 87. 93. 93. 87. 93. 87. 87. 87. 87.
 87. 87. 93. 87. 87. 93. 93. 93. 93. 93. 93. 93. 87. 87. 93. 87.]",434.3048165267073,None,s,1,0.8325556901254458,434.3048165267073,None,None,None,,,,,,,01_BY,26,M,1,2021_Oct_27_1751,Partial repeat,2021.2.3,120.10215047540554,
2,4,0,1,1,3,2,2,2,0,0,0,1,1,0,0,0,63,63,63,1,0,1,0,,,,,,,,,0.9511150866818485,435.1957120077377,None,"[93. 93. 93. 93. 93. 93. 93. 87. 93. 93. 87. 93. 93. 93. 87. 87. 87. 87.
 93. 93. 93. 87. 93. 87. 87. 87. 93. 93. 93. 87. 93. 93. 93. 93.]",436.23648965894154,None,s,1,1.316370284860568,436.23648965894154,None,None,None,,,,,,,01_BY,26,M,1,2021_Oct_27_1751,Partial repeat,2021.2.3,120.10215047540554,
2,4,0,1,1,3,2,2,2,0,0,0,1,1,0,0,0,63,63,63,,,,,,,,,,,,,,,,,,,,,,,,,,,,,,,,01_BY,26,M,1,2021_Oct_27_1751,Partial repeat,2021.2.3,120.10215047540554,
6,6,0,1,1,2,2,2,2,0,0,1,1,1,1,0,0,64,64,64,0,0,0,0,,,,,,,441.1572383562061,None,0.8758045543150839,444.0297954879579,None,"[93. 93. 93. 87. 93. 87. 93. 93. 87. 93. 87. 87. 87. 87. 87. 87. 93. 87.
 93. 93. 87. 93. 87. 87. 87. 87. 93. 87. 87. 87. 87. 93. 87. 87.]",444.99563959082207,None,s,1,2.908870227131956,444.99563959082207,None,None,None,,,,,,,01_BY,26,M,1,2021_Oct_27_1751,Partial repeat,2021.2.3,120.10215047540554,
6,6,0,1,1,2,2,2,2,0,0,1,1,1,1,0,0,64,64,64,1,0,1,0,,,,,,,,,0.904891967497498,447.9764064532519,None,"[87. 87. 93. 93. 93. 93. 87. 87. 93. 87. 93. 93. 93. 87. 93. 87. 87. 87.
 93. 87. 87. 87. 87. 87. 93. 93. 87. 87. 93. 93. 93. 93. 93. 87.]",448.9672279779452,None,s,1,0.7453051724951365,448.9672279779452,None,None,None,,,,,,,01_BY,26,M,1,2021_Oct_27_1751,Partial repeat,2021.2.3,120.10215047540554,
6,6,0,1,1,2,2,2,2,0,0,1,1,1,1,0,0,64,64,64,,,,,,,,,,,,,,,,,,,,,,,,,,,,,,,,01_BY,26,M,1,2021_Oct_27_1751,Partial repeat,2021.2.3,120.10215047540554,
6,6,0,1,1,2,2,3,2,1,0,1,0,0,1,0,0,65,65,65,0,0,0,0,,,,,,,449.74156782302816,None,0.843736033223564,450.62413984867453,None,"[93. 87. 87. 93. 93. 93. 93. 87. 87. 87. 93. 87. 87. 87. 93. 87. 87. 87.
 93. 93. 87. 87. 87. 93. 93. 87. 93. 87. 87. 93. 87. 93. 93. 87.]",451.55667537722184,None,l,1,0.7159250074182637,451.55667537722184,None,None,None,,,,,,,01_BY,26,M,1,2021_Oct_27_1751,Partial repeat,2021.2.3,120.10215047540554,
6,6,0,1,1,2,2,3,2,1,0,1,0,0,1,0,0,65,65,65,1,0,1,0,,,,,,,,,0.8251993610347783,452.33100303522406,None,"[87. 93. 93. 87. 93. 93. 87. 93. 93. 93. 93. 87. 93. 87. 87. 93. 93. 87.
 87. 93. 93. 87. 93. 93. 93. 93. 93. 87. 87. 93. 87. 87. 87. 93.]",453.2385653112069,None,s,1,1.0500251646953984,453.2385653112069,None,None,None,,,,,,,01_BY,26,M,1,2021_Oct_27_1751,Partial repeat,2021.2.3,120.10215047540554,
6,6,0,1,1,2,2,3,2,1,0,1,0,0,1,0,0,65,65,65,,,,,,,,,,,,,,,,,,,,,,,,,,,,,,,,01_BY,26,M,1,2021_Oct_27_1751,Partial repeat,2021.2.3,120.10215047540554,
6,6,0,1,1,3,2,3,2,0,1,0,0,0,1,0,0,66,66,66,0,0,0,0,,,,,,,454.3043088385839,None,0.9856911407502535,454.96207637066163,None,"[87. 93. 93. 93. 87. 93. 93. 93. 87. 93. 87. 93. 93. 87. 93. 87. 93. 87.
 87. 87. 87. 93. 93. 87. 87. 93. 87. 87. 87. 93. 93. 87. 87. 87.]",456.03616387903185,None,s,1,0.7804594481076492,456.03616387903185,None,None,None,,,,,,,01_BY,26,M,1,2021_Oct_27_1751,Partial repeat,2021.2.3,120.10215047540554,
6,6,0,1,1,3,2,3,2,0,1,0,0,0,1,0,0,66,66,66,1,0,1,0,,,,,,,,,0.8308274692990667,456.8770984228631,None,"[93. 93. 87. 93. 93. 93. 87. 93. 93. 93. 93. 93. 93. 93. 93. 93. 87. 93.
 87. 87. 87. 93. 93. 87. 87. 87. 93. 87. 87. 93. 93. 87. 87. 87.]",457.7929937756089,None,l,1,0.7667050447225847,457.7929937756089,None,None,None,,,,,,,01_BY,26,M,1,2021_Oct_27_1751,Partial repeat,2021.2.3,120.10215047540554,
6,6,0,1,1,3,2,3,2,0,1,0,0,0,1,0,0,66,66,66,,,,,,,,,,,,,,,,,,,,,,,,,,,,,,,,01_BY,26,M,1,2021_Oct_27_1751,Partial repeat,2021.2.3,120.10215047540554,
6,6,0,1,1,3,3,2,3,0,0,1,0,1,1,0,0,67,67,67,0,0,0,0,,,,,,,458.57564520970755,None,0.8509241708947552,459.15014996523496,None,"[87. 93. 93. 87. 87. 87. 87. 87. 93. 93. 87. 87. 87. 93. 87. 87. 93. 87.
 87. 93. 93. 93. 93. 87. 87. 93. 87. 93. 87. 87. 93. 93. 93. 87.]",460.09101664626905,None,s,1,0.8046594624756835,460.09101664626905,None,None,None,,,,,,,01_BY,26,M,1,2021_Oct_27_1751,Partial repeat,2021.2.3,120.10215047540554,
6,6,0,1,1,3,3,2,3,0,0,1,0,1,1,0,0,67,67,67,1,0,1,0,,,,,,,,,0.9497197020396739,460.95693598832077,None,"[93. 87. 93. 93. 87. 93. 93. 93. 87. 93. 93. 87. 93. 87. 93. 93. 87. 93.
 87. 87. 87. 93. 87. 93. 93. 87. 87. 93. 87. 93. 87. 87. 87. 93.]",461.98939756053096,None,s,1,0.6183003977248518,461.98939756053096,None,None,None,,,,,,,01_BY,26,M,1,2021_Oct_27_1751,Partial repeat,2021.2.3,120.10215047540554,
6,6,0,1,1,3,3,2,3,0,0,1,0,1,1,0,0,67,67,67,,,,,,,,,,,,,,,,,,,,,,,,,,,,,,,,01_BY,26,M,1,2021_Oct_27_1751,Partial repeat,2021.2.3,120.10215047540554,
6,6,0,1,1,3,3,2,2,0,1,1,1,0,1,0,0,68,68,68,0,0,0,0,,,,,,,462.63050182549614,None,0.9026839864330588,463.196680880651,None,"[93. 87. 87. 87. 93. 87. 87. 93. 87. 87. 87. 87. 87. 87. 87. 93. 93. 93.
 93. 93. 87. 93. 87. 87. 87. 87. 93. 93. 93. 93. 93. 93. 93. 87.]",464.18749246325297,None,s,1,0.7887014424786685,464.18749246325297,None,None,None,,,,,,,01_BY,26,M,1,2021_Oct_27_1751,Partial repeat,2021.2.3,120.10215047540554,
6,6,0,1,1,3,3,2,2,0,1,1,1,0,1,0,0,68,68,68,1,0,1,0,,,,,,,,,0.7608938266082729,465.03676393239857,None,"[87. 93. 93. 87. 93. 87. 87. 87. 87. 93. 93. 93. 87. 87. 93. 87. 93. 93.
 93. 87. 87. 93. 87. 93. 93. 87. 93. 93. 87. 87. 93. 93. 87. 93.]",465.88604053294694,None,l,1,0.8190049392724177,465.88604053294694,None,None,None,,,,,,,01_BY,26,M,1,2021_Oct_27_1751,Partial repeat,2021.2.3,120.10215047540554,
6,6,0,1,1,3,3,2,2,0,1,1,1,0,1,0,0,68,68,68,,,,,,,,,,,,,,,,,,,,,,,,,,,,,,,,01_BY,26,M,1,2021_Oct_27_1751,Partial repeat,2021.2.3,120.10215047540554,
6,6,0,1,1,2,2,3,3,1,1,1,1,1,1,0,0,69,69,69,0,0,0,0,,,,,,,466.7269830945943,None,0.7895840184745595,467.2931650361634,None,"[93. 93. 87. 93. 93. 93. 87. 93. 87. 93. 87. 93. 93. 87. 93. 87. 93. 93.
 93. 93. 87. 93. 93. 87. 93. 93. 87. 87. 87. 87. 93. 93. 93. 87.]",468.1674148892771,None,l,1,1.56038963537776,468.1674148892771,None,None,None,,,,,,,01_BY,26,M,1,2021_Oct_27_1751,Partial repeat,2021.2.3,120.10215047540554,
6,6,0,1,1,2,2,3,3,1,1,1,1,1,1,0,0,69,69,69,1,0,1,0,,,,,,,,,0.7557745038669875,469.7910143371382,None,"[87. 93. 93. 87. 87. 87. 93. 87. 87. 87. 93. 87. 93. 87. 87. 87. 87. 93.
 93. 93. 87. 87. 93. 87. 87. 93. 87. 93. 87. 87. 93. 87. 87. 93.]",470.62363665052817,None,l,1,1.0881761793016267,470.62363665052817,None,None,None,,,,,,,01_BY,26,M,1,2021_Oct_27_1751,Partial repeat,2021.2.3,120.10215047540554,
6,6,0,1,1,2,2,3,3,1,1,1,1,1,1,0,0,69,69,69,,,,,,,,,,,,,,,,,,,,,,,,,,,,,,,,01_BY,26,M,1,2021_Oct_27_1751,Partial repeat,2021.2.3,120.10215047540554,
6,6,0,1,1,2,2,2,2,1,0,1,1,0,1,0,0,70,70,70,0,0,0,0,,,,,,,471.73102118756015,None,0.8521194287830689,472.2389126430053,None,"[87. 93. 93. 93. 87. 87. 87. 93. 93. 93. 87. 93. 87. 93. 87. 87. 93. 87.
 87. 93. 93. 93. 87. 87. 87. 87. 93. 87. 87. 93. 87. 87. 93. 93.]",473.1797927939715,None,l,1,0.6911092247637498,473.1797927939715,None,None,None,,,,,,,01_BY,26,M,1,2021_Oct_27_1751,Partial repeat,2021.2.3,120.10215047540554,
6,6,0,1,1,2,2,2,2,1,0,1,1,0,1,0,0,70,70,70,1,0,1,0,,,,,,,,,0.811548441697101,473.9374632784011,None,"[93. 93. 93. 93. 87. 93. 87. 87. 93. 87. 87. 87. 87. 93. 93. 87. 87. 93.
 93. 87. 93. 93. 93. 93. 87. 93. 93. 87. 93. 87. 87. 87. 87. 93.]",474.8283651736847,None,s,1,0.7865404806480001,474.8283651736847,None,None,None,,,,,,,01_BY,26,M,1,2021_Oct_27_1751,Partial repeat,2021.2.3,120.10215047540554,
6,6,0,1,1,2,2,2,2,1,0,1,1,0,1,0,0,70,70,70,,,,,,,,,,,,,,,,,,,,,,,,,,,,,,,,01_BY,26,M,1,2021_Oct_27_1751,Partial repeat,2021.2.3,120.10215047540554,
6,6,0,1,1,3,3,3,2,0,1,1,0,0,1,0,0,71,71,71,0,0,0,0,,,,,,,475.6526534481736,None,0.9072793300770178,476.1272472335322,None,"[87. 93. 87. 93. 93. 87. 87. 93. 93. 93. 93. 93. 87. 93. 93. 93. 93. 87.
 87. 87. 87. 87. 93. 93. 87. 93. 93. 93. 87. 93. 93. 87. 87. 87.]",477.1097372850263,None,s,1,0.6171766206025495,477.1097372850263,None,None,None,,,,,,,01_BY,26,M,1,2021_Oct_27_1751,Partial repeat,2021.2.3,120.10215047540554,
6,6,0,1,1,3,3,3,2,0,1,1,0,0,1,0,0,71,71,71,1,0,1,0,,,,,,,,,0.7987084660941431,477.7924844839217,None,"[93. 93. 87. 87. 87. 93. 93. 87. 87. 87. 93. 93. 93. 87. 93. 93. 93. 87.
 93. 87. 87. 93. 87. 87. 93. 87. 93. 87. 87. 87. 93. 87. 93. 87.]",478.67506132025846,None,l,1,1.0038537681584785,478.67506132025846,None,None,None,,,,,,,01_BY,26,M,1,2021_Oct_27_1751,Partial repeat,2021.2.3,120.10215047540554,
6,6,0,1,1,3,3,3,2,0,1,1,0,0,1,0,0,71,71,71,,,,,,,,,,,,,,,,,,,,,,,,,,,,,,,,01_BY,26,M,1,2021_Oct_27_1751,Partial repeat,2021.2.3,120.10215047540554,
6,6,0,1,1,3,3,3,3,0,1,1,1,0,1,0,0,72,72,72,0,0,0,0,,,,,,,479.707508139687,None,0.7383407079954486,480.2570309834073,None,"[93. 87. 87. 87. 93. 87. 93. 93. 87. 93. 93. 87. 93. 93. 87. 87. 93. 93.
 87. 93. 87. 87. 93. 93. 87. 93. 93. 87. 87. 87. 93. 93. 87. 93.]",481.0813295207008,None,s,1,0.597582360589513,481.0813295207008,None,None,None,,,,,,,01_BY,26,M,1,2021_Oct_27_1751,Partial repeat,2021.2.3,120.10215047540554,
6,6,0,1,1,3,3,3,3,0,1,1,1,0,1,0,0,72,72,72,1,0,1,0,,,,,,,,,0.7755169220479876,481.7474240360016,None,"[93. 87. 93. 87. 87. 87. 87. 93. 93. 93. 87. 93. 87. 93. 87. 87. 93. 87.
 87. 87. 93. 93. 93. 93. 87. 93. 87. 93. 93. 93. 87. 93. 93. 93.]",482.61334850945605,None,l,1,0.7936208538048959,482.61334850945605,None,None,None,,,,,,,01_BY,26,M,1,2021_Oct_27_1751,Partial repeat,2021.2.3,120.10215047540554,
6,6,0,1,1,3,3,3,3,0,1,1,1,0,1,0,0,72,72,72,,,,,,,,,,,,,,,,,,,,,,,,,,,,,,,,01_BY,26,M,1,2021_Oct_27_1751,Partial repeat,2021.2.3,120.10215047540554,
6,6,0,1,1,3,2,2,2,0,0,0,1,1,1,0,0,73,73,73,0,0,0,0,,,,,,,483.4293120457105,None,0.7707420532458785,484.0287958266299,None,"[87. 93. 93. 87. 87. 93. 87. 87. 93. 93. 87. 93. 87. 87. 87. 87. 87. 87.
 87. 93. 87. 93. 93. 93. 87. 93. 87. 87. 87. 93. 87. 87. 87. 93.]",484.87807050290303,None,s,1,0.6569369712824482,484.87807050290303,None,None,None,,,,,,,01_BY,26,M,1,2021_Oct_27_1751,Partial repeat,2021.2.3,120.10215047540554,
6,6,0,1,1,3,2,2,2,0,0,0,1,1,1,0,0,73,73,73,1,0,1,0,,,,,,,,,0.9809720084800111,485.5941224275639,None,"[87. 93. 93. 93. 93. 87. 93. 93. 93. 87. 93. 93. 93. 93. 87. 93. 93. 87.
 93. 93. 87. 93. 87. 87. 87. 87. 93. 93. 93. 93. 87. 93. 87. 87.]",486.659871407056,None,s,1,0.7151312436117223,486.659871407056,None,None,None,,,,,,,01_BY,26,M,1,2021_Oct_27_1751,Partial repeat,2021.2.3,120.10215047540554,
6,6,0,1,1,3,2,2,2,0,0,0,1,1,1,0,0,73,73,73,,,,,,,,,,,,,,,,,,,,,,,,,,,,,,,,01_BY,26,M,1,2021_Oct_27_1751,Partial repeat,2021.2.3,120.10215047540554,
6,6,0,1,1,2,3,3,2,1,0,0,0,0,1,0,0,74,74,74,0,0,0,0,,,,,,,487.39257601531153,None,0.7711483755022659,487.8921401668222,None,"[93. 87. 87. 93. 93. 87. 93. 93. 93. 93. 93. 93. 87. 87. 87. 93. 87. 87.
 87. 87. 93. 93. 87. 87. 93. 87. 93. 87. 93. 87. 93. 87. 93. 93.]",488.74974727843255,None,l,1,0.7043286794496453,488.74974727843255,None,None,None,,,,,,,01_BY,26,M,1,2021_Oct_27_1751,Partial repeat,2021.2.3,120.10215047540554,
6,6,0,1,1,2,3,3,2,1,0,0,0,0,1,0,0,74,74,74,1,0,1,0,,,,,,,,,0.9130327514282834,489.52407525714716,None,"[87. 93. 93. 87. 93. 87. 87. 87. 93. 87. 87. 93. 87. 93. 93. 93. 87. 93.
 87. 93. 93. 87. 93. 93. 87. 87. 87. 87. 93. 87. 87. 87. 93. 93.]",490.51490640322027,None,s,1,0.7311764974483594,490.51490640322027,None,None,None,,,,,,,01_BY,26,M,1,2021_Oct_27_1751,Partial repeat,2021.2.3,120.10215047540554,
6,6,0,1,1,2,3,3,2,1,0,0,0,0,1,0,0,74,74,74,,,,,,,,,,,,,,,,,,,,,,,,,,,,,,,,01_BY,26,M,1,2021_Oct_27_1751,Partial repeat,2021.2.3,120.10215047540554,
6,6,0,1,1,2,3,3,3,0,1,0,1,0,1,0,0,75,75,75,0,0,0,0,,,,,,,491.27259452684575,None,0.7084505916970134,491.83877935482906,None,"[93. 87. 93. 87. 87. 87. 87. 93. 87. 93. 87. 93. 93. 87. 87. 87. 93. 87.
 93. 87. 87. 93. 87. 93. 93. 93. 87. 93. 93. 87. 93. 87. 87. 93.]",492.6297584135755,None,s,1,0.793130163450769,492.6297584135755,None,None,None,,,,,,,01_BY,26,M,1,2021_Oct_27_1751,Partial repeat,2021.2.3,120.10215047540554,
6,6,0,1,1,2,3,3,3,0,1,0,1,0,1,0,0,75,75,75,1,0,1,0,,,,,,,,,0.7931074855602908,493.4873469238528,None,"[87. 93. 93. 87. 93. 87. 93. 93. 87. 93. 87. 93. 87. 93. 93. 87. 93. 93.
 87. 93. 93. 87. 87. 87. 87. 93. 87. 93. 87. 87. 87. 87. 87. 87.]",494.3699179873611,None,l,1,1.388216332526099,494.3699179873611,None,None,None,,,,,,,01_BY,26,M,1,2021_Oct_27_1751,Partial repeat,2021.2.3,120.10215047540554,
6,6,0,1,1,2,3,3,3,0,1,0,1,0,1,0,0,75,75,75,,,,,,,,,,,,,,,,,,,,,,,,,,,,,,,,01_BY,26,M,1,2021_Oct_27_1751,Partial repeat,2021.2.3,120.10215047540554,
6,6,0,1,1,2,2,2,3,1,1,1,0,1,1,0,0,76,76,76,0,0,0,0,,,,,,,495.77707295827895,None,0.855811742589929,496.4764568051378,None,"[87. 87. 87. 93. 93. 87. 93. 87. 87. 87. 93. 87. 93. 87. 93. 93. 87. 87.
 87. 87. 93. 93. 93. 93. 87. 87. 93. 93. 93. 93. 87. 93. 87. 93.]",497.40897950517865,None,l,1,0.7492409581254833,497.40897950517865,None,None,None,,,,,,,01_BY,26,M,1,2021_Oct_27_1751,Partial repeat,2021.2.3,120.10215047540554,
6,6,0,1,1,2,2,2,3,1,1,1,0,1,1,0,0,76,76,76,1,0,1,0,,,,,,,,,0.8932138461649349,498.2249257229505,None,"[87. 87. 93. 87. 93. 87. 93. 93. 93. 87. 87. 93. 93. 93. 93. 87. 93. 93.
 93. 87. 87. 93. 87. 93. 87. 87. 93. 93. 87. 93. 87. 93. 87. 93.]",499.207437262191,None,l,1,0.6627508501860575,499.207437262191,None,None,None,,,,,,,01_BY,26,M,1,2021_Oct_27_1751,Partial repeat,2021.2.3,120.10215047540554,
6,6,0,1,1,2,2,2,3,1,1,1,0,1,1,0,0,76,76,76,,,,,,,,,,,,,,,,,,,,,,,,,,,,,,,,01_BY,26,M,1,2021_Oct_27_1751,Partial repeat,2021.2.3,120.10215047540554,
6,6,0,1,1,3,3,2,3,0,1,1,0,0,1,0,0,77,77,77,0,0,0,0,,,,,,,499.8818751170602,None,0.9520769013108219,500.52297232634646,None,"[93. 87. 87. 87. 93. 87. 93. 93. 87. 93. 87. 93. 87. 87. 87. 87. 87. 93.
 93. 93. 87. 93. 87. 87. 93. 87. 87. 87. 87. 87. 93. 93. 93. 87.]",501.5637464497104,None,s,1,0.8357554402264213,501.5637464497104,None,None,None,,,,,,,01_BY,26,M,1,2021_Oct_27_1751,Partial repeat,2021.2.3,120.10215047540554,
6,6,0,1,1,3,3,2,3,0,1,1,0,0,1,0,0,77,77,77,1,0,1,0,,,,,,,,,0.7027529805501372,502.4629750075046,None,"[93. 93. 87. 87. 93. 87. 87. 87. 87. 93. 93. 93. 93. 87. 87. 93. 87. 93.
 93. 93. 93. 87. 87. 93. 93. 87. 93. 87. 93. 93. 87. 93. 93. 93.]",503.25396080121664,None,l,1,0.9993089492072613,503.25396080121664,None,None,None,,,,,,,01_BY,26,M,1,2021_Oct_27_1751,Partial repeat,2021.2.3,120.10215047540554,
6,6,0,1,1,3,3,2,3,0,1,1,0,0,1,0,0,77,77,77,,,,,,,,,,,,,,,,,,,,,,,,,,,,,,,,01_BY,26,M,1,2021_Oct_27_1751,Partial repeat,2021.2.3,120.10215047540554,
6,6,0,1,1,3,3,2,2,1,0,1,1,0,1,0,0,78,78,78,0,0,0,0,,,,,,,504.2697575027514,None,0.7585233844392063,504.9275263176796,None,"[87. 93. 87. 87. 93. 87. 93. 93. 93. 93. 87. 93. 93. 87. 93. 93. 87. 87.
 87. 87. 87. 87. 93. 93. 87. 93. 93. 93. 87. 87. 87. 93. 93. 93.]",505.76846695505174,None,l,1,0.8208429434653226,505.76846695505174,None,None,None,,,,,,,01_BY,26,M,1,2021_Oct_27_1751,Partial repeat,2021.2.3,120.10215047540554,
6,6,0,1,1,3,3,2,2,1,0,1,1,0,1,0,0,78,78,78,1,0,1,0,,,,,,,,,0.9847480125944414,506.65104058426095,None,"[93. 93. 87. 93. 93. 87. 87. 93. 93. 87. 93. 93. 93. 93. 93. 87. 93. 93.
 93. 93. 87. 87. 87. 93. 87. 87. 87. 87. 93. 93. 93. 93. 93. 93.]",507.7251268097816,None,s,1,0.9601569904234566,507.7251268097816,None,None,None,,,,,,,01_BY,26,M,1,2021_Oct_27_1751,Partial repeat,2021.2.3,120.10215047540554,
6,6,0,1,1,3,3,2,2,1,0,1,1,0,1,0,0,78,78,78,,,,,,,,,,,,,,,,,,,,,,,,,,,,,,,,01_BY,26,M,1,2021_Oct_27_1751,Partial repeat,2021.2.3,120.10215047540554,
6,6,0,1,1,3,2,3,3,0,1,0,1,0,1,0,0,79,79,79,0,0,0,0,,,,,,,508.7076133334358,None,0.7735066745094734,509.3070974350685,None,"[87. 87. 87. 93. 87. 87. 93. 93. 93. 87. 87. 87. 87. 93. 87. 93. 93. 93.
 87. 87. 87. 93. 87. 93. 87. 87. 87. 93. 87. 93. 87. 87. 93. 93.]",510.16469877385134,None,s,1,0.729587045560038,510.16469877385134,None,None,None,,,,,,,01_BY,26,M,1,2021_Oct_27_1751,Partial repeat,2021.2.3,120.10215047540554,
6,6,0,1,1,3,2,3,3,0,1,0,1,0,1,0,0,79,79,79,1,0,1,0,,,,,,,,,0.7027627763436411,510.9473534150766,None,"[93. 93. 93. 87. 93. 93. 93. 93. 87. 93. 93. 87. 93. 87. 87. 93. 87. 87.
 93. 87. 87. 87. 93. 93. 93. 87. 93. 93. 93. 87. 93. 87. 87. 87.]",511.73834883016843,None,l,1,0.8350020862126257,511.73834883016843,None,None,None,,,,,,,01_BY,26,M,1,2021_Oct_27_1751,Partial repeat,2021.2.3,120.10215047540554,
6,6,0,1,1,3,2,3,3,0,1,0,1,0,1,0,0,79,79,79,,,,,,,,,,,,,,,,,,,,,,,,,,,,,,,,01_BY,26,M,1,2021_Oct_27_1751,Partial repeat,2021.2.3,120.10215047540554,
6,6,0,1,1,2,3,2,2,1,0,0,1,0,1,0,0,80,80,80,0,0,0,0,,,,,,,512.6042800385876,None,0.9497437595407621,513.195435232722,None,"[93. 87. 93. 87. 93. 87. 87. 93. 87. 87. 93. 93. 93. 93. 93. 93. 93. 93.
 93. 87. 87. 87. 93. 87. 87. 93. 93. 93. 93. 93. 87. 87. 93. 93.]",514.2278759586097,None,l,1,0.6654942261875476,514.2278759586097,None,None,None,,,,,,,01_BY,26,M,1,2021_Oct_27_1751,Partial repeat,2021.2.3,120.10215047540554,
6,6,0,1,1,2,3,2,2,1,0,0,1,0,1,0,0,80,80,80,1,0,1,0,,,,,,,,,0.9240246037248353,514.9522670535744,None,"[93. 93. 87. 93. 87. 87. 87. 93. 93. 87. 87. 87. 93. 93. 87. 87. 93. 93.
 93. 87. 93. 87. 87. 87. 87. 93. 93. 93. 93. 93. 87. 93. 93. 93.]",515.959724264093,None,s,1,0.7896982173924698,515.959724264093,None,None,None,,,,,,,01_BY,26,M,1,2021_Oct_27_1751,Partial repeat,2021.2.3,120.10215047540554,
6,6,0,1,1,2,3,2,2,1,0,0,1,0,1,0,0,80,80,80,,,,,,,,,,,,,,,,,,,,,,,,,,,,,,,,01_BY,26,M,1,2021_Oct_27_1751,Partial repeat,2021.2.3,120.10215047540554,
6,6,0,1,1,2,3,2,3,1,0,0,0,0,1,0,0,81,81,81,0,0,0,0,,,,,,,516.7590434552812,None,0.7665569131511296,517.32521449262,None,"[93. 87. 93. 93. 93. 93. 87. 87. 93. 93. 93. 87. 87. 87. 87. 87. 93. 93.
 93. 93. 87. 93. 87. 93. 93. 87. 93. 93. 93. 87. 87. 93. 87. 93.]",518.1744853203409,None,l,1,1.230939170088277,518.1744853203409,None,None,None,,,,,,,01_BY,26,M,1,2021_Oct_27_1751,Partial repeat,2021.2.3,120.10215047540554,
6,6,0,1,1,2,3,2,3,1,0,0,0,0,1,0,0,81,81,81,1,0,1,0,,,,,,,,,0.8822784305531044,519.4733802086939,None,"[87. 87. 93. 87. 87. 93. 87. 93. 87. 93. 87. 93. 87. 93. 93. 87. 93. 87.
 93. 87. 87. 87. 87. 87. 87. 87. 93. 87. 93. 93. 93. 93. 87. 93.]",520.4391899953043,None,s,1,0.7733274402153256,520.4391899953043,None,None,None,,,,,,,01_BY,26,M,1,2021_Oct_27_1751,Partial repeat,2021.2.3,120.10215047540554,
6,6,0,1,1,2,3,2,3,1,0,0,0,0,1,0,0,81,81,81,,,,,,,,,,,,,,,,,,,,,,,,,,,,,,,,01_BY,26,M,1,2021_Oct_27_1751,Partial repeat,2021.2.3,120.10215047540554,
6,6,0,1,1,3,2,3,2,1,0,0,0,0,1,0,0,82,82,82,0,0,0,0,,,,,,,521.2301995217531,None,0.8627299005467752,521.7880483865583,None,"[93. 87. 87. 93. 93. 87. 87. 87. 87. 87. 93. 87. 87. 93. 87. 87. 93. 93.
 93. 87. 87. 87. 93. 93. 93. 93. 93. 87. 87. 87. 93. 93. 93. 93.]",522.7372410886783,None,l,1,0.731255713473729,522.7372410886783,None,None,None,,,,,,,01_BY,26,M,1,2021_Oct_27_1751,Partial repeat,2021.2.3,120.10215047540554,
6,6,0,1,1,3,2,3,2,1,0,0,0,0,1,0,0,82,82,82,1,0,1,0,,,,,,,,,0.9454364520287297,523.544877962423,None,"[87. 93. 87. 93. 93. 93. 87. 87. 93. 93. 87. 87. 87. 87. 87. 93. 93. 93.
 93. 87. 93. 93. 93. 87. 93. 87. 87. 93. 93. 93. 87. 93. 87. 87.]",524.5773276682648,None,s,1,0.6193228296506277,524.5773276682648,None,None,None,,,,,,,01_BY,26,M,1,2021_Oct_27_1751,Partial repeat,2021.2.3,120.10215047540554,
6,6,0,1,1,3,2,3,2,1,0,0,0,0,1,0,0,82,82,82,,,,,,,,,,,,,,,,,,,,,,,,,,,,,,,,01_BY,26,M,1,2021_Oct_27_1751,Partial repeat,2021.2.3,120.10215047540554,
6,6,0,1,1,2,3,3,2,0,1,0,0,0,1,0,0,83,83,83,0,0,0,0,,,,,,,525.2184405924718,None,0.9710952811420979,525.7513168461373,None,"[93. 87. 93. 93. 93. 87. 93. 93. 87. 93. 87. 87. 87. 93. 87. 93. 87. 87.
 93. 93. 93. 93. 87. 87. 87. 87. 87. 87. 93. 87. 93. 93. 93. 93.]",526.8087423702455,None,s,1,0.5957825212026364,526.8087423702455,None,None,None,,,,,,,01_BY,26,M,1,2021_Oct_27_1751,Partial repeat,2021.2.3,120.10215047540554,
6,6,0,1,1,2,3,3,2,0,1,0,0,0,1,0,0,83,83,83,1,0,1,0,,,,,,,,,0.7487783916976658,527.4748352819834,None,"[87. 93. 87. 87. 93. 93. 87. 87. 93. 93. 87. 87. 93. 93. 87. 87. 93. 93.
 93. 93. 87. 93. 93. 87. 87. 87. 87. 87. 93. 93. 93. 87. 93. 87.]",528.3074588782238,None,l,1,0.63310738002383,528.3074588782238,None,None,None,,,,,,,01_BY,26,M,1,2021_Oct_27_1751,Partial repeat,2021.2.3,120.10215047540554,
6,6,0,1,1,2,3,3,2,0,1,0,0,0,1,0,0,83,83,83,,,,,,,,,,,,,,,,,,,,,,,,,,,,,,,,01_BY,26,M,1,2021_Oct_27_1751,Partial repeat,2021.2.3,120.10215047540554,
6,6,0,1,1,3,3,2,2,1,1,1,1,1,1,0,0,84,84,84,0,0,0,0,,,,,,,528.9652347488309,None,0.7516775529158923,529.5813571019889,None,"[93. 93. 87. 87. 93. 87. 93. 87. 87. 93. 87. 93. 93. 93. 87. 87. 87. 87.
 93. 87. 93. 87. 87. 87. 87. 93. 93. 93. 93. 87. 87. 87. 93. 87.]",530.4222932493831,None,l,1,0.5983100575904245,530.4222932493831,None,None,None,,,,,,,01_BY,26,M,1,2021_Oct_27_1751,Partial repeat,2021.2.3,120.10215047540554,
6,6,0,1,1,3,3,2,2,1,1,1,1,1,1,0,0,84,84,84,1,0,1,0,,,,,,,,,0.9093253578821823,531.0800710442654,None,"[87. 93. 93. 87. 93. 87. 87. 93. 87. 93. 87. 87. 87. 93. 87. 93. 93. 87.
 93. 87. 87. 93. 93. 87. 87. 87. 87. 87. 93. 93. 93. 87. 87. 93.]",532.0792185900445,None,l,1,0.6053634908830645,532.0792185900445,None,None,None,,,,,,,01_BY,26,M,1,2021_Oct_27_1751,Partial repeat,2021.2.3,120.10215047540554,
6,6,0,1,1,3,3,2,2,1,1,1,1,1,1,0,0,84,84,84,,,,,,,,,,,,,,,,,,,,,,,,,,,,,,,,01_BY,26,M,1,2021_Oct_27_1751,Partial repeat,2021.2.3,120.10215047540554,
6,6,0,1,1,3,2,2,2,0,1,0,1,0,1,0,0,85,85,85,0,0,0,0,,,,,,,532.7036826792073,None,0.8036305632772276,533.261537316841,None,"[87. 93. 93. 93. 93. 87. 93. 93. 87. 93. 93. 93. 87. 87. 93. 87. 93. 87.
 93. 93. 93. 87. 93. 87. 93. 87. 87. 87. 93. 87. 87. 93. 87. 93.]",534.1524315150209,None,s,1,0.6601861111312246,534.1524315150209,None,None,None,,,,,,,01_BY,26,M,1,2021_Oct_27_1751,Partial repeat,2021.2.3,120.10215047540554,
6,6,0,1,1,3,2,2,2,0,1,0,1,0,1,0,0,85,85,85,1,0,1,0,,,,,,,,,0.9871488315611617,534.8851396511154,None,"[87. 93. 87. 93. 87. 87. 93. 93. 93. 93. 93. 93. 87. 87. 93. 93. 93. 93.
 93. 87. 93. 93. 93. 87. 87. 87. 93. 93. 87. 87. 93. 87. 93. 87.]",535.9508963277121,None,l,1,0.6528135687522081,535.9508963277121,None,None,None,,,,,,,01_BY,26,M,1,2021_Oct_27_1751,Partial repeat,2021.2.3,120.10215047540554,
6,6,0,1,1,3,2,2,2,0,1,0,1,0,1,0,0,85,85,85,,,,,,,,,,,,,,,,,,,,,,,,,,,,,,,,01_BY,26,M,1,2021_Oct_27_1751,Partial repeat,2021.2.3,120.10215047540554,
6,6,0,1,1,2,2,2,3,0,1,1,0,0,1,0,0,86,86,86,0,0,0,0,,,,,,,536.6253232783502,None,0.8487092344211415,537.2081444335827,None,"[87. 93. 93. 87. 93. 93. 87. 87. 87. 93. 93. 87. 93. 93. 93. 87. 93. 93.
 87. 87. 93. 93. 93. 93. 87. 93. 93. 87. 93. 87. 87. 93. 93. 87.]",538.1406866970956,None,s,1,0.6389837978949799,538.1406866970956,None,None,None,,,,,,,01_BY,26,M,1,2021_Oct_27_1751,Partial repeat,2021.2.3,120.10215047540554,
6,6,0,1,1,2,2,2,3,0,1,1,0,0,1,0,0,86,86,86,1,0,1,0,,,,,,,,,0.8147893783227591,538.8400759960696,None,"[93. 87. 93. 93. 93. 93. 93. 93. 87. 93. 87. 93. 87. 93. 93. 93. 93. 93.
 87. 93. 87. 93. 87. 87. 87. 93. 87. 87. 87. 93. 93. 87. 93. 87.]",539.739313533817,None,l,1,0.86439347623309,539.739313533817,None,None,None,,,,,,,01_BY,26,M,1,2021_Oct_27_1751,Partial repeat,2021.2.3,120.10215047540554,
6,6,0,1,1,2,2,2,3,0,1,1,0,0,1,0,0,86,86,86,,,,,,,,,,,,,,,,,,,,,,,,,,,,,,,,01_BY,26,M,1,2021_Oct_27_1751,Partial repeat,2021.2.3,120.10215047540554,
6,6,0,1,1,3,3,2,3,1,1,1,0,1,1,0,0,87,87,87,0,0,0,0,,,,,,,540.6218855594634,None,0.7757740493029318,541.2546698968845,None,"[87. 93. 93. 87. 93. 87. 93. 93. 93. 93. 93. 93. 87. 87. 93. 93. 87. 87.
 87. 87. 93. 93. 87. 93. 93. 93. 93. 93. 87. 93. 93. 93. 93. 93.]",542.1205972567523,None,l,1,0.6431270846096595,542.1205972567523,None,None,None,,,,,,,01_BY,26,M,1,2021_Oct_27_1751,Partial repeat,2021.2.3,120.10215047540554,
6,6,0,1,1,3,3,2,3,1,1,1,0,1,1,0,0,87,87,87,1,0,1,0,,,,,,,,,0.997523191179321,542.828320273914,None,"[87. 87. 87. 87. 87. 93. 93. 93. 93. 93. 87. 87. 93. 87. 93. 93. 93. 87.
 93. 87. 93. 87. 93. 87. 93. 93. 93. 87. 93. 93. 93. 87. 87. 87.]",543.9024090651355,None,l,1,0.5893397247928078,543.9024090651355,None,None,None,,,,,,,01_BY,26,M,1,2021_Oct_27_1751,Partial repeat,2021.2.3,120.10215047540554,
6,6,0,1,1,3,3,2,3,1,1,1,0,1,1,0,0,87,87,87,,,,,,,,,,,,,,,,,,,,,,,,,,,,,,,,01_BY,26,M,1,2021_Oct_27_1751,Partial repeat,2021.2.3,120.10215047540554,
6,6,0,1,1,3,3,3,3,1,0,1,1,0,1,0,0,88,88,88,0,0,0,0,,,,,,,544.5102082836229,None,0.8778610157872057,545.1097074587497,None,"[87. 93. 87. 93. 93. 87. 93. 93. 87. 93. 93. 93. 93. 93. 93. 87. 93. 87.
 87. 87. 87. 87. 87. 87. 87. 87. 93. 93. 93. 87. 87. 87. 87. 87.]",546.0755089068316,None,l,1,0.5922585306125256,546.0755089068316,None,None,None,,,,,,,01_BY,26,M,1,2021_Oct_27_1751,Partial repeat,2021.2.3,120.10215047540554,
6,6,0,1,1,3,3,3,3,1,0,1,1,0,1,0,0,88,88,88,1,0,1,0,,,,,,,,,0.8409499307610747,546.7333001716452,None,"[93. 87. 93. 87. 93. 87. 93. 87. 93. 93. 93. 93. 87. 87. 87. 87. 87. 93.
 93. 93. 93. 87. 93. 93. 87. 87. 87. 87. 93. 87. 87. 93. 93. 87.]",547.6575077548314,None,s,1,0.6584314922274643,547.6575077548314,None,None,None,,,,,,,01_BY,26,M,1,2021_Oct_27_1751,Partial repeat,2021.2.3,120.10215047540554,
6,6,0,1,1,3,3,3,3,1,0,1,1,0,1,0,0,88,88,88,,,,,,,,,,,,,,,,,,,,,,,,,,,,,,,,01_BY,26,M,1,2021_Oct_27_1751,Partial repeat,2021.2.3,120.10215047540554,
6,6,0,1,1,3,2,3,2,1,1,0,0,1,1,0,0,89,89,89,0,0,0,0,,,,,,,548.3485796919622,None,0.9473520676126,548.9730485918144,None,"[93. 87. 93. 87. 93. 87. 87. 87. 87. 93. 93. 87. 93. 87. 93. 87. 93. 87.
 93. 87. 87. 87. 87. 87. 87. 93. 87. 93. 87. 87. 93. 87. 93. 87.]",549.9971796529635,None,l,1,0.5906546466540021,549.9971796529635,None,None,None,,,,,,,01_BY,26,M,1,2021_Oct_27_1751,Partial repeat,2021.2.3,120.10215047540554,
6,6,0,1,1,3,2,3,2,1,1,0,0,1,1,0,0,89,89,89,1,0,1,0,,,,,,,,,0.7676265185418846,550.6549398086499,None,"[93. 93. 87. 93. 93. 87. 87. 93. 87. 87. 93. 93. 93. 93. 93. 93. 87. 93.
 87. 93. 87. 87. 87. 87. 93. 87. 93. 87. 87. 87. 87. 87. 93. 93.]",551.5042151263478,None,l,1,0.6187048163756117,551.5042151263478,None,None,None,,,,,,,01_BY,26,M,1,2021_Oct_27_1751,Partial repeat,2021.2.3,120.10215047540554,
6,6,0,1,1,3,2,3,2,1,1,0,0,1,1,0,0,89,89,89,,,,,,,,,,,,,,,,,,,,,,,,,,,,,,,,01_BY,26,M,1,2021_Oct_27_1751,Partial repeat,2021.2.3,120.10215047540554,
6,6,0,1,1,3,2,3,3,1,0,0,1,0,1,0,0,90,90,90,0,0,0,0,,,,,,,552.153649902375,None,0.8027319020055198,552.6948541014017,None,"[93. 93. 93. 87. 93. 87. 87. 87. 87. 93. 93. 87. 93. 87. 93. 93. 87. 93.
 93. 93. 87. 87. 87. 87. 93. 93. 87. 93. 87. 87. 93. 87. 87. 87.]",553.5857800501335,None,l,1,0.7451175555952432,553.5857800501335,None,None,None,,,,,,,01_BY,26,M,1,2021_Oct_27_1751,Partial repeat,2021.2.3,120.10215047540554,
6,6,0,1,1,3,2,3,3,1,0,0,1,0,1,0,0,90,90,90,1,0,1,0,,,,,,,,,0.7810002893742647,554.3933912668663,None,"[87. 87. 87. 87. 93. 93. 87. 87. 87. 87. 93. 87. 87. 87. 93. 93. 87. 93.
 93. 93. 87. 93. 87. 93. 87. 93. 87. 93. 93. 93. 87. 93. 93. 93.]",555.2593285688263,None,s,1,0.879567033091007,555.2593285688263,None,None,None,,,,,,,01_BY,26,M,1,2021_Oct_27_1751,Partial repeat,2021.2.3,120.10215047540554,
6,6,0,1,1,3,2,3,3,1,0,0,1,0,1,0,0,90,90,90,,,,,,,,,,,,,,,,,,,,,,,,,,,,,,,,01_BY,26,M,1,2021_Oct_27_1751,Partial repeat,2021.2.3,120.10215047540554,
6,6,0,1,1,2,3,3,3,0,0,0,1,1,1,0,0,91,91,91,0,0,0,0,,,,,,,556.1585529573549,None,0.7438729441419072,556.7580300033096,None,"[87. 93. 87. 87. 93. 93. 87. 93. 93. 93. 93. 93. 93. 87. 93. 87. 87. 93.
 93. 87. 93. 87. 93. 93. 87. 87. 87. 93. 87. 87. 87. 93. 93. 87.]",557.5823278991784,None,s,1,0.5731344353434906,557.5823278991784,None,None,None,,,,,,,01_BY,26,M,1,2021_Oct_27_1751,Partial repeat,2021.2.3,120.10215047540554,
6,6,0,1,1,2,3,3,3,0,0,0,1,1,1,0,0,91,91,91,1,0,1,0,,,,,,,,,0.7843885238289319,558.2234379369711,None,"[93. 93. 93. 93. 87. 93. 87. 93. 87. 93. 87. 93. 93. 93. 87. 87. 93. 93.
 93. 93. 87. 93. 93. 93. 87. 87. 87. 87. 93. 93. 93. 93. 93. 93.]",559.0976948457628,None,s,1,0.6897131626010378,559.0976948457628,None,None,None,,,,,,,01_BY,26,M,1,2021_Oct_27_1751,Partial repeat,2021.2.3,120.10215047540554,
6,6,0,1,1,2,3,3,3,0,0,0,1,1,1,0,0,91,91,91,,,,,,,,,,,,,,,,,,,,,,,,,,,,,,,,01_BY,26,M,1,2021_Oct_27_1751,Partial repeat,2021.2.3,120.10215047540554,
6,6,0,1,1,2,2,2,3,1,0,1,0,0,1,0,0,92,92,92,0,0,0,0,,,,,,,559.8137175855727,None,0.7895855793148019,560.3466384182966,None,"[87. 87. 93. 93. 87. 87. 87. 93. 93. 87. 87. 87. 93. 93. 87. 87. 87. 87.
 87. 87. 87. 87. 87. 93. 87. 87. 93. 93. 93. 87. 93. 87. 87. 87.]",561.2208796121686,None,l,1,0.5981038393574636,561.2208796121686,None,None,None,,,,,,,01_BY,26,M,1,2021_Oct_27_1751,Partial repeat,2021.2.3,120.10215047540554,
6,6,0,1,1,2,2,2,3,1,0,1,0,0,1,0,0,92,92,92,1,0,1,0,,,,,,,,,0.8415678764192962,561.8869596954,None,"[93. 87. 93. 93. 87. 93. 93. 93. 87. 93. 87. 87. 87. 87. 93. 93. 87. 93.
 87. 87. 87. 87. 87. 87. 93. 93. 87. 87. 87. 87. 87. 93. 87. 87.]",562.8028486338926,None,s,1,0.5361482490789058,562.8028486338926,None,None,None,,,,,,,01_BY,26,M,1,2021_Oct_27_1751,Partial repeat,2021.2.3,120.10215047540554,
6,6,0,1,1,2,2,2,3,1,0,1,0,0,1,0,0,92,92,92,,,,,,,,,,,,,,,,,,,,,,,,,,,,,,,,01_BY,26,M,1,2021_Oct_27_1751,Partial repeat,2021.2.3,120.10215047540554,
6,6,0,1,1,2,2,3,3,0,1,1,1,0,1,0,0,93,93,93,0,0,0,0,,,,,,,563.360699422974,None,0.9708612755188644,563.9268868166573,None,"[87. 93. 93. 87. 87. 93. 93. 87. 93. 87. 93. 87. 93. 87. 93. 93. 93. 93.
 93. 93. 93. 93. 93. 93. 93. 87. 87. 93. 93. 87. 93. 87. 93. 87.]",564.9759808675662,None,s,1,0.6670535310877312,564.9759808675662,None,None,None,,,,,,,01_BY,26,M,1,2021_Oct_27_1751,Partial repeat,2021.2.3,120.10215047540554,
6,6,0,1,1,2,2,3,3,0,1,1,1,0,1,0,0,93,93,93,1,0,1,0,,,,,,,,,0.9883135205757932,565.7086832308332,None,"[93. 87. 93. 87. 87. 87. 87. 93. 93. 87. 87. 87. 87. 87. 87. 87. 93. 87.
 93. 87. 93. 93. 93. 87. 87. 87. 87. 93. 93. 93. 93. 93. 93. 93.]",566.774431889613,None,l,1,0.740623088529901,566.774431889613,None,None,None,,,,,,,01_BY,26,M,1,2021_Oct_27_1751,Partial repeat,2021.2.3,120.10215047540554,
6,6,0,1,1,2,2,3,3,0,1,1,1,0,1,0,0,93,93,93,,,,,,,,,,,,,,,,,,,,,,,,,,,,,,,,01_BY,26,M,1,2021_Oct_27_1751,Partial repeat,2021.2.3,120.10215047540554,
6,6,0,1,1,2,2,3,3,1,0,1,1,0,1,0,0,94,94,94,0,0,0,0,,,,,,,567.5237911057402,None,0.7006550952363602,568.0816447812349,None,"[87. 93. 87. 93. 87. 87. 87. 93. 87. 93. 87. 93. 87. 93. 93. 87. 87. 87.
 87. 87. 87. 93. 87. 93. 93. 87. 87. 93. 93. 87. 93. 93. 93. 93.]",568.8643103266904,None,l,1,0.6817729588337897,568.8643103266904,None,None,None,,,,,,,01_BY,26,M,1,2021_Oct_27_1751,Partial repeat,2021.2.3,120.10215047540554,
6,6,0,1,1,2,2,3,3,1,0,1,1,0,1,0,0,94,94,94,1,0,1,0,,,,,,,,,0.9509536116114348,569.6053406353185,None,"[93. 87. 87. 87. 93. 87. 87. 87. 93. 93. 87. 87. 87. 93. 87. 87. 87. 93.
 87. 87. 93. 93. 87. 93. 93. 93. 87. 87. 87. 93. 87. 93. 87. 93.]",570.6461070615796,None,s,1,0.9645937292107192,570.6461070615796,None,None,None,,,,,,,01_BY,26,M,1,2021_Oct_27_1751,Partial repeat,2021.2.3,120.10215047540554,
6,6,0,1,1,2,2,3,3,1,0,1,1,0,1,0,0,94,94,94,,,,,,,,,,,,,,,,,,,,,,,,,,,,,,,,01_BY,26,M,1,2021_Oct_27_1751,Partial repeat,2021.2.3,120.10215047540554,
6,6,0,1,1,2,3,3,3,1,0,0,1,0,1,0,0,95,95,95,0,0,0,0,,,,,,,571.6369308312615,None,0.9719896379481432,572.1031915398571,None,"[93. 93. 87. 93. 87. 93. 87. 87. 93. 87. 87. 93. 93. 93. 87. 87. 87. 87.
 93. 87. 87. 93. 93. 87. 87. 87. 87. 87. 93. 93. 93. 93. 93. 93.]",573.1523048335239,None,l,1,0.5859077787345086,573.1523048335239,None,None,None,,,,,,,01_BY,26,M,1,2021_Oct_27_1751,Partial repeat,2021.2.3,120.10215047540554,
6,6,0,1,1,2,3,3,3,1,0,0,1,0,1,0,0,95,95,95,1,0,1,0,,,,,,,,,0.7351353989882264,573.7934119849033,None,"[93. 87. 87. 87. 87. 93. 93. 87. 93. 93. 93. 93. 87. 87. 87. 87. 87. 93.
 93. 87. 87. 93. 87. 93. 93. 93. 93. 93. 87. 93. 93. 87. 93. 87.]",574.609378407572,None,s,1,0.6807700903800651,574.609378407572,None,None,None,,,,,,,01_BY,26,M,1,2021_Oct_27_1751,Partial repeat,2021.2.3,120.10215047540554,
6,6,0,1,1,2,3,3,3,1,0,0,1,0,1,0,0,95,95,95,,,,,,,,,,,,,,,,,,,,,,,,,,,,,,,,01_BY,26,M,1,2021_Oct_27_1751,Partial repeat,2021.2.3,120.10215047540554,
6,6,0,1,1,2,3,2,3,0,1,0,0,0,1,0,0,96,96,96,0,0,0,0,,,,,,,575.3087750829363,None,0.924335076159507,575.8499860169286,None,"[87. 87. 87. 93. 87. 93. 93. 93. 93. 93. 87. 93. 93. 87. 93. 87. 87. 87.
 93. 87. 87. 87. 87. 93. 93. 93. 93. 87. 87. 93. 93. 93. 87. 93.]",576.8574477174234,None,s,1,0.7041112362730928,576.8574477174234,None,None,None,,,,,,,01_BY,26,M,1,2021_Oct_27_1751,Partial repeat,2021.2.3,120.10215047540554,
6,6,0,1,1,2,3,2,3,0,1,0,0,0,1,0,0,96,96,96,1,0,1,0,,,,,,,,,0.8101680256734562,577.631784676093,None,"[87. 87. 87. 87. 93. 93. 93. 93. 87. 93. 87. 93. 87. 87. 93. 93. 93. 87.
 93. 93. 93. 87. 93. 87. 87. 93. 93. 87. 93. 93. 93. 87. 93. 87.]",578.5226865713767,None,l,1,0.8635233828154014,578.5226865713767,None,None,None,,,,,,,01_BY,26,M,1,2021_Oct_27_1751,Partial repeat,2021.2.3,120.10215047540554,
6,6,0,1,1,2,3,2,3,0,1,0,0,0,1,0,0,96,96,96,,,,,,,,,,,,,,,,,,,,,,,,,,,,,,,,01_BY,26,M,1,2021_Oct_27_1751,Partial repeat,2021.2.3,120.10215047540554,
6,6,0,1,1,2,2,3,2,1,1,1,0,1,1,0,0,97,97,97,0,0,0,0,,,,,,,579.4052589177354,None,0.7211673873626769,580.0380506315469,None,"[87. 87. 87. 93. 93. 87. 93. 93. 87. 87. 87. 87. 93. 93. 93. 87. 93. 93.
 87. 87. 93. 93. 93. 93. 93. 87. 87. 93. 87. 93. 87. 87. 93. 93.]",580.8373666156094,None,l,1,0.7248459504662605,580.8373666156094,None,None,None,,,,,,,01_BY,26,M,1,2021_Oct_27_1751,Partial repeat,2021.2.3,120.10215047540554,
6,6,0,1,1,2,2,3,2,1,1,1,0,1,1,0,0,97,97,97,1,0,1,0,,,,,,,,,0.9994959244985236,581.6283450329302,None,"[93. 87. 87. 87. 87. 87. 93. 87. 87. 87. 87. 87. 87. 87. 93. 87. 93. 87.
 87. 87. 87. 93. 87. 87. 87. 87. 93. 93. 87. 93. 87. 93. 93. 87.]",582.7107582416738,None,l,1,0.8665489859486115,582.7107582416738,None,None,None,,,,,,,01_BY,26,M,1,2021_Oct_27_1751,Partial repeat,2021.2.3,120.10215047540554,
6,6,0,1,1,2,2,3,2,1,1,1,0,1,1,0,0,97,97,97,,,,,,,,,,,,,,,,,,,,,,,,,,,,,,,,01_BY,26,M,1,2021_Oct_27_1751,Partial repeat,2021.2.3,120.10215047540554,
6,6,0,1,1,3,3,3,3,0,0,1,1,1,1,0,0,98,98,98,0,0,0,0,,,,,,,583.5933312294583,None,0.8959852619567975,584.1178769720618,None,"[87. 93. 87. 93. 93. 87. 93. 87. 87. 87. 87. 93. 93. 87. 93. 87. 87. 87.
 93. 87. 87. 93. 93. 87. 93. 87. 93. 93. 87. 87. 93. 87. 93. 87.]",585.0920390781948,None,s,1,0.9652155910380316,585.0920390781948,None,None,None,,,,,,,01_BY,26,M,1,2021_Oct_27_1751,Partial repeat,2021.2.3,120.10215047540554,
6,6,0,1,1,3,3,3,3,0,0,1,1,1,1,0,0,98,98,98,1,0,1,0,,,,,,,,,0.8579852732599563,586.1161662907916,None,"[93. 93. 93. 93. 87. 87. 93. 87. 93. 93. 93. 93. 87. 93. 87. 93. 93. 93.
 93. 93. 87. 87. 87. 87. 87. 87. 93. 87. 93. 93. 93. 87. 93. 93.]",587.0487018193389,None,s,1,0.5605878357955589,587.0487018193389,None,None,None,,,,,,,01_BY,26,M,1,2021_Oct_27_1751,Partial repeat,2021.2.3,120.10215047540554,
6,6,0,1,1,3,3,3,3,0,0,1,1,1,1,0,0,98,98,98,,,,,,,,,,,,,,,,,,,,,,,,,,,,,,,,01_BY,26,M,1,2021_Oct_27_1751,Partial repeat,2021.2.3,120.10215047540554,
6,6,0,1,1,2,3,3,3,1,1,0,1,1,1,0,0,99,99,99,0,0,0,0,,,,,,,587.6315325959504,None,0.8578582172803877,588.1644030767884,None,"[87. 93. 93. 93. 93. 93. 93. 93. 87. 87. 93. 93. 93. 87. 87. 87. 87. 87.
 87. 93. 87. 87. 93. 93. 87. 93. 93. 93. 87. 87. 93. 87. 93. 93.]",589.1052687956853,None,l,1,0.6000640350684989,589.1052687956853,None,None,None,,,,,,,01_BY,26,M,1,2021_Oct_27_1751,Partial repeat,2021.2.3,120.10215047540554,
6,6,0,1,1,2,3,3,3,1,1,0,1,1,1,0,0,99,99,99,1,0,1,0,,,,,,,,,0.8104792091931154,589.7713617074223,None,"[93. 93. 87. 87. 93. 93. 87. 93. 87. 93. 87. 93. 87. 87. 93. 93. 93. 87.
 87. 87. 93. 93. 87. 87. 87. 93. 93. 93. 93. 93. 87. 93. 93. 93.]",590.6622664891202,None,l,1,0.5470871161160176,590.6622664891202,None,None,None,,,,,,,01_BY,26,M,1,2021_Oct_27_1751,Partial repeat,2021.2.3,120.10215047540554,
6,6,0,1,1,2,3,3,3,1,1,0,1,1,1,0,0,99,99,99,,,,,,,,,,,,,,,,,,,,,,,,,,,,,,,,01_BY,26,M,1,2021_Oct_27_1751,Partial repeat,2021.2.3,120.10215047540554,
6,6,0,1,1,3,2,2,3,0,1,0,0,0,1,0,0,100,100,100,0,0,0,0,,,,,,,591.2367706032219,None,0.8024856880163407,591.9611485489677,None,"[93. 87. 93. 87. 93. 87. 93. 87. 87. 93. 93. 93. 87. 93. 93. 87. 93. 87.
 93. 87. 87. 87. 93. 87. 87. 87. 87. 93. 93. 93. 93. 87. 93. 87.]",592.8437244231663,None,s,1,0.605663357209778,592.8437244231663,None,None,None,,,,,,,01_BY,26,M,1,2021_Oct_27_1751,Partial repeat,2021.2.3,120.10215047540554,
6,6,0,1,1,3,2,2,3,0,1,0,0,0,1,0,0,100,100,100,1,0,1,0,,,,,,,,,0.8046746739586916,593.5098138070643,None,"[93. 87. 87. 87. 93. 93. 93. 87. 93. 93. 87. 93. 87. 87. 87. 87. 93. 93.
 87. 93. 87. 87. 93. 93. 87. 93. 93. 93. 87. 87. 93. 93. 87. 87.]",594.4007230787383,None,l,1,0.6966783999159816,594.4007230787383,None,None,None,,,,,,,01_BY,26,M,1,2021_Oct_27_1751,Partial repeat,2021.2.3,120.10215047540554,
6,6,0,1,1,3,2,2,3,0,1,0,0,0,1,0,0,100,100,100,,,,,,,,,,,,,,,,,,,,,,,,,,,,,,,,01_BY,26,M,1,2021_Oct_27_1751,Partial repeat,2021.2.3,120.10215047540554,
6,6,0,1,1,3,2,3,3,0,0,0,1,1,1,0,0,101,101,101,0,0,0,0,,,,,,,595.1250962137947,None,0.7254448783016822,595.6996051385859,None,"[87. 93. 87. 93. 93. 87. 87. 87. 87. 87. 87. 87. 87. 87. 87. 87. 87. 87.
 93. 93. 87. 87. 87. 93. 93. 93. 93. 87. 87. 93. 87. 87. 87. 87.]",596.5072474644458,None,s,1,0.6861750606558417,596.5072474644458,None,None,None,,,,,,,01_BY,26,M,1,2021_Oct_27_1751,Partial repeat,2021.2.3,120.10215047540554,
6,6,0,1,1,3,2,3,3,0,0,0,1,1,1,0,0,101,101,101,1,0,1,0,,,,,,,,,0.9034276806503363,597.2649307773818,None,"[87. 93. 87. 87. 93. 87. 93. 93. 93. 87. 93. 87. 93. 87. 93. 87. 93. 93.
