prime_tar_pos,probe_tar_pos,dimension,tar_color,tar_shape,prime_dist_color,probe_dist_color,prime_dist_shape,probe_dist_shape,prime_tar_ori,probe_tar_ori,col_rep,shape_rep,resp_rep,pos_fixed,sparse,MainLoop.thisRepN,MainLoop.thisTrialN,MainLoop.thisN,MainLoop.thisIndex,PrimeProbe.thisRepN,PrimeProbe.thisTrialN,PrimeProbe.thisN,PrimeProbe.thisIndex,Instruction.started,Instruction.stopped,instruction_key.keys,instruction_key.rt,instruction_key.started,instruction_key.stopped,PairStartText.started,PairStartText.stopped,fixdur,FixCross.started,FixCross.stopped,dist_ori,SearchFixCross.started,SearchFixCross.stopped,key_resp.keys,key_resp.corr,key_resp.rt,key_resp.started,key_resp.stopped,feedback_text.started,feedback_text.stopped,text_finish.started,text_finish.stopped,finish_key.keys,finish_key.rt,finish_key.started,finish_key.stopped,participant,age,gender,group,date,expName,psychopyVersion,frameRate,
,,,,,,,,,,,,,,,,,,,,,,,,23.48911989316491,None,space,16.18891132753015,23.48911989316491,None,,,,,,,,,,,,,,,,,,,,,,02_HS,24,M,2,2021_Nov_02_1208,Partial repeat,2021.2.3,120.11171118412796,
2,2,0,1,1,3,3,2,3,0,1,1,0,0,1,0,0,0,0,0,0,0,0,0,,,,,,,341.53161244305784,None,0.8526511333341629,351.9137926721478,None,"[87. 87. 87. 93. 87. 87. 87. 93. 93. 87. 87. 87. 87. 87. 93. 93. 93. 93.
 93. 93. 93. 93. 93. 87. 93. 87. 87. 87. 93. 87. 87. 93. 87. 87.]",352.8546513940006,None,s,1,0.9974034874391009,352.8546513940006,None,None,None,,,,,,,02_HS,24,M,2,2021_Nov_02_1208,Partial repeat,2021.2.3,120.11171118412796,
2,2,0,1,1,3,3,2,3,0,1,1,0,0,1,0,0,0,0,0,1,0,1,0,,,,,,,,,0.9279527472189493,353.9120691734262,None,"[87. 87. 87. 93. 87. 87. 93. 93. 87. 93. 93. 93. 93. 93. 93. 93. 87. 93.
 93. 87. 93. 87. 87. 87. 93. 93. 93. 93. 93. 93. 87. 87. 87. 87.]",354.92785647303015,None,l,1,0.6041635535824526,354.92785647303015,None,None,None,,,,,,,02_HS,24,M,2,2021_Nov_02_1208,Partial repeat,2021.2.3,120.11171118412796,
2,2,0,1,1,3,3,2,3,0,1,1,0,0,1,0,0,0,0,0,,,,,,,,,,,,,,,,,,,,,,,,,,,,,,,,02_HS,24,M,2,2021_Nov_02_1208,Partial repeat,2021.2.3,120.11171118412796,
2,2,0,1,1,3,3,3,3,0,1,1,1,0,1,0,0,1,1,1,0,0,0,0,,,,,,,355.5523149531955,None,0.7493288450631804,357.1009959346725,None,"[87. 87. 87. 93. 93. 93. 93. 87. 87. 93. 93. 93. 87. 87. 87. 87. 93. 93.
 93. 87. 93. 93. 93. 87. 93. 93. 93. 93. 93. 93. 93. 93. 87. 87.]",357.93359494765355,None,s,1,0.8144271905175628,357.93359494765355,None,None,None,,,,,,,02_HS,24,M,2,2021_Nov_02_1208,Partial repeat,2021.2.3,120.11171118412796,
2,2,0,1,1,3,3,3,3,0,1,1,1,0,1,0,0,1,1,1,1,0,1,0,,,,,,,,,0.7209071053625096,358.81616355727056,None,"[87. 87. 93. 87. 93. 87. 93. 87. 87. 93. 87. 87. 87. 87. 87. 87. 93. 87.
 87. 93. 87. 93. 87. 87. 87. 87. 87. 93. 93. 87. 87. 87. 87. 87.]",359.6238003820305,None,l,1,0.7233299882683468,359.6238003820305,None,None,None,,,,,,,02_HS,24,M,2,2021_Nov_02_1208,Partial repeat,2021.2.3,120.11171118412796,
2,2,0,1,1,3,3,3,3,0,1,1,1,0,1,0,0,1,1,1,,,,,,,,,,,,,,,,,,,,,,,,,,,,,,,,02_HS,24,M,2,2021_Nov_02_1208,Partial repeat,2021.2.3,120.11171118412796,
2,2,0,1,1,2,3,2,3,1,0,0,0,0,1,0,0,2,2,2,0,0,0,0,,,,,,,360.36482176829554,None,0.9454855851903611,360.789459589824,None,"[93. 87. 93. 93. 87. 93. 93. 93. 87. 93. 93. 93. 87. 93. 87. 87. 93. 87.
 93. 87. 93. 87. 93. 87. 87. 93. 93. 93. 87. 87. 87. 93. 93. 93.]",361.82190106976225,None,l,1,0.7011615100145718,361.82190106976225,None,None,None,,,,,,,02_HS,24,M,2,2021_Nov_02_1208,Partial repeat,2021.2.3,120.11171118412796,
2,2,0,1,1,2,3,2,3,1,0,0,0,0,1,0,0,2,2,2,1,0,1,0,,,,,,,,,0.9461326796503708,362.5879183188607,None,"[87. 93. 93. 93. 93. 93. 93. 93. 87. 93. 93. 87. 87. 87. 93. 93. 93. 93.
 87. 87. 87. 87. 87. 87. 87. 87. 87. 87. 93. 87. 87. 87. 93. 87.]",363.61203094472353,None,s,1,0.5917664856468718,363.61203094472353,None,None,None,,,,,,,02_HS,24,M,2,2021_Nov_02_1208,Partial repeat,2021.2.3,120.11171118412796,
2,2,0,1,1,2,3,2,3,1,0,0,0,0,1,0,0,2,2,2,,,,,,,,,,,,,,,,,,,,,,,,,,,,,,,,02_HS,24,M,2,2021_Nov_02_1208,Partial repeat,2021.2.3,120.11171118412796,
2,2,0,1,1,2,3,2,3,1,1,0,0,1,1,0,0,3,3,3,0,0,0,0,,,,,,,364.22815672228637,None,0.7728538343235148,364.6361499847983,None,"[93. 87. 93. 87. 93. 87. 93. 87. 87. 93. 87. 87. 93. 87. 93. 87. 93. 87.
 93. 93. 93. 93. 93. 93. 93. 87. 87. 93. 93. 87. 93. 87. 93. 87.]",365.49373812569036,None,l,1,0.677343937896353,365.49373812569036,None,None,None,,,,,,,02_HS,24,M,2,2021_Nov_02_1208,Partial repeat,2021.2.3,120.11171118412796,
2,2,0,1,1,2,3,2,3,1,1,0,0,1,1,0,0,3,3,3,1,0,1,0,,,,,,,,,0.8010096485363922,366.23476239835077,None,"[87. 87. 93. 93. 93. 87. 87. 87. 93. 87. 93. 87. 87. 87. 87. 87. 87. 87.
 93. 93. 87. 93. 87. 87. 87. 87. 87. 87. 93. 93. 93. 87. 87. 87.]",367.1173306872571,None,l,1,0.685784399257841,367.1173306872571,None,None,None,,,,,,,02_HS,24,M,2,2021_Nov_02_1208,Partial repeat,2021.2.3,120.11171118412796,
2,2,0,1,1,2,3,2,3,1,1,0,0,1,1,0,0,3,3,3,,,,,,,,,,,,,,,,,,,,,,,,,,,,,,,,02_HS,24,M,2,2021_Nov_02_1208,Partial repeat,2021.2.3,120.11171118412796,
2,2,0,1,1,3,2,3,2,0,0,0,0,1,1,0,0,4,4,4,0,0,0,0,,,,,,,367.8250549377244,None,0.9570814627706568,368.19972604901227,None,"[93. 93. 93. 87. 93. 87. 93. 93. 93. 87. 87. 93. 93. 93. 87. 93. 87. 93.
 87. 87. 93. 87. 87. 87. 87. 87. 87. 87. 93. 87. 93. 87. 93. 93.]",369.2321668875294,None,s,1,0.619014698968158,369.2321668875294,None,None,None,,,,,,,02_HS,24,M,2,2021_Nov_02_1208,Partial repeat,2021.2.3,120.11171118412796,
2,2,0,1,1,3,2,3,2,0,0,0,0,1,1,0,0,4,4,4,1,0,1,0,,,,,,,,,0.739012000907265,369.91491291424586,None,"[93. 93. 93. 87. 87. 93. 93. 87. 93. 93. 87. 93. 87. 93. 93. 93. 93. 87.
 87. 87. 87. 93. 87. 93. 93. 87. 87. 87. 87. 87. 93. 93. 87. 87.]",370.7308664060786,None,s,1,0.6882519465530095,370.7308664060786,None,None,None,,,,,,,02_HS,24,M,2,2021_Nov_02_1208,Partial repeat,2021.2.3,120.11171118412796,
2,2,0,1,1,3,2,3,2,0,0,0,0,1,1,0,0,4,4,4,,,,,,,,,,,,,,,,,,,,,,,,,,,,,,,,02_HS,24,M,2,2021_Nov_02_1208,Partial repeat,2021.2.3,120.11171118412796,
2,2,0,1,1,2,2,2,3,0,1,1,0,0,1,0,0,5,5,5,0,0,0,0,,,,,,,371.4385941843624,None,0.8306516509360832,371.94648815487494,None,"[93. 87. 87. 87. 93. 87. 93. 87. 87. 93. 87. 93. 87. 93. 87. 87. 93. 87.
 87. 93. 93. 93. 87. 87. 93. 87. 93. 87. 87. 87. 93. 87. 93. 87.]",372.8623619180546,None,s,1,0.6047882978157304,372.8623619180546,None,None,None,,,,,,,02_HS,24,M,2,2021_Nov_02_1208,Partial repeat,2021.2.3,120.11171118412796,
2,2,0,1,1,2,2,2,3,0,1,1,0,0,1,0,0,5,5,5,1,0,1,0,,,,,,,,,0.9001716753950096,373.5284569715427,None,"[93. 87. 93. 87. 93. 87. 93. 87. 93. 93. 87. 93. 87. 87. 87. 93. 87. 93.
 93. 87. 93. 93. 87. 93. 93. 87. 93. 93. 87. 87. 87. 93. 87. 93.]",374.5026157155887,None,l,1,0.5635615926296396,374.5026157155887,None,None,None,,,,,,,02_HS,24,M,2,2021_Nov_02_1208,Partial repeat,2021.2.3,120.11171118412796,
2,2,0,1,1,2,2,2,3,0,1,1,0,0,1,0,0,5,5,5,,,,,,,,,,,,,,,,,,,,,,,,,,,,,,,,02_HS,24,M,2,2021_Nov_02_1208,Partial repeat,2021.2.3,120.11171118412796,
2,2,0,1,1,2,3,3,3,0,0,0,1,1,1,0,0,6,6,6,0,0,0,0,,,,,,,375.08544371593246,None,0.8647206822338047,375.5267357177952,None,"[93. 93. 87. 87. 87. 87. 93. 87. 87. 93. 93. 93. 93. 93. 93. 87. 93. 87.
 87. 87. 93. 87. 93. 93. 93. 93. 87. 87. 87. 93. 93. 93. 93. 93.]",376.47588865697946,None,s,1,0.8158113774328513,376.47588865697946,None,None,None,,,,,,,02_HS,24,M,2,2021_Nov_02_1208,Partial repeat,2021.2.3,120.11171118412796,
2,2,0,1,1,2,3,3,3,0,0,0,1,1,1,0,0,6,6,6,1,0,1,0,,,,,,,,,0.8048553574347265,377.3501563143425,None,"[87. 87. 87. 87. 93. 87. 93. 87. 93. 93. 93. 87. 87. 87. 93. 87. 93. 87.
 93. 87. 93. 93. 87. 93. 93. 87. 87. 93. 93. 93. 87. 93. 93. 87.]",378.2410688514327,None,s,1,0.6490854862100832,378.2410688514327,None,None,None,,,,,,,02_HS,24,M,2,2021_Nov_02_1208,Partial repeat,2021.2.3,120.11171118412796,
2,2,0,1,1,2,3,3,3,0,0,0,1,1,1,0,0,6,6,6,,,,,,,,,,,,,,,,,,,,,,,,,,,,,,,,02_HS,24,M,2,2021_Nov_02_1208,Partial repeat,2021.2.3,120.11171118412796,
2,2,0,1,1,2,3,3,3,1,0,0,1,0,1,0,0,7,7,7,0,0,0,0,,,,,,,378.9071437001535,None,0.7597600875858885,379.2901459104909,None,"[93. 87. 87. 93. 93. 87. 93. 87. 87. 93. 87. 87. 87. 93. 93. 87. 87. 87.
 93. 93. 87. 93. 87. 93. 87. 93. 87. 87. 93. 87. 93. 87. 93. 87.]",380.1394128943617,None,l,1,0.5748092338031938,380.1394128943617,None,None,None,,,,,,,02_HS,24,M,2,2021_Nov_02_1208,Partial repeat,2021.2.3,120.11171118412796,
2,2,0,1,1,2,3,3,3,1,0,0,1,0,1,0,0,7,7,7,1,0,1,0,,,,,,,,,0.8957516257610328,380.7805271584143,None,"[87. 87. 87. 87. 93. 93. 87. 87. 87. 87. 87. 87. 87. 93. 87. 87. 93. 93.
 93. 87. 87. 93. 93. 93. 87. 87. 87. 87. 87. 87. 93. 93. 87. 93.]",381.75468558174975,None,s,1,0.448063124984742,381.75468558174975,None,None,None,,,,,,,02_HS,24,M,2,2021_Nov_02_1208,Partial repeat,2021.2.3,120.11171118412796,
2,2,0,1,1,2,3,3,3,1,0,0,1,0,1,0,0,7,7,7,,,,,,,,,,,,,,,,,,,,,,,,,,,,,,,,02_HS,24,M,2,2021_Nov_02_1208,Partial repeat,2021.2.3,120.11171118412796,
2,2,0,1,1,3,3,3,2,1,0,1,0,0,1,0,0,8,8,8,0,0,0,0,,,,,,,382.22927311585727,None,0.9212752537967043,382.6789061587979,None,"[93. 93. 93. 93. 87. 93. 87. 87. 87. 93. 87. 93. 87. 87. 87. 87. 87. 87.
 93. 93. 93. 87. 87. 93. 93. 93. 87. 93. 87. 87. 87. 87. 87. 87.]",383.6780274117757,None,l,1,0.6201772748644316,383.6780274117757,None,None,None,,,,,,,02_HS,24,M,2,2021_Nov_02_1208,Partial repeat,2021.2.3,120.11171118412796,
2,2,0,1,1,3,3,3,2,1,0,1,0,0,1,0,0,8,8,8,1,0,1,0,,,,,,,,,0.9130752699065439,384.36076574143794,None,"[87. 93. 93. 93. 93. 93. 93. 93. 87. 87. 93. 93. 87. 87. 87. 87. 87. 93.
 87. 87. 87. 93. 87. 87. 87. 93. 93. 93. 87. 87. 93. 87. 87. 87.]",385.35159341850544,None,s,1,0.4986619558022767,385.35159341850544,None,None,None,,,,,,,02_HS,24,M,2,2021_Nov_02_1208,Partial repeat,2021.2.3,120.11171118412796,
2,2,0,1,1,3,3,3,2,1,0,1,0,0,1,0,0,8,8,8,,,,,,,,,,,,,,,,,,,,,,,,,,,,,,,,02_HS,24,M,2,2021_Nov_02_1208,Partial repeat,2021.2.3,120.11171118412796,
2,2,0,1,1,2,2,3,2,1,0,1,0,0,1,0,0,9,9,9,0,0,0,0,,,,,,,385.8594703913567,None,0.7606287245961499,386.2508027386118,None,"[87. 93. 93. 87. 87. 93. 93. 93. 87. 93. 93. 93. 93. 87. 93. 93. 93. 93.
 93. 87. 93. 87. 87. 93. 87. 87. 93. 93. 87. 87. 93. 93. 93. 93.]",387.1000694017721,None,l,1,0.7181723205271737,387.1000694017721,None,None,None,,,,,,,02_HS,24,M,2,2021_Nov_02_1208,Partial repeat,2021.2.3,120.11171118412796,
2,2,0,1,1,2,2,3,2,1,0,1,0,0,1,0,0,9,9,9,1,0,1,0,,,,,,,,,0.8061284271823658,387.8827244749647,None,"[93. 93. 93. 93. 87. 87. 93. 87. 93. 87. 87. 93. 87. 93. 93. 93. 87. 93.
 93. 87. 93. 93. 93. 87. 93. 87. 87. 93. 93. 87. 93. 87. 93. 93.]",388.77362290078884,None,s,1,0.6607519754169289,388.77362290078884,None,None,None,,,,,,,02_HS,24,M,2,2021_Nov_02_1208,Partial repeat,2021.2.3,120.11171118412796,
2,2,0,1,1,2,2,3,2,1,0,1,0,0,1,0,0,9,9,9,,,,,,,,,,,,,,,,,,,,,,,,,,,,,,,,02_HS,24,M,2,2021_Nov_02_1208,Partial repeat,2021.2.3,120.11171118412796,
2,2,0,1,1,2,3,2,2,0,0,0,1,1,1,0,0,10,10,10,0,0,0,0,,,,,,,389.4563657203994,None,0.9350040834598161,389.83104100092487,None,"[93. 93. 87. 93. 93. 93. 87. 87. 93. 87. 93. 87. 87. 93. 87. 87. 93. 87.
 87. 87. 93. 93. 87. 93. 87. 93. 93. 93. 93. 93. 87. 87. 87. 87.]",390.84683182834544,None,s,1,0.6024657117081915,390.84683182834544,None,None,None,,,,,,,02_HS,24,M,2,2021_Nov_02_1208,Partial repeat,2021.2.3,120.11171118412796,
2,2,0,1,1,2,3,2,2,0,0,0,1,1,1,0,0,10,10,10,1,0,1,0,,,,,,,,,0.8621439440623475,391.5212490009865,None,"[93. 87. 87. 87. 93. 93. 87. 93. 93. 87. 87. 87. 87. 87. 93. 93. 93. 93.
 87. 87. 93. 93. 93. 87. 87. 87. 87. 93. 93. 93. 93. 87. 93. 93.]",392.4704320869664,None,s,1,0.9468373691020133,392.4704320869664,None,None,None,,,,,,,02_HS,24,M,2,2021_Nov_02_1208,Partial repeat,2021.2.3,120.11171118412796,
2,2,0,1,1,2,3,2,2,0,0,0,1,1,1,0,0,10,10,10,,,,,,,,,,,,,,,,,,,,,,,,,,,,,,,,02_HS,24,M,2,2021_Nov_02_1208,Partial repeat,2021.2.3,120.11171118412796,
2,2,0,1,1,3,3,3,2,1,1,1,0,1,1,0,0,11,11,11,0,0,0,0,,,,,,,393.4279267086498,None,0.8106020648603505,393.80261385546726,None,"[93. 93. 93. 93. 87. 93. 87. 87. 93. 87. 93. 93. 93. 93. 93. 93. 93. 87.
 93. 93. 87. 87. 87. 87. 93. 93. 93. 93. 87. 93. 93. 93. 87. 87.]",394.70182958978546,None,l,1,0.844503750550075,394.70182958978546,None,None,None,,,,,,,02_HS,24,M,2,2021_Nov_02_1208,Partial repeat,2021.2.3,120.11171118412796,
2,2,0,1,1,3,3,3,2,1,1,1,0,1,1,0,0,11,11,11,1,0,1,0,,,,,,,,,0.8382525145773709,395.6093834787863,None,"[87. 93. 87. 87. 87. 93. 87. 93. 93. 93. 93. 87. 93. 87. 87. 93. 87. 87.
 87. 93. 93. 93. 93. 93. 87. 87. 87. 93. 93. 93. 87. 93. 87. 93.]",396.533587058173,None,l,1,0.8196977483872843,396.533587058173,None,None,None,,,,,,,02_HS,24,M,2,2021_Nov_02_1208,Partial repeat,2021.2.3,120.11171118412796,
2,2,0,1,1,3,3,3,2,1,1,1,0,1,1,0,0,11,11,11,,,,,,,,,,,,,,,,,,,,,,,,,,,,,,,,02_HS,24,M,2,2021_Nov_02_1208,Partial repeat,2021.2.3,120.11171118412796,
2,2,0,1,1,2,2,3,3,0,1,1,1,0,1,0,0,12,12,12,0,0,0,0,,,,,,,397.37452807436375,None,0.830353961565045,397.97400929291007,None,"[87. 93. 87. 93. 93. 87. 87. 87. 87. 93. 93. 93. 93. 87. 93. 93. 93. 93.
 93. 87. 93. 87. 87. 87. 87. 93. 87. 93. 87. 87. 93. 87. 87. 87.]",398.8815676718591,None,s,1,0.5997114491435696,398.8815676718591,None,None,None,,,,,,,02_HS,24,M,2,2021_Nov_02_1208,Partial repeat,2021.2.3,120.11171118412796,
2,2,0,1,1,2,2,3,3,0,1,1,1,0,1,0,0,12,12,12,1,0,1,0,,,,,,,,,0.9490399640749311,399.53932136355877,None,"[93. 87. 93. 93. 87. 87. 87. 93. 87. 87. 93. 93. 93. 87. 87. 93. 87. 93.
 93. 93. 93. 93. 87. 87. 93. 93. 93. 93. 87. 93. 93. 93. 93. 93.]",400.5634420071865,None,l,1,0.6138926301026686,400.5634420071865,None,None,None,,,,,,,02_HS,24,M,2,2021_Nov_02_1208,Partial repeat,2021.2.3,120.11171118412796,
2,2,0,1,1,2,2,3,3,0,1,1,1,0,1,0,0,12,12,12,,,,,,,,,,,,,,,,,,,,,,,,,,,,,,,,02_HS,24,M,2,2021_Nov_02_1208,Partial repeat,2021.2.3,120.11171118412796,
2,2,0,1,1,2,2,3,3,0,0,1,1,1,1,0,0,13,13,13,0,0,0,0,,,,,,,401.1962424905614,None,0.8681002097501186,401.75407591091425,None,"[87. 93. 93. 93. 87. 93. 93. 87. 93. 87. 87. 87. 87. 93. 87. 87. 87. 93.
 93. 93. 87. 93. 93. 93. 87. 87. 87. 87. 93. 87. 87. 93. 87. 87.]",402.7115801539154,None,s,1,0.7057563306667589,402.7115801539154,None,None,None,,,,,,,02_HS,24,M,2,2021_Nov_02_1208,Partial repeat,2021.2.3,120.11171118412796,
2,2,0,1,1,2,2,3,3,0,0,1,1,1,1,0,0,13,13,13,1,0,1,0,,,,,,,,,0.8508141773831712,403.4775810467737,None,"[93. 93. 93. 93. 93. 87. 93. 87. 87. 93. 87. 87. 93. 87. 93. 93. 87. 87.
 87. 93. 93. 87. 93. 87. 87. 93. 87. 87. 93. 93. 93. 87. 87. 93.]",404.41843816507355,None,s,1,0.6628994535412858,404.41843816507355,None,None,None,,,,,,,02_HS,24,M,2,2021_Nov_02_1208,Partial repeat,2021.2.3,120.11171118412796,
2,2,0,1,1,2,2,3,3,0,0,1,1,1,1,0,0,13,13,13,,,,,,,,,,,,,,,,,,,,,,,,,,,,,,,,02_HS,24,M,2,2021_Nov_02_1208,Partial repeat,2021.2.3,120.11171118412796,
2,2,0,1,1,3,3,2,2,1,1,1,1,1,1,0,0,14,14,14,0,0,0,0,,,,,,,405.0928595069523,None,0.9768467919300798,405.47586267942154,None,"[87. 87. 87. 93. 87. 93. 93. 87. 93. 93. 93. 87. 87. 87. 93. 93. 87. 87.
 93. 87. 87. 87. 93. 93. 87. 93. 93. 93. 93. 87. 93. 93. 87. 87.]",406.53328911803305,None,l,1,0.6591009572890698,406.53328911803305,None,None,None,,,,,,,02_HS,24,M,2,2021_Nov_02_1208,Partial repeat,2021.2.3,120.11171118412796,
2,2,0,1,1,3,3,2,2,1,1,1,1,1,1,0,0,14,14,14,1,0,1,0,,,,,,,,,0.7596668545807449,407.26598325377574,None,"[93. 93. 87. 93. 93. 87. 87. 93. 87. 93. 93. 87. 87. 87. 87. 93. 87. 93.
 93. 93. 87. 93. 87. 93. 93. 93. 87. 87. 93. 87. 93. 93. 87. 93.]",408.11525152048887,None,l,1,0.6610864765643782,408.11525152048887,None,None,None,,,,,,,02_HS,24,M,2,2021_Nov_02_1208,Partial repeat,2021.2.3,120.11171118412796,
2,2,0,1,1,3,3,2,2,1,1,1,1,1,1,0,0,14,14,14,,,,,,,,,,,,,,,,,,,,,,,,,,,,,,,,02_HS,24,M,2,2021_Nov_02_1208,Partial repeat,2021.2.3,120.11171118412796,
2,2,0,1,1,2,2,2,3,0,0,1,0,1,1,0,0,15,15,15,0,0,0,0,,,,,,,408.78966484460284,None,0.7074620011188918,409.189324763091,None,"[87. 93. 93. 87. 87. 93. 87. 87. 93. 87. 93. 87. 87. 93. 87. 93. 93. 93.
 87. 93. 87. 87. 93. 87. 87. 93. 93. 93. 87. 87. 93. 93. 87. 93.]",409.98031318030735,None,s,1,0.7006435624083451,409.98031318030735,None,None,None,,,,,,,02_HS,24,M,2,2021_Nov_02_1208,Partial repeat,2021.2.3,120.11171118412796,
2,2,0,1,1,2,2,2,3,0,0,1,0,1,1,0,0,15,15,15,1,0,1,0,,,,,,,,,0.9697986915191429,410.75463843729267,None,"[87. 87. 87. 93. 87. 87. 93. 93. 93. 93. 87. 93. 93. 87. 93. 93. 93. 87.
 87. 87. 93. 87. 93. 87. 93. 93. 87. 87. 87. 87. 87. 87. 87. 93.]",411.80372800406394,None,s,1,0.6046410916538889,411.80372800406394,None,None,None,,,,,,,02_HS,24,M,2,2021_Nov_02_1208,Partial repeat,2021.2.3,120.11171118412796,
2,2,0,1,1,2,2,2,3,0,0,1,0,1,1,0,0,15,15,15,,,,,,,,,,,,,,,,,,,,,,,,,,,,,,,,02_HS,24,M,2,2021_Nov_02_1208,Partial repeat,2021.2.3,120.11171118412796,
2,2,0,1,1,3,2,2,3,1,1,0,0,1,1,0,0,16,16,16,0,0,0,0,,,,,,,412.4365169418577,None,0.7497980112933147,412.7445848016532,None,"[87. 93. 93. 93. 87. 87. 87. 93. 87. 87. 87. 87. 93. 93. 93. 87. 87. 87.
 93. 87. 87. 93. 87. 87. 87. 93. 93. 93. 93. 87. 93. 87. 87. 93.]",413.5771972844793,None,l,1,0.560131592847597,413.5771972844793,None,None,None,,,,,,,02_HS,24,M,2,2021_Nov_02_1208,Partial repeat,2021.2.3,120.11171118412796,
2,2,0,1,1,3,2,2,3,1,1,0,0,1,1,0,0,16,16,16,1,0,1,0,,,,,,,,,0.9972688987404393,414.2016608960141,None,"[87. 87. 87. 93. 87. 93. 87. 93. 93. 87. 93. 87. 87. 93. 87. 87. 87. 87.
 93. 93. 87. 87. 87. 93. 93. 93. 93. 87. 93. 93. 93. 87. 87. 93.]",415.2757392699857,None,l,1,0.6526476187560775,415.2757392699857,None,None,None,,,,,,,02_HS,24,M,2,2021_Nov_02_1208,Partial repeat,2021.2.3,120.11171118412796,
2,2,0,1,1,3,2,2,3,1,1,0,0,1,1,0,0,16,16,16,,,,,,,,,,,,,,,,,,,,,,,,,,,,,,,,02_HS,24,M,2,2021_Nov_02_1208,Partial repeat,2021.2.3,120.11171118412796,
2,2,0,1,1,3,2,2,3,0,0,0,0,1,1,0,0,17,17,17,0,0,0,0,,,,,,,415.95015323552093,None,0.8697867684348406,416.2748733513872,None,"[87. 93. 87. 93. 87. 93. 93. 93. 87. 87. 87. 87. 93. 93. 87. 93. 87. 87.
 93. 93. 93. 93. 93. 87. 93. 87. 93. 93. 93. 87. 93. 93. 87. 87.]",417.2240513059976,None,s,1,0.6403733829773728,417.2240513059976,None,None,None,,,,,,,02_HS,24,M,2,2021_Nov_02_1208,Partial repeat,2021.2.3,120.11171118412796,
2,2,0,1,1,3,2,2,3,0,0,0,0,1,1,0,0,17,17,17,1,0,1,0,,,,,,,,,0.9270325603458749,417.92345472015427,None,"[93. 93. 87. 87. 93. 87. 87. 87. 87. 87. 93. 93. 93. 93. 87. 87. 87. 93.
 87. 93. 87. 93. 87. 93. 87. 93. 93. 87. 87. 93. 87. 87. 93. 87.]",418.9309099585771,None,s,1,0.7255618132786594,418.9309099585771,None,None,None,,,,,,,02_HS,24,M,2,2021_Nov_02_1208,Partial repeat,2021.2.3,120.11171118412796,
2,2,0,1,1,3,2,2,3,0,0,0,0,1,1,0,0,17,17,17,,,,,,,,,,,,,,,,,,,,,,,,,,,,,,,,02_HS,24,M,2,2021_Nov_02_1208,Partial repeat,2021.2.3,120.11171118412796,
2,2,0,1,1,3,2,2,3,1,0,0,0,0,1,0,0,18,18,18,0,0,0,0,,,,,,,419.68023999415027,None,0.8177161461646871,420.03828322337245,None,"[87. 93. 93. 87. 87. 93. 93. 93. 93. 93. 87. 87. 87. 87. 93. 93. 87. 87.
 93. 93. 93. 87. 93. 93. 87. 87. 87. 87. 93. 93. 93. 93. 93. 87.]",420.9458342259777,None,l,1,0.8067224392542585,420.9458342259777,None,None,None,,,,,,,02_HS,24,M,2,2021_Nov_02_1208,Partial repeat,2021.2.3,120.11171118412796,
2,2,0,1,1,3,2,2,3,1,0,0,0,0,1,0,0,18,18,18,1,0,1,0,,,,,,,,,0.9170401644125089,421.8117537866299,None,"[87. 93. 93. 93. 87. 87. 93. 93. 93. 93. 87. 87. 93. 87. 87. 87. 87. 93.
 87. 93. 93. 87. 87. 87. 93. 93. 93. 87. 93. 87. 93. 93. 93. 93.]",422.8108978100597,None,s,1,0.5245920485903071,422.8108978100597,None,None,None,,,,,,,02_HS,24,M,2,2021_Nov_02_1208,Partial repeat,2021.2.3,120.11171118412796,
2,2,0,1,1,3,2,2,3,1,0,0,0,0,1,0,0,18,18,18,,,,,,,,,,,,,,,,,,,,,,,,,,,,,,,,02_HS,24,M,2,2021_Nov_02_1208,Partial repeat,2021.2.3,120.11171118412796,
2,2,0,1,1,2,3,2,3,0,0,0,0,1,1,0,0,19,19,19,0,0,0,0,,,,,,,423.3520889163701,None,0.9290258221047614,423.7517558904915,None,"[93. 93. 93. 93. 93. 87. 87. 93. 87. 87. 87. 87. 93. 93. 93. 87. 93. 93.
 93. 87. 93. 93. 87. 87. 87. 87. 93. 87. 93. 93. 93. 93. 87. 93.]",424.7592063182551,None,s,1,0.688296525325427,424.7592063182551,None,None,None,,,,,,,02_HS,24,M,2,2021_Nov_02_1208,Partial repeat,2021.2.3,120.11171118412796,
2,2,0,1,1,2,3,2,3,0,0,0,0,1,1,0,0,19,19,19,1,0,1,0,,,,,,,,,0.7644015941416294,425.51688573338174,None,"[87. 87. 93. 87. 93. 87. 93. 93. 87. 93. 87. 87. 87. 87. 87. 87. 87. 93.
 87. 87. 93. 93. 87. 87. 93. 87. 87. 87. 93. 87. 87. 87. 87. 93.]",426.36615560364794,None,s,1,0.8093288542357868,426.36615560364794,None,None,None,,,,,,,02_HS,24,M,2,2021_Nov_02_1208,Partial repeat,2021.2.3,120.11171118412796,
2,2,0,1,1,2,3,2,3,0,0,0,0,1,1,0,0,19,19,19,,,,,,,,,,,,,,,,,,,,,,,,,,,,,,,,02_HS,24,M,2,2021_Nov_02_1208,Partial repeat,2021.2.3,120.11171118412796,
2,2,0,1,1,2,2,3,2,0,0,1,0,1,1,0,0,20,20,20,0,0,0,0,,,,,,,427.1987728971326,None,0.8186262474746021,427.7982403251235,None,"[87. 93. 87. 87. 93. 87. 93. 87. 87. 87. 87. 93. 93. 87. 93. 93. 87. 87.
 87. 87. 87. 87. 93. 93. 87. 87. 87. 87. 87. 93. 87. 87. 93. 93.]",428.7057993454937,None,s,1,0.7096789419180141,428.7057993454937,None,None,None,,,,,,,02_HS,24,M,2,2021_Nov_02_1208,Partial repeat,2021.2.3,120.11171118412796,
2,2,0,1,1,2,2,3,2,0,0,1,0,1,1,0,0,20,20,20,1,0,1,0,,,,,,,,,0.9238757643930927,429.48012877171686,None,"[87. 87. 87. 87. 93. 93. 87. 87. 87. 93. 87. 87. 93. 87. 87. 87. 87. 93.
 87. 93. 93. 87. 93. 93. 93. 87. 87. 93. 87. 87. 93. 87. 93. 87.]",430.4875872172454,None,s,1,0.8158957243184659,430.4875872172454,None,None,None,,,,,,,02_HS,24,M,2,2021_Nov_02_1208,Partial repeat,2021.2.3,120.11171118412796,
2,2,0,1,1,2,2,3,2,0,0,1,0,1,1,0,0,20,20,20,,,,,,,,,,,,,,,,,,,,,,,,,,,,,,,,02_HS,24,M,2,2021_Nov_02_1208,Partial repeat,2021.2.3,120.11171118412796,
2,2,0,1,1,2,3,3,2,0,0,0,0,1,1,0,0,21,21,21,0,0,0,0,,,,,,,431.3202122077846,None,0.879802586494323,431.73651379889384,None,"[87. 87. 87. 87. 87. 93. 87. 93. 93. 87. 93. 93. 93. 93. 87. 93. 87. 87.
 87. 87. 87. 87. 93. 87. 87. 93. 93. 93. 87. 93. 87. 87. 87. 93.]",432.7023424060221,None,s,1,0.5851665823732901,432.7023424060221,None,None,None,,,,,,,02_HS,24,M,2,2021_Nov_02_1208,Partial repeat,2021.2.3,120.11171118412796,
2,2,0,1,1,2,3,3,2,0,0,0,0,1,1,0,0,21,21,21,1,0,1,0,,,,,,,,,0.7475474298103737,433.35178680699255,None,"[93. 93. 93. 93. 87. 87. 87. 87. 87. 87. 93. 93. 93. 87. 87. 93. 87. 93.
 93. 93. 87. 93. 93. 93. 93. 87. 93. 87. 93. 87. 87. 87. 87. 93.]",434.1760736428489,None,s,1,0.711473317680543,434.1760736428489,None,None,None,,,,,,,02_HS,24,M,2,2021_Nov_02_1208,Partial repeat,2021.2.3,120.11171118412796,
2,2,0,1,1,2,3,3,2,0,0,0,0,1,1,0,0,21,21,21,,,,,,,,,,,,,,,,,,,,,,,,,,,,,,,,02_HS,24,M,2,2021_Nov_02_1208,Partial repeat,2021.2.3,120.11171118412796,
2,2,0,1,1,3,3,3,2,0,0,1,0,1,1,0,0,22,22,22,0,0,0,0,,,,,,,434.9170995190623,None,0.7451623350835711,435.2418238041664,None,"[87. 87. 87. 87. 87. 87. 87. 87. 87. 93. 93. 93. 87. 87. 87. 87. 87. 87.
 93. 87. 87. 93. 87. 87. 93. 87. 87. 93. 93. 87. 87. 87. 93. 93.]",436.06610999860163,None,s,1,0.7745792201666291,436.06610999860163,None,None,None,,,,,,,02_HS,24,M,2,2021_Nov_02_1208,Partial repeat,2021.2.3,120.11171118412796,
2,2,0,1,1,3,3,3,2,0,0,1,0,1,1,0,0,22,22,22,1,0,1,0,,,,,,,,,0.8465082214802336,436.8987228021383,None,"[87. 93. 87. 87. 87. 87. 93. 93. 87. 87. 93. 93. 93. 93. 87. 87. 87. 93.
 93. 93. 93. 87. 87. 87. 93. 87. 93. 87. 87. 87. 93. 87. 93. 87.]",437.83125748057455,None,s,1,0.6553319664113815,437.83125748057455,None,None,None,,,,,,,02_HS,24,M,2,2021_Nov_02_1208,Partial repeat,2021.2.3,120.11171118412796,
2,2,0,1,1,3,3,3,2,0,0,1,0,1,1,0,0,22,22,22,,,,,,,,,,,,,,,,,,,,,,,,,,,,,,,,02_HS,24,M,2,2021_Nov_02_1208,Partial repeat,2021.2.3,120.11171118412796,
2,2,0,1,1,2,3,3,3,0,1,0,1,0,1,0,0,23,23,23,0,0,0,0,,,,,,,438.5056672768719,None,0.7320228194752602,438.7887559507851,None,"[93. 87. 93. 87. 93. 93. 87. 87. 93. 87. 87. 87. 87. 87. 93. 93. 93. 93.
 87. 93. 93. 93. 93. 93. 93. 93. 93. 87. 93. 87. 87. 93. 87. 93.]",439.5963918134132,None,s,1,0.5861633508933437,439.5963918134132,None,None,None,,,,,,,02_HS,24,M,2,2021_Nov_02_1208,Partial repeat,2021.2.3,120.11171118412796,
2,2,0,1,1,2,3,3,3,0,1,0,1,0,1,0,0,23,23,23,1,0,1,0,,,,,,,,,0.9222644594961533,440.24583140372465,None,"[93. 87. 87. 87. 87. 93. 87. 87. 87. 87. 93. 87. 87. 87. 87. 93. 93. 93.
 93. 87. 87. 93. 93. 93. 93. 93. 87. 93. 87. 93. 87. 93. 87. 93.]",441.2532943392014,None,l,1,0.6413056886684672,441.2532943392014,None,None,None,,,,,,,02_HS,24,M,2,2021_Nov_02_1208,Partial repeat,2021.2.3,120.11171118412796,
2,2,0,1,1,2,3,3,3,0,1,0,1,0,1,0,0,23,23,23,,,,,,,,,,,,,,,,,,,,,,,,,,,,,,,,02_HS,24,M,2,2021_Nov_02_1208,Partial repeat,2021.2.3,120.11171118412796,
2,2,0,1,1,2,3,2,2,1,0,0,1,0,1,0,0,24,24,24,0,0,0,0,,,,,,,441.91939099624256,None,0.8801805145014638,442.327363412566,None,"[93. 93. 93. 87. 93. 87. 93. 87. 87. 93. 87. 93. 93. 93. 87. 93. 87. 93.
 93. 87. 93. 93. 93. 87. 87. 87. 87. 93. 87. 93. 87. 93. 93. 93.]",443.2931965096425,None,l,1,0.8574011270092115,443.2931965096425,None,None,None,,,,,,,02_HS,24,M,2,2021_Nov_02_1208,Partial repeat,2021.2.3,120.11171118412796,
2,2,0,1,1,2,3,2,2,1,0,0,1,0,1,0,0,24,24,24,1,0,1,0,,,,,,,,,0.8008812339942103,444.20907476277034,None,"[93. 93. 87. 93. 93. 87. 87. 93. 93. 87. 93. 87. 93. 93. 87. 87. 87. 87.
 87. 87. 87. 87. 93. 93. 93. 93. 93. 93. 93. 87. 87. 87. 87. 87.]",445.09164529665077,None,s,1,0.6429268807111157,445.09164529665077,None,None,None,,,,,,,02_HS,24,M,2,2021_Nov_02_1208,Partial repeat,2021.2.3,120.11171118412796,
2,2,0,1,1,2,3,2,2,1,0,0,1,0,1,0,0,24,24,24,,,,,,,,,,,,,,,,,,,,,,,,,,,,,,,,02_HS,24,M,2,2021_Nov_02_1208,Partial repeat,2021.2.3,120.11171118412796,
2,2,0,1,1,3,3,2,3,1,0,1,0,0,1,0,0,25,25,25,0,0,0,0,,,,,,,445.74941021322115,None,0.962371081666497,446.1490646796294,None,"[87. 93. 93. 93. 93. 87. 87. 87. 87. 87. 93. 93. 93. 87. 87. 87. 93. 93.
 87. 93. 93. 93. 87. 87. 87. 93. 87. 93. 87. 93. 87. 87. 87. 87.]",447.18983308937936,None,l,1,0.5767601163346399,447.18983308937936,None,None,None,,,,,,,02_HS,24,M,2,2021_Nov_02_1208,Partial repeat,2021.2.3,120.11171118412796,
2,2,0,1,1,3,3,2,3,1,0,1,0,0,1,0,0,25,25,25,1,0,1,0,,,,,,,,,0.8933227933651512,447.8392774903498,None,"[93. 93. 93. 93. 87. 87. 87. 93. 87. 87. 87. 93. 93. 87. 87. 87. 93. 93.
 93. 93. 93. 87. 93. 93. 93. 93. 93. 87. 87. 87. 93. 93. 87. 93.]",448.81342885805225,None,s,1,0.7131718009758288,448.81342885805225,None,None,None,,,,,,,02_HS,24,M,2,2021_Nov_02_1208,Partial repeat,2021.2.3,120.11171118412796,
2,2,0,1,1,3,3,2,3,1,0,1,0,0,1,0,0,25,25,25,,,,,,,,,,,,,,,,,,,,,,,,,,,,,,,,02_HS,24,M,2,2021_Nov_02_1208,Partial repeat,2021.2.3,120.11171118412796,
2,2,0,1,1,2,2,3,3,1,0,1,1,0,1,0,0,26,26,26,0,0,0,0,,,,,,,449.54612940800666,None,0.7766139373689938,449.8958290304663,None,"[93. 93. 87. 93. 93. 87. 87. 93. 87. 93. 93. 93. 87. 93. 93. 93. 87. 87.
 93. 87. 87. 87. 93. 93. 87. 87. 93. 87. 93. 93. 93. 87. 93. 87.]",450.7534200577536,None,l,1,0.6772409897963598,450.7534200577536,None,None,None,,,,,,,02_HS,24,M,2,2021_Nov_02_1208,Partial repeat,2021.2.3,120.11171118412796,
2,2,0,1,1,2,2,3,3,1,0,1,1,0,1,0,0,26,26,26,1,0,1,0,,,,,,,,,0.8773878671287932,451.502775108753,None,"[87. 87. 93. 87. 87. 93. 87. 87. 87. 93. 93. 87. 93. 87. 87. 87. 87. 87.
 93. 93. 87. 93. 87. 87. 93. 93. 87. 93. 87. 87. 87. 93. 87. 93.]",452.46028576596586,None,s,1,0.8093708673233095,452.46028576596586,None,None,None,,,,,,,02_HS,24,M,2,2021_Nov_02_1208,Partial repeat,2021.2.3,120.11171118412796,
2,2,0,1,1,2,2,3,3,1,0,1,1,0,1,0,0,26,26,26,,,,,,,,,,,,,,,,,,,,,,,,,,,,,,,,02_HS,24,M,2,2021_Nov_02_1208,Partial repeat,2021.2.3,120.11171118412796,
2,2,0,1,1,3,3,2,3,0,0,1,0,1,1,0,0,27,27,27,0,0,0,0,,,,,,,453.28456779116345,None,0.7666262499705687,453.6842248232563,None,"[87. 93. 93. 93. 93. 93. 87. 87. 93. 93. 87. 93. 93. 87. 87. 87. 93. 87.
 87. 87. 93. 93. 93. 87. 93. 93. 93. 93. 87. 87. 87. 93. 87. 93.]",454.5251642358942,None,s,1,0.7764980316386527,454.5251642358942,None,None,None,,,,,,,02_HS,24,M,2,2021_Nov_02_1208,Partial repeat,2021.2.3,120.11171118412796,
2,2,0,1,1,3,3,2,3,0,0,1,0,1,1,0,0,27,27,27,1,0,1,0,,,,,,,,,0.7716071752310034,455.3744289747908,None,"[93. 87. 87. 87. 87. 87. 87. 87. 87. 87. 87. 87. 87. 93. 93. 93. 87. 93.
 93. 87. 93. 87. 93. 87. 93. 93. 87. 93. 93. 87. 87. 93. 87. 87.]",456.2236998071887,None,s,1,0.7097850971241542,456.2236998071887,None,None,None,,,,,,,02_HS,24,M,2,2021_Nov_02_1208,Partial repeat,2021.2.3,120.11171118412796,
2,2,0,1,1,3,3,2,3,0,0,1,0,1,1,0,0,27,27,27,,,,,,,,,,,,,,,,,,,,,,,,,,,,,,,,02_HS,24,M,2,2021_Nov_02_1208,Partial repeat,2021.2.3,120.11171118412796,
2,2,0,1,1,2,2,2,3,1,0,1,0,0,1,0,0,28,28,28,0,0,0,0,,,,,,,456.95638881156196,None,0.914039035363924,457.3310724305629,None,"[87. 87. 87. 87. 93. 93. 87. 87. 87. 87. 87. 87. 93. 93. 87. 87. 87. 87.
 93. 93. 93. 87. 87. 87. 87. 87. 87. 87. 87. 93. 87. 93. 93. 87.]",458.33021196404457,None,l,1,0.7480224588815645,458.33021196404457,None,None,None,,,,,,,02_HS,24,M,2,2021_Nov_02_1208,Partial repeat,2021.2.3,120.11171118412796,
2,2,0,1,1,2,2,2,3,1,0,1,0,0,1,0,0,28,28,28,1,0,1,0,,,,,,,,,0.8668097799900965,459.1461728322208,None,"[93. 93. 87. 87. 87. 93. 93. 87. 93. 87. 87. 87. 87. 93. 93. 87. 93. 87.
 87. 87. 93. 87. 93. 87. 93. 87. 93. 93. 87. 93. 87. 87. 87. 93.]",460.0953681052033,None,s,1,0.8863163939878405,460.0953681052033,None,None,None,,,,,,,02_HS,24,M,2,2021_Nov_02_1208,Partial repeat,2021.2.3,120.11171118412796,
2,2,0,1,1,2,2,2,3,1,0,1,0,0,1,0,0,28,28,28,,,,,,,,,,,,,,,,,,,,,,,,,,,,,,,,02_HS,24,M,2,2021_Nov_02_1208,Partial repeat,2021.2.3,120.11171118412796,
2,2,0,1,1,3,3,3,3,1,1,1,1,1,1,0,0,29,29,29,0,0,0,0,,,,,,,460.9945796702839,None,0.8970531653880265,461.34427448208453,None,"[93. 87. 93. 93. 93. 93. 87. 87. 87. 93. 93. 93. 87. 87. 87. 87. 93. 87.
 93. 87. 93. 87. 87. 87. 93. 93. 87. 87. 87. 93. 93. 87. 87. 87.]",462.31842264268084,None,l,1,0.6312841240882108,462.31842264268084,None,None,None,,,,,,,02_HS,24,M,2,2021_Nov_02_1208,Partial repeat,2021.2.3,120.11171118412796,
2,2,0,1,1,3,3,3,3,1,1,1,1,1,1,0,0,29,29,29,1,0,1,0,,,,,,,,,0.9693225428939423,463.009500409868,None,"[93. 93. 87. 87. 87. 87. 87. 87. 93. 87. 87. 93. 87. 87. 87. 87. 93. 93.
 93. 93. 93. 87. 93. 87. 87. 93. 87. 87. 93. 93. 93. 93. 93. 93.]",464.05859735298304,None,l,1,0.6511194327848671,464.05859735298304,None,None,None,,,,,,,02_HS,24,M,2,2021_Nov_02_1208,Partial repeat,2021.2.3,120.11171118412796,
2,2,0,1,1,3,3,3,3,1,1,1,1,1,1,0,0,29,29,29,,,,,,,,,,,,,,,,,,,,,,,,,,,,,,,,02_HS,24,M,2,2021_Nov_02_1208,Partial repeat,2021.2.3,120.11171118412796,
2,2,0,1,1,2,3,2,2,0,1,0,1,0,1,0,0,30,30,30,0,0,0,0,,,,,,,464.72468791652295,None,0.8039950035148916,465.05774169712345,None,"[87. 93. 87. 87. 93. 93. 93. 93. 87. 87. 87. 87. 87. 93. 87. 87. 93. 93.
 93. 87. 93. 93. 87. 87. 93. 93. 93. 87. 93. 93. 93. 93. 93. 87.]",465.9486356329992,None,s,1,0.6975410081407745,465.9486356329992,None,None,None,,,,,,,02_HS,24,M,2,2021_Nov_02_1208,Partial repeat,2021.2.3,120.11171118412796,
2,2,0,1,1,2,3,2,2,0,1,0,1,0,1,0,0,30,30,30,1,0,1,0,,,,,,,,,0.8407101877786757,466.70630895462455,None,"[87. 87. 87. 87. 87. 87. 87. 93. 93. 93. 93. 93. 87. 93. 87. 93. 87. 93.
 93. 93. 87. 87. 87. 93. 93. 93. 93. 93. 93. 87. 87. 93. 93. 87.]",467.6305519814141,None,l,1,0.7911477707729091,467.6305519814141,None,None,None,,,,,,,02_HS,24,M,2,2021_Nov_02_1208,Partial repeat,2021.2.3,120.11171118412796,
2,2,0,1,1,2,3,2,2,0,1,0,1,0,1,0,0,30,30,30,,,,,,,,,,,,,,,,,,,,,,,,,,,,,,,,02_HS,24,M,2,2021_Nov_02_1208,Partial repeat,2021.2.3,120.11171118412796,
2,2,0,1,1,3,2,3,3,0,0,0,1,1,1,0,0,31,31,31,0,0,0,0,,,,,,,468.4298198632746,None,0.7522015337958137,468.8044948230895,None,"[87. 93. 93. 93. 87. 93. 93. 87. 93. 87. 93. 93. 93. 87. 93. 87. 93. 87.
 93. 93. 93. 87. 87. 87. 93. 87. 87. 93. 93. 87. 93. 93. 87. 87.]",469.6454387256756,None,s,1,0.615314340157397,469.6454387256756,None,None,None,,,,,,,02_HS,24,M,2,2021_Nov_02_1208,Partial repeat,2021.2.3,120.11171118412796,
2,2,0,1,1,3,2,3,3,0,0,0,1,1,1,0,0,31,31,31,1,0,1,0,,,,,,,,,0.7330109054363539,470.31985493618504,None,"[87. 87. 87. 87. 87. 87. 93. 87. 93. 87. 87. 87. 87. 93. 87. 93. 87. 87.
 87. 87. 87. 93. 87. 93. 93. 93. 93. 93. 87. 93. 87. 93. 93. 93.]",471.1358170872038,None,s,1,0.7898690976422813,471.1358170872038,None,None,None,,,,,,,02_HS,24,M,2,2021_Nov_02_1208,Partial repeat,2021.2.3,120.11171118412796,
2,2,0,1,1,3,2,3,3,0,0,0,1,1,1,0,0,31,31,31,,,,,,,,,,,,,,,,,,,,,,,,,,,,,,,,02_HS,24,M,2,2021_Nov_02_1208,Partial repeat,2021.2.3,120.11171118412796,
2,2,0,1,1,2,3,2,2,1,1,0,1,1,1,0,0,32,32,32,0,0,0,0,,,,,,,471.95177827609064,None,0.9427200682920228,472.22654194445545,None,"[87. 87. 93. 93. 93. 93. 87. 93. 87. 93. 87. 87. 93. 87. 87. 93. 87. 93.
 93. 87. 93. 93. 87. 93. 87. 87. 87. 87. 93. 87. 93. 87. 93. 87.]",473.2589843865255,None,l,1,0.6497439050555158,473.2589843865255,None,None,None,,,,,,,02_HS,24,M,2,2021_Nov_02_1208,Partial repeat,2021.2.3,120.11171118412796,
2,2,0,1,1,2,3,2,2,1,1,0,1,1,1,0,0,32,32,32,1,0,1,0,,,,,,,,,0.7470191569910111,473.9667128062306,None,"[87. 87. 87. 87. 87. 87. 93. 87. 93. 93. 87. 87. 87. 93. 93. 93. 87. 93.
 87. 93. 87. 93. 93. 93. 87. 93. 93. 93. 87. 93. 93. 87. 87. 87.]",474.7993009150514,None,l,1,0.597518109404632,474.7993009150514,None,None,None,,,,,,,02_HS,24,M,2,2021_Nov_02_1208,Partial repeat,2021.2.3,120.11171118412796,
2,2,0,1,1,2,3,2,2,1,1,0,1,1,1,0,0,32,32,32,,,,,,,,,,,,,,,,,,,,,,,,,,,,,,,,02_HS,24,M,2,2021_Nov_02_1208,Partial repeat,2021.2.3,120.11171118412796,
2,2,0,1,1,2,3,3,2,0,1,0,0,0,1,0,0,33,33,33,0,0,0,0,,,,,,,475.42377863785237,None,0.7164523556968678,475.8234391977617,None,"[87. 87. 87. 87. 93. 87. 93. 93. 87. 93. 93. 93. 93. 93. 87. 93. 87. 87.
 93. 93. 93. 93. 93. 87. 87. 93. 93. 93. 93. 93. 93. 87. 93. 87.]",476.6144195972131,None,s,1,0.5911321200959492,476.6144195972131,None,None,None,,,,,,,02_HS,24,M,2,2021_Nov_02_1208,Partial repeat,2021.2.3,120.11171118412796,
2,2,0,1,1,2,3,3,2,0,1,0,0,0,1,0,0,33,33,33,1,0,1,0,,,,,,,,,0.702959679923866,477.2721800238353,None,"[87. 93. 93. 87. 93. 93. 93. 87. 87. 93. 93. 87. 87. 87. 93. 93. 93. 93.
 93. 87. 93. 87. 93. 93. 87. 93. 93. 93. 93. 87. 93. 93. 87. 93.]",478.06317613810575,None,l,1,0.805607007814956,478.06317613810575,None,None,None,,,,,,,02_HS,24,M,2,2021_Nov_02_1208,Partial repeat,2021.2.3,120.11171118412796,
2,2,0,1,1,2,3,3,2,0,1,0,0,0,1,0,0,33,33,33,,,,,,,,,,,,,,,,,,,,,,,,,,,,,,,,02_HS,24,M,2,2021_Nov_02_1208,Partial repeat,2021.2.3,120.11171118412796,
2,2,0,1,1,2,2,3,2,1,1,1,0,1,1,0,0,34,34,34,0,0,0,0,,,,,,,478.8874597668562,None,0.7557208266798898,479.29543442815384,None,"[93. 93. 87. 93. 93. 93. 87. 93. 87. 87. 87. 93. 87. 87. 93. 87. 93. 87.
 93. 87. 93. 87. 87. 87. 87. 87. 87. 93. 93. 93. 93. 87. 93. 93.]",480.1363764064763,None,l,1,0.572444313897563,480.1363764064763,None,None,None,,,,,,,02_HS,24,M,2,2021_Nov_02_1208,Partial repeat,2021.2.3,120.11171118412796,
2,2,0,1,1,2,2,3,2,1,1,1,0,1,1,0,0,34,34,34,1,0,1,0,,,,,,,,,0.945651177955251,480.76916406142755,None,"[93. 87. 93. 87. 93. 93. 93. 87. 87. 93. 93. 93. 93. 87. 93. 93. 93. 93.
 93. 93. 93. 87. 87. 93. 93. 93. 93. 87. 87. 87. 87. 93. 87. 93.]",481.79328021510696,None,l,1,0.6275369415305931,481.79328021510696,None,None,None,,,,,,,02_HS,24,M,2,2021_Nov_02_1208,Partial repeat,2021.2.3,120.11171118412796,
2,2,0,1,1,2,2,3,2,1,1,1,0,1,1,0,0,34,34,34,,,,,,,,,,,,,,,,,,,,,,,,,,,,,,,,02_HS,24,M,2,2021_Nov_02_1208,Partial repeat,2021.2.3,120.11171118412796,
2,2,0,1,1,2,3,2,3,0,1,0,0,0,1,0,0,35,35,35,0,0,0,0,,,,,,,482.4427172397336,None,0.8219569605127888,482.7674360727576,None,"[93. 87. 87. 87. 93. 87. 93. 93. 93. 93. 93. 87. 93. 93. 93. 87. 93. 87.
 87. 87. 93. 93. 87. 87. 93. 93. 87. 87. 93. 87. 93. 93. 93. 93.]",483.6749886789162,None,s,1,0.632868755123468,483.6749886789162,None,None,None,,,,,,,02_HS,24,M,2,2021_Nov_02_1208,Partial repeat,2021.2.3,120.11171118412796,
2,2,0,1,1,2,3,2,3,0,1,0,0,0,1,0,0,35,35,35,1,0,1,0,,,,,,,,,0.7849938399676244,484.3743853581502,None,"[93. 93. 93. 87. 87. 93. 87. 87. 93. 93. 93. 87. 93. 93. 87. 87. 93. 93.
 87. 93. 93. 87. 93. 93. 87. 87. 87. 87. 87. 87. 93. 93. 87. 87.]",485.24863024506135,None,l,1,0.6112134138169267,485.24863024506135,None,None,None,,,,,,,02_HS,24,M,2,2021_Nov_02_1208,Partial repeat,2021.2.3,120.11171118412796,
2,2,0,1,1,2,3,2,3,0,1,0,0,0,1,0,0,35,35,35,,,,,,,,,,,,,,,,,,,,,,,,,,,,,,,,02_HS,24,M,2,2021_Nov_02_1208,Partial repeat,2021.2.3,120.11171118412796,
2,2,0,1,1,2,2,2,2,0,0,1,1,1,1,0,0,36,36,36,0,0,0,0,,,,,,,485.88974066058677,None,0.7188595750891512,486.38098173360754,None,"[87. 93. 93. 87. 93. 87. 87. 87. 93. 87. 87. 87. 87. 87. 93. 93. 87. 93.
 93. 87. 87. 93. 93. 87. 87. 87. 93. 93. 87. 93. 93. 93. 93. 87.]",487.18028393150144,None,s,1,0.5037076955469502,487.18028393150144,None,None,None,,,,,,,02_HS,24,M,2,2021_Nov_02_1208,Partial repeat,2021.2.3,120.11171118412796,
2,2,0,1,1,2,2,2,2,0,0,1,1,1,1,0,0,36,36,36,1,0,1,0,,,,,,,,,0.8266739577792772,487.7547959061933,None,"[93. 87. 87. 93. 93. 87. 87. 93. 93. 93. 93. 93. 87. 93. 93. 87. 93. 93.
 87. 87. 93. 93. 87. 87. 87. 93. 93. 93. 93. 87. 93. 93. 87. 87.]",488.67067223505774,None,s,1,0.5491972859225598,488.67067223505774,None,None,None,,,,,,,02_HS,24,M,2,2021_Nov_02_1208,Partial repeat,2021.2.3,120.11171118412796,
2,2,0,1,1,2,2,2,2,0,0,1,1,1,1,0,0,36,36,36,,,,,,,,,,,,,,,,,,,,,,,,,,,,,,,,02_HS,24,M,2,2021_Nov_02_1208,Partial repeat,2021.2.3,120.11171118412796,
2,2,0,1,1,3,2,2,2,0,1,0,1,0,1,0,0,37,37,37,0,0,0,0,,,,,,,489.2368576006486,None,0.874170355639341,489.6531563053627,None,"[87. 87. 93. 87. 93. 93. 93. 93. 87. 87. 87. 93. 87. 93. 87. 93. 87. 93.
 93. 93. 87. 87. 93. 93. 93. 93. 87. 87. 93. 87. 93. 93. 87. 87.]",490.61067754602504,None,s,1,0.9773815251777478,490.61067754602504,None,None,None,,,,,,,02_HS,24,M,2,2021_Nov_02_1208,Partial repeat,2021.2.3,120.11171118412796,
2,2,0,1,1,3,2,2,2,0,1,0,1,0,1,0,0,37,37,37,1,0,1,0,,,,,,,,,0.9600145210296793,491.6597687163494,None,"[87. 93. 93. 87. 87. 87. 93. 93. 93. 87. 87. 93. 93. 87. 93. 93. 93. 87.
 87. 93. 93. 87. 87. 87. 93. 87. 93. 87. 87. 93. 93. 93. 87. 87.]",492.70051627991097,None,l,1,0.8233878444592619,492.70051627991097,None,None,None,,,,,,,02_HS,24,M,2,2021_Nov_02_1208,Partial repeat,2021.2.3,120.11171118412796,
2,2,0,1,1,3,2,2,2,0,1,0,1,0,1,0,0,37,37,37,,,,,,,,,,,,,,,,,,,,,,,,,,,,,,,,02_HS,24,M,2,2021_Nov_02_1208,Partial repeat,2021.2.3,120.11171118412796,
2,2,0,1,1,3,3,2,2,1,0,1,1,0,1,0,0,38,38,38,0,0,0,0,,,,,,,493.5414739730527,None,0.8318466168385464,493.99940091261396,None,"[87. 87. 93. 93. 87. 87. 87. 93. 93. 93. 93. 87. 93. 93. 93. 87. 87. 93.
 93. 93. 93. 93. 93. 93. 87. 87. 87. 87. 93. 87. 93. 93. 93. 87.]",494.90695512232537,None,l,1,1.0009527915614171,494.90695512232537,None,None,None,,,,,,,02_HS,24,M,2,2021_Nov_02_1208,Partial repeat,2021.2.3,120.11171118412796,
2,2,0,1,1,3,3,2,2,1,0,1,1,0,1,0,0,38,38,38,1,0,1,0,,,,,,,,,0.8083855820534073,495.97269534161455,None,"[93. 93. 93. 87. 93. 87. 87. 87. 93. 93. 87. 93. 87. 93. 87. 87. 87. 87.
 87. 87. 87. 93. 87. 87. 87. 93. 93. 87. 87. 87. 87. 93. 87. 93.]",496.8552722897068,None,s,1,0.5417349918669743,496.8552722897068,None,None,None,,,,,,,02_HS,24,M,2,2021_Nov_02_1208,Partial repeat,2021.2.3,120.11171118412796,
2,2,0,1,1,3,3,2,2,1,0,1,1,0,1,0,0,38,38,38,,,,,,,,,,,,,,,,,,,,,,,,,,,,,,,,02_HS,24,M,2,2021_Nov_02_1208,Partial repeat,2021.2.3,120.11171118412796,
2,2,0,1,1,3,3,3,3,0,0,1,1,1,1,0,0,39,39,39,0,0,0,0,,,,,,,497.41311276569263,None,0.9864501827204764,497.79612620090074,None,"[87. 93. 93. 93. 93. 93. 87. 93. 93. 87. 87. 93. 93. 93. 93. 93. 93. 93.
 87. 87. 93. 87. 93. 87. 87. 87. 87. 93. 87. 93. 93. 93. 87. 93.]",498.8618824557195,None,s,1,1.4930607453121638,498.8618824557195,None,None,None,,,,,,,02_HS,24,M,2,2021_Nov_02_1208,Partial repeat,2021.2.3,120.11171118412796,
2,2,0,1,1,3,3,3,3,0,0,1,1,1,1,0,0,39,39,39,1,0,1,0,,,,,,,,,0.9771801154077104,500.4354986857279,None,"[93. 93. 87. 93. 87. 93. 93. 87. 93. 87. 93. 87. 93. 93. 93. 87. 93. 87.
 93. 87. 93. 93. 93. 93. 93. 93. 93. 87. 93. 87. 87. 87. 87. 93.]",501.49293410423616,None,s,1,0.750927455424403,501.49293410423616,None,None,None,,,,,,,02_HS,24,M,2,2021_Nov_02_1208,Partial repeat,2021.2.3,120.11171118412796,
2,2,0,1,1,3,3,3,3,0,0,1,1,1,1,0,0,39,39,39,,,,,,,,,,,,,,,,,,,,,,,,,,,,,,,,02_HS,24,M,2,2021_Nov_02_1208,Partial repeat,2021.2.3,120.11171118412796,
2,2,0,1,1,2,3,3,3,1,1,0,1,1,1,0,0,40,40,40,0,0,0,0,,,,,,,502.2672750760405,None,0.978246366753299,502.6585913877659,None,"[93. 93. 87. 93. 87. 87. 93. 87. 87. 93. 87. 87. 87. 87. 93. 93. 87. 87.
 87. 93. 93. 93. 93. 87. 93. 93. 93. 87. 87. 93. 87. 87. 93. 87.]",503.71600596008557,None,l,1,0.6549538486234496,503.71600596008557,None,None,None,,,,,,,02_HS,24,M,2,2021_Nov_02_1208,Partial repeat,2021.2.3,120.11171118412796,
2,2,0,1,1,2,3,3,3,1,1,0,1,1,1,0,0,40,40,40,1,0,1,0,,,,,,,,,0.8731386448062343,504.43205649894367,None,"[93. 87. 93. 87. 93. 87. 93. 93. 93. 87. 93. 93. 93. 93. 87. 93. 93. 87.
 87. 93. 87. 93. 93. 93. 93. 87. 93. 93. 93. 87. 93. 93. 87. 87.]",505.3895642697612,None,l,1,0.8377396434533466,505.3895642697612,None,None,None,,,,,,,02_HS,24,M,2,2021_Nov_02_1208,Partial repeat,2021.2.3,120.11171118412796,
2,2,0,1,1,2,3,3,3,1,1,0,1,1,1,0,0,40,40,40,,,,,,,,,,,,,,,,,,,,,,,,,,,,,,,,02_HS,24,M,2,2021_Nov_02_1208,Partial repeat,2021.2.3,120.11171118412796,
2,2,0,1,1,3,2,2,2,0,0,0,1,1,1,0,0,41,41,41,0,0,0,0,,,,,,,506.2471543349168,None,0.9391790963724733,506.5468827571874,None,"[87. 87. 87. 87. 93. 93. 87. 93. 87. 87. 93. 93. 87. 87. 87. 87. 87. 93.
 93. 87. 87. 93. 93. 93. 93. 93. 93. 93. 87. 87. 93. 93. 87. 87.]",507.56270244856114,None,s,1,0.6638625474491846,507.56270244856114,None,None,None,,,,,,,02_HS,24,M,2,2021_Nov_02_1208,Partial repeat,2021.2.3,120.11171118412796,
2,2,0,1,1,3,2,2,2,0,0,0,1,1,1,0,0,41,41,41,1,0,1,0,,,,,,,,,0.8877212873977772,508.29538856653903,None,"[87. 87. 93. 87. 93. 87. 93. 87. 93. 87. 87. 93. 87. 87. 93. 87. 87. 87.
 87. 87. 93. 87. 93. 87. 93. 87. 93. 93. 87. 93. 93. 87. 93. 93.]",509.26954698987447,None,s,1,0.8774388040895928,509.26954698987447,None,None,None,,,,,,,02_HS,24,M,2,2021_Nov_02_1208,Partial repeat,2021.2.3,120.11171118412796,
2,2,0,1,1,3,2,2,2,0,0,0,1,1,1,0,0,41,41,41,,,,,,,,,,,,,,,,,,,,,,,,,,,,,,,,02_HS,24,M,2,2021_Nov_02_1208,Partial repeat,2021.2.3,120.11171118412796,
2,2,0,1,1,3,2,2,2,1,1,0,1,1,1,0,0,42,42,42,0,0,0,0,,,,,,,510.17709478537404,None,0.7626598286225272,510.4851610416167,None,"[93. 93. 93. 87. 93. 87. 87. 93. 93. 87. 93. 87. 93. 93. 87. 87. 87. 93.
 93. 93. 93. 93. 93. 93. 93. 87. 93. 87. 87. 87. 93. 87. 93. 87.]",511.32610590633453,None,l,1,0.9648959411189253,511.32610590633453,None,None,None,,,,,,,02_HS,24,M,2,2021_Nov_02_1208,Partial repeat,2021.2.3,120.11171118412796,
2,2,0,1,1,3,2,2,2,1,1,0,1,1,1,0,0,42,42,42,1,0,1,0,,,,,,,,,0.9745707954516127,512.3502243049882,None,"[87. 93. 87. 93. 93. 93. 93. 93. 93. 93. 87. 93. 87. 93. 93. 87. 93. 87.
 87. 93. 87. 93. 87. 93. 93. 93. 93. 87. 93. 93. 87. 93. 93. 93.]",513.4076388773076,None,l,1,0.8824967308365785,513.4076388773076,None,None,None,,,,,,,02_HS,24,M,2,2021_Nov_02_1208,Partial repeat,2021.2.3,120.11171118412796,
2,2,0,1,1,3,2,2,2,1,1,0,1,1,1,0,0,42,42,42,,,,,,,,,,,,,,,,,,,,,,,,,,,,,,,,02_HS,24,M,2,2021_Nov_02_1208,Partial repeat,2021.2.3,120.11171118412796,
2,2,0,1,1,2,3,3,2,1,0,0,0,0,1,0,0,43,43,43,0,0,0,0,,,,,,,514.3068581394423,None,0.9400403810484756,514.6066019558214,None,"[93. 87. 87. 93. 93. 87. 93. 93. 87. 93. 87. 87. 87. 93. 87. 87. 87. 87.
 87. 87. 87. 87. 93. 87. 87. 87. 93. 93. 87. 87. 93. 87. 87. 93.]",515.6223931039526,None,l,1,1.0996886786916775,515.6223931039526,None,None,None,,,,,,,02_HS,24,M,2,2021_Nov_02_1208,Partial repeat,2021.2.3,120.11171118412796,
2,2,0,1,1,2,3,3,2,1,0,0,0,0,1,0,0,43,43,43,1,0,1,0,,,,,,,,,0.8257414605573299,516.788052311746,None,"[93. 87. 93. 87. 87. 93. 87. 93. 87. 87. 87. 93. 87. 93. 87. 87. 87. 93.
 93. 93. 93. 93. 87. 93. 93. 93. 87. 87. 87. 93. 87. 93. 87. 87.]",517.6956045971938,None,s,1,0.6744751816505641,517.6956045971938,None,None,None,,,,,,,02_HS,24,M,2,2021_Nov_02_1208,Partial repeat,2021.2.3,120.11171118412796,
2,2,0,1,1,2,3,3,2,1,0,0,0,0,1,0,0,43,43,43,,,,,,,,,,,,,,,,,,,,,,,,,,,,,,,,02_HS,24,M,2,2021_Nov_02_1208,Partial repeat,2021.2.3,120.11171118412796,
2,2,0,1,1,3,2,3,3,0,1,0,1,0,1,0,0,44,44,44,0,0,0,0,,,,,,,518.3949964657693,None,0.8865212807929068,518.7030643255648,None,"[93. 93. 87. 87. 87. 87. 87. 93. 93. 93. 87. 93. 93. 93. 87. 87. 87. 87.
 87. 87. 87. 87. 93. 87. 93. 93. 87. 93. 87. 87. 87. 87. 93. 87.]",519.6688996676155,None,s,1,0.6532912849141894,519.6688996676155,None,None,None,,,,,,,02_HS,24,M,2,2021_Nov_02_1208,Partial repeat,2021.2.3,120.11171118412796,
2,2,0,1,1,3,2,3,3,0,1,0,1,0,1,0,0,44,44,44,1,0,1,0,,,,,,,,,0.9858014332419366,520.3932771362854,None,"[87. 93. 93. 93. 93. 93. 87. 93. 93. 93. 93. 87. 93. 87. 93. 93. 87. 93.
 87. 87. 93. 93. 93. 87. 93. 93. 87. 93. 87. 87. 87. 93. 93. 93.]",521.4590282597344,None,l,1,0.6070909998667275,521.4590282597344,None,None,None,,,,,,,02_HS,24,M,2,2021_Nov_02_1208,Partial repeat,2021.2.3,120.11171118412796,
2,2,0,1,1,3,2,3,3,0,1,0,1,0,1,0,0,44,44,44,,,,,,,,,,,,,,,,,,,,,,,,,,,,,,,,02_HS,24,M,2,2021_Nov_02_1208,Partial repeat,2021.2.3,120.11171118412796,
2,2,0,1,1,3,3,2,3,1,1,1,0,1,1,0,0,45,45,45,0,0,0,0,,,,,,,522.0834761564504,None,0.9100886884073861,523.0992692288448,None,"[87. 93. 93. 87. 93. 93. 93. 87. 93. 87. 87. 87. 87. 87. 93. 93. 87. 87.
 87. 87. 87. 93. 87. 87. 87. 93. 93. 93. 93. 93. 93. 87. 93. 93.]",524.090079908251,None,l,1,0.6960134635911572,524.090079908251,None,None,None,,,,,,,02_HS,24,M,2,2021_Nov_02_1208,Partial repeat,2021.2.3,120.11171118412796,
2,2,0,1,1,3,3,2,3,1,1,1,0,1,1,0,0,45,45,45,1,0,1,0,,,,,,,,,0.9882123189437895,524.8394307900128,None,"[93. 93. 93. 93. 87. 93. 87. 87. 93. 87. 93. 87. 87. 93. 93. 93. 87. 93.
 93. 93. 87. 87. 87. 93. 87. 87. 93. 93. 93. 87. 93. 87. 87. 93.]",525.9051758199607,None,l,1,0.6740197726097676,525.9051758199607,None,None,None,,,,,,,02_HS,24,M,2,2021_Nov_02_1208,Partial repeat,2021.2.3,120.11171118412796,
2,2,0,1,1,3,3,2,3,1,1,1,0,1,1,0,0,45,45,45,,,,,,,,,,,,,,,,,,,,,,,,,,,,,,,,02_HS,24,M,2,2021_Nov_02_1208,Partial repeat,2021.2.3,120.11171118412796,
2,2,0,1,1,2,2,3,2,0,1,1,0,0,1,0,0,46,46,46,0,0,0,0,,,,,,,526.5879186395714,None,0.7678381431863779,527.0042340212362,None,"[93. 87. 87. 87. 93. 87. 87. 93. 93. 93. 87. 87. 93. 87. 87. 93. 87. 87.
 87. 93. 93. 87. 93. 93. 93. 87. 87. 87. 93. 87. 87. 93. 87. 87.]",527.8534971565798,None,s,1,0.6919304970436997,527.8534971565798,None,None,None,,,,,,,02_HS,24,M,2,2021_Nov_02_1208,Partial repeat,2021.2.3,120.11171118412796,
2,2,0,1,1,2,2,3,2,0,1,1,0,0,1,0,0,46,46,46,1,0,1,0,,,,,,,,,0.7073782218721901,528.6194986908592,None,"[87. 93. 87. 93. 87. 93. 87. 93. 87. 87. 93. 87. 93. 93. 87. 93. 87. 87.
 93. 87. 87. 87. 93. 87. 87. 93. 93. 93. 93. 93. 87. 87. 87. 93.]",529.4021633853697,None,l,1,0.6013066636284066,529.4021633853697,None,None,None,,,,,,,02_HS,24,M,2,2021_Nov_02_1208,Partial repeat,2021.2.3,120.11171118412796,
2,2,0,1,1,2,2,3,2,0,1,1,0,0,1,0,0,46,46,46,,,,,,,,,,,,,,,,,,,,,,,,,,,,,,,,02_HS,24,M,2,2021_Nov_02_1208,Partial repeat,2021.2.3,120.11171118412796,
2,2,0,1,1,3,3,2,2,0,1,1,1,0,1,0,0,47,47,47,0,0,0,0,,,,,,,530.0266157720337,None,0.9627991835425584,530.3679878232601,None,"[87. 93. 93. 87. 93. 87. 93. 93. 87. 93. 93. 93. 87. 87. 87. 87. 87. 87.
 93. 93. 87. 93. 87. 87. 87. 93. 93. 87. 93. 87. 93. 93. 87. 87.]",531.4087652129069,None,s,1,0.512466301815607,531.4087652129069,None,None,None,,,,,,,02_HS,24,M,2,2021_Nov_02_1208,Partial repeat,2021.2.3,120.11171118412796,
2,2,0,1,1,3,3,2,2,0,1,1,1,0,1,0,0,47,47,47,1,0,1,0,,,,,,,,,0.781494026361215,531.9832598692269,None,"[87. 93. 93. 87. 87. 93. 93. 93. 87. 93. 87. 87. 87. 87. 93. 87. 87. 93.
 87. 87. 87. 87. 93. 93. 87. 93. 87. 87. 93. 87. 93. 87. 93. 93.]",532.8408515379356,None,l,1,0.8242948140135695,532.8408515379356,None,None,None,,,,,,,02_HS,24,M,2,2021_Nov_02_1208,Partial repeat,2021.2.3,120.11171118412796,
2,2,0,1,1,3,3,2,2,0,1,1,1,0,1,0,0,47,47,47,,,,,,,,,,,,,,,,,,,,,,,,,,,,,,,,02_HS,24,M,2,2021_Nov_02_1208,Partial repeat,2021.2.3,120.11171118412796,
2,2,0,1,1,3,2,3,3,1,1,0,1,1,1,0,0,48,48,48,0,0,0,0,,,,,,,533.6901214082018,None,0.7508849363045068,534.0481421876823,None,"[87. 87. 93. 93. 93. 93. 93. 87. 87. 87. 93. 87. 93. 93. 93. 87. 87. 93.
 87. 93. 87. 87. 87. 87. 93. 87. 87. 93. 93. 93. 93. 93. 93. 93.]",534.8890886559532,None,l,1,1.8000747501024534,534.8890886559532,None,None,None,,,,,,,02_HS,24,M,2,2021_Nov_02_1208,Partial repeat,2021.2.3,120.11171118412796,
2,2,0,1,1,3,2,3,3,1,1,0,1,1,1,0,0,48,48,48,1,0,1,0,,,,,,,,,0.8362054381903647,536.7541371666373,None,"[87. 93. 93. 93. 93. 87. 87. 93. 87. 87. 87. 93. 87. 93. 87. 87. 87. 87.
 93. 87. 87. 87. 87. 93. 93. 87. 93. 87. 93. 87. 93. 87. 93. 87.]",537.6700170233182,None,l,1,0.6511842163243955,537.6700170233182,None,None,None,,,,,,,02_HS,24,M,2,2021_Nov_02_1208,Partial repeat,2021.2.3,120.11171118412796,
2,2,0,1,1,3,2,3,3,1,1,0,1,1,1,0,0,48,48,48,,,,,,,,,,,,,,,,,,,,,,,,,,,,,,,,02_HS,24,M,2,2021_Nov_02_1208,Partial repeat,2021.2.3,120.11171118412796,
2,2,0,1,1,2,2,2,2,1,1,1,1,1,1,0,0,49,49,49,0,0,0,0,,,,,,,538.3444316302746,None,0.9770408867349463,542.7989112516821,None,"[87. 93. 93. 87. 87. 87. 93. 87. 87. 87. 87. 87. 87. 87. 93. 93. 87. 87.
 93. 93. 87. 87. 93. 93. 93. 87. 87. 87. 87. 93. 87. 93. 93. 93.]",543.8563376902937,None,l,1,0.5768909662559736,543.8563376902937,None,None,None,,,,,,,02_HS,24,M,2,2021_Nov_02_1208,Partial repeat,2021.2.3,120.11171118412796,
2,2,0,1,1,2,2,2,2,1,1,1,1,1,1,0,0,49,49,49,1,0,1,0,,,,,,,,,0.8223748670462606,544.5057759977626,None,"[87. 87. 93. 93. 87. 93. 93. 93. 87. 93. 87. 87. 87. 87. 93. 93. 93. 93.
 93. 93. 87. 93. 93. 87. 87. 87. 93. 93. 93. 93. 93. 87. 87. 93.]",545.4050029569516,None,l,1,0.5313051627030063,545.4050029569516,None,None,None,,,,,,,02_HS,24,M,2,2021_Nov_02_1208,Partial repeat,2021.2.3,120.11171118412796,
2,2,0,1,1,2,2,2,2,1,1,1,1,1,1,0,0,49,49,49,,,,,,,,,,,,,,,,,,,,,,,,,,,,,,,,02_HS,24,M,2,2021_Nov_02_1208,Partial repeat,2021.2.3,120.11171118412796,
2,2,0,1,1,3,2,3,3,1,0,0,1,0,1,0,0,50,50,50,0,0,0,0,,,,,,,545.9545235587586,None,0.996716900818172,546.2709366288698,None,"[87. 93. 87. 87. 87. 93. 87. 87. 93. 87. 93. 93. 87. 87. 93. 87. 93. 93.
 87. 87. 87. 87. 93. 87. 87. 93. 93. 87. 87. 87. 87. 87. 87. 93.]",547.3450210963426,None,l,1,0.7031983429845923,547.3450210963426,None,None,None,,,,,,,02_HS,24,M,2,2021_Nov_02_1208,Partial repeat,2021.2.3,120.11171118412796,
2,2,0,1,1,3,2,3,3,1,0,0,1,0,1,0,0,50,50,50,1,0,1,0,,,,,,,,,0.8774824513428782,548.1193216586125,None,"[87. 93. 87. 93. 93. 87. 93. 87. 93. 87. 87. 87. 93. 93. 93. 87. 93. 87.
 93. 93. 93. 87. 87. 93. 93. 87. 93. 87. 87. 93. 87. 87. 93. 93.]",549.0768291087195,None,s,1,0.5888181931742338,549.0768291087195,None,None,None,,,,,,,02_HS,24,M,2,2021_Nov_02_1208,Partial repeat,2021.2.3,120.11171118412796,
2,2,0,1,1,3,2,3,3,1,0,0,1,0,1,0,0,50,50,50,,,,,,,,,,,,,,,,,,,,,,,,,,,,,,,,02_HS,24,M,2,2021_Nov_02_1208,Partial repeat,2021.2.3,120.11171118412796,
2,2,0,1,1,3,2,3,2,0,1,0,0,0,1,0,0,51,51,51,0,0,0,0,,,,,,,549.6763080822918,None,0.8951142254584534,550.0759612658576,None,"[93. 87. 93. 93. 87. 93. 87. 93. 93. 93. 93. 93. 87. 93. 93. 87. 93. 87.
 93. 87. 93. 87. 93. 93. 87. 93. 87. 87. 87. 93. 87. 93. 87. 87.]",551.0501254619835,None,s,1,0.5981624169841098,551.0501254619835,None,None,None,,,,,,,02_HS,24,M,2,2021_Nov_02_1208,Partial repeat,2021.2.3,120.11171118412796,
2,2,0,1,1,3,2,3,2,0,1,0,0,0,1,0,0,51,51,51,1,0,1,0,,,,,,,,,0.8887065179455881,551.7078858886057,None,"[93. 87. 87. 87. 93. 93. 87. 87. 87. 93. 87. 93. 87. 93. 87. 93. 87. 93.
 93. 93. 87. 87. 87. 93. 87. 87. 93. 87. 87. 87. 93. 87. 93. 93.]",552.6737225134987,None,l,1,0.5745966026807992,552.6737225134987,None,None,None,,,,,,,02_HS,24,M,2,2021_Nov_02_1208,Partial repeat,2021.2.3,120.11171118412796,
2,2,0,1,1,3,2,3,2,0,1,0,0,0,1,0,0,51,51,51,,,,,,,,,,,,,,,,,,,,,,,,,,,,,,,,02_HS,24,M,2,2021_Nov_02_1208,Partial repeat,2021.2.3,120.11171118412796,
2,2,0,1,1,2,2,2,2,1,0,1,1,0,1,0,0,52,52,52,0,0,0,0,,,,,,,553.2648735951273,None,0.7439135611340787,553.6978344979404,None,"[93. 93. 87. 87. 93. 87. 87. 93. 93. 87. 87. 87. 93. 93. 93. 87. 93. 93.
 93. 93. 93. 93. 87. 87. 93. 87. 87. 87. 87. 93. 87. 87. 93. 87.]",554.5221274272981,None,l,1,0.8541468766317166,554.5221274272981,None,None,None,,,,,,,02_HS,24,M,2,2021_Nov_02_1208,Partial repeat,2021.2.3,120.11171118412796,
2,2,0,1,1,2,2,2,2,1,0,1,1,0,1,0,0,52,52,52,1,0,1,0,,,,,,,,,0.8002504635757984,555.438009528953,None,"[93. 87. 93. 93. 93. 93. 87. 93. 87. 93. 87. 87. 87. 93. 87. 87. 93. 87.
 87. 87. 87. 87. 87. 93. 87. 87. 93. 93. 93. 93. 87. 87. 93. 87.]",556.3205707622265,None,s,1,0.5766388877308373,556.3205707622265,None,None,None,,,,,,,02_HS,24,M,2,2021_Nov_02_1208,Partial repeat,2021.2.3,120.11171118412796,
2,2,0,1,1,2,2,2,2,1,0,1,1,0,1,0,0,52,52,52,,,,,,,,,,,,,,,,,,,,,,,,,,,,,,,,02_HS,24,M,2,2021_Nov_02_1208,Partial repeat,2021.2.3,120.11171118412796,
2,2,0,1,1,2,2,2,2,0,1,1,1,0,1,0,0,53,53,53,0,0,0,0,,,,,,,556.9200526221939,None,0.7254584282230954,557.2780743638064,None,"[87. 93. 93. 87. 87. 93. 93. 93. 87. 93. 93. 93. 87. 87. 87. 93. 87. 93.
 87. 87. 87. 93. 87. 87. 93. 87. 93. 87. 93. 87. 93. 93. 87. 87.]",558.0940416461947,None,s,1,0.770276566863572,558.0940416461947,None,None,None,,,,,,,02_HS,24,M,2,2021_Nov_02_1208,Partial repeat,2021.2.3,120.11171118412796,
2,2,0,1,1,2,2,2,2,0,1,1,1,0,1,0,0,53,53,53,1,0,1,0,,,,,,,,,0.9114697396451799,558.9266534875994,None,"[93. 93. 87. 93. 87. 93. 93. 87. 93. 93. 87. 93. 93. 87. 93. 87. 93. 93.
 93. 87. 93. 87. 93. 93. 93. 87. 87. 87. 93. 93. 93. 93. 93. 87.]",559.9257894932643,None,l,1,0.5385631641116788,559.9257894932643,None,None,None,,,,,,,02_HS,24,M,2,2021_Nov_02_1208,Partial repeat,2021.2.3,120.11171118412796,
2,2,0,1,1,2,2,2,2,0,1,1,1,0,1,0,0,53,53,53,,,,,,,,,,,,,,,,,,,,,,,,,,,,,,,,02_HS,24,M,2,2021_Nov_02_1208,Partial repeat,2021.2.3,120.11171118412796,
2,2,0,1,1,3,2,3,2,1,0,0,0,0,1,0,0,54,54,54,0,0,0,0,,,,,,,560.4836476083328,None,0.8547606023824155,561.1830503810684,None,"[87. 87. 87. 93. 87. 93. 87. 93. 87. 87. 87. 87. 93. 87. 93. 87. 87. 87.
 93. 93. 93. 93. 93. 87. 93. 87. 87. 87. 93. 87. 87. 93. 93. 87.]",562.1238908224175,None,l,1,0.6275844066982472,562.1238908224175,None,None,None,,,,,,,02_HS,24,M,2,2021_Nov_02_1208,Partial repeat,2021.2.3,120.11171118412796,
2,2,0,1,1,3,2,3,2,1,0,0,0,0,1,0,0,54,54,54,1,0,1,0,,,,,,,,,0.8628784287819553,562.8232929537317,None,"[93. 87. 87. 87. 93. 87. 87. 87. 87. 93. 93. 87. 87. 93. 93. 87. 87. 87.
 87. 87. 93. 93. 87. 87. 93. 87. 87. 93. 87. 87. 87. 87. 87. 93.]",563.7724680219469,None,s,1,0.546871492708874,563.7724680219469,None,None,None,,,,,,,02_HS,24,M,2,2021_Nov_02_1208,Partial repeat,2021.2.3,120.11171118412796,
2,2,0,1,1,3,2,3,2,1,0,0,0,0,1,0,0,54,54,54,,,,,,,,,,,,,,,,,,,,,,,,,,,,,,,,02_HS,24,M,2,2021_Nov_02_1208,Partial repeat,2021.2.3,120.11171118412796,
2,2,0,1,1,3,3,2,2,0,0,1,1,1,1,0,0,55,55,55,0,0,0,0,,,,,,,564.3386415212458,None,0.9415413790754246,564.6716930568723,None,"[87. 87. 87. 93. 87. 93. 87. 87. 87. 87. 93. 87. 93. 93. 87. 87. 87. 93.
 93. 93. 87. 87. 93. 87. 93. 93. 93. 87. 87. 87. 93. 87. 93. 93.]",565.6958024756291,None,s,1,0.6075396739848884,565.6958024756291,None,None,None,,,,,,,02_HS,24,M,2,2021_Nov_02_1208,Partial repeat,2021.2.3,120.11171118412796,
2,2,0,1,1,3,3,2,2,0,0,1,1,1,1,0,0,55,55,55,1,0,1,0,,,,,,,,,0.9550864029716959,566.3702225346656,None,"[87. 87. 93. 93. 87. 93. 87. 93. 87. 87. 87. 93. 87. 93. 93. 87. 93. 87.
 93. 93. 87. 87. 93. 93. 87. 87. 87. 93. 87. 87. 93. 93. 87. 87.]",567.4109761917284,None,s,1,0.7810332001209872,567.4109761917284,None,None,None,,,,,,,02_HS,24,M,2,2021_Nov_02_1208,Partial repeat,2021.2.3,120.11171118412796,
2,2,0,1,1,3,3,2,2,0,0,1,1,1,1,0,0,55,55,55,,,,,,,,,,,,,,,,,,,,,,,,,,,,,,,,02_HS,24,M,2,2021_Nov_02_1208,Partial repeat,2021.2.3,120.11171118412796,
2,2,0,1,1,3,2,2,2,1,0,0,1,0,1,0,0,56,56,56,0,0,0,0,,,,,,,568.2186232792274,None,0.779227249464333,569.0262607454083,None,"[93. 93. 93. 93. 87. 87. 87. 87. 93. 87. 87. 87. 87. 93. 93. 87. 87. 87.
 93. 87. 93. 87. 93. 93. 87. 93. 93. 87. 87. 87. 87. 87. 87. 87.]",569.8921825510347,None,l,1,0.6840657111951032,569.8921825510347,None,None,None,,,,,,,02_HS,24,M,2,2021_Nov_02_1208,Partial repeat,2021.2.3,120.11171118412796,
2,2,0,1,1,3,2,2,2,1,0,0,1,0,1,0,0,56,56,56,1,0,1,0,,,,,,,,,0.7143749840796513,570.6498622868717,None,"[87. 93. 87. 87. 93. 93. 87. 87. 93. 87. 93. 93. 93. 87. 93. 87. 93. 93.
 93. 93. 93. 93. 93. 93. 93. 93. 93. 87. 87. 93. 93. 93. 87. 87.]",571.4491692954246,None,s,1,0.6302113471575694,571.4491692954246,None,None,None,,,,,,,02_HS,24,M,2,2021_Nov_02_1208,Partial repeat,2021.2.3,120.11171118412796,
2,2,0,1,1,3,2,2,2,1,0,0,1,0,1,0,0,56,56,56,,,,,,,,,,,,,,,,,,,,,,,,,,,,,,,,02_HS,24,M,2,2021_Nov_02_1208,Partial repeat,2021.2.3,120.11171118412796,
2,2,0,1,1,2,2,2,3,1,1,1,0,1,1,0,0,57,57,57,0,0,0,0,,,,,,,572.0986066407618,None,0.9984378837273136,572.6564634729878,None,"[93. 93. 87. 93. 93. 87. 87. 93. 93. 93. 87. 87. 87. 87. 87. 93. 87. 93.
 93. 93. 87. 93. 87. 87. 93. 87. 87. 93. 87. 87. 87. 93. 93. 93.]",573.7388565897688,None,l,1,0.6445583354926612,573.7388565897688,None,None,None,,,,,,,02_HS,24,M,2,2021_Nov_02_1208,Partial repeat,2021.2.3,120.11171118412796,
2,2,0,1,1,2,2,2,3,1,1,1,0,1,1,0,0,57,57,57,1,0,1,0,,,,,,,,,0.7499166821324971,574.454906166495,None,"[93. 87. 87. 87. 93. 93. 87. 87. 87. 87. 87. 93. 87. 87. 87. 93. 93. 93.
 93. 93. 93. 93. 93. 87. 93. 93. 87. 87. 87. 93. 93. 87. 93. 93.]",575.2875205735845,None,l,1,0.5039235337752643,575.2875205735845,None,None,None,,,,,,,02_HS,24,M,2,2021_Nov_02_1208,Partial repeat,2021.2.3,120.11171118412796,
2,2,0,1,1,2,2,2,3,1,1,1,0,1,1,0,0,57,57,57,,,,,,,,,,,,,,,,,,,,,,,,,,,,,,,,02_HS,24,M,2,2021_Nov_02_1208,Partial repeat,2021.2.3,120.11171118412796,
2,2,0,1,1,2,2,3,3,1,1,1,1,1,1,0,0,58,58,58,0,0,0,0,,,,,,,575.8203914850055,None,0.9232779820409737,576.6030491238828,None,"[87. 87. 93. 93. 87. 87. 93. 93. 93. 93. 87. 87. 87. 93. 87. 93. 93. 93.
 87. 93. 93. 93. 87. 87. 93. 93. 87. 87. 87. 87. 87. 87. 87. 87.]",577.6105149457551,None,l,1,0.5319340761737976,577.6105149457551,None,None,None,,,,,,,02_HS,24,M,2,2021_Nov_02_1208,Partial repeat,2021.2.3,120.11171118412796,
2,2,0,1,1,2,2,3,3,1,1,1,1,1,1,0,0,58,58,58,1,0,1,0,,,,,,,,,0.9023605314223371,578.2100028992238,None,"[93. 87. 93. 87. 93. 93. 87. 87. 87. 93. 93. 93. 93. 93. 87. 87. 87. 93.
 87. 87. 93. 87. 87. 93. 87. 93. 87. 87. 87. 87. 93. 87. 93. 93.]",579.2008058815757,None,l,1,0.7336167805082141,579.2008058815757,None,None,None,,,,,,,02_HS,24,M,2,2021_Nov_02_1208,Partial repeat,2021.2.3,120.11171118412796,
2,2,0,1,1,2,2,3,3,1,1,1,1,1,1,0,0,58,58,58,,,,,,,,,,,,,,,,,,,,,,,,,,,,,,,,02_HS,24,M,2,2021_Nov_02_1208,Partial repeat,2021.2.3,120.11171118412796,
2,2,0,1,1,3,2,3,2,1,1,0,0,1,1,0,0,59,59,59,0,0,0,0,,,,,,,579.9501554804949,None,0.9643921600665311,580.4414061748334,None,"[87. 87. 93. 87. 93. 87. 93. 93. 87. 87. 87. 87. 87. 93. 87. 87. 87. 87.
 93. 87. 87. 93. 93. 93. 87. 87. 93. 87. 87. 93. 93. 93. 93. 87.]",581.4821684910823,None,l,1,0.48509172852106985,581.4821684910823,None,None,None,,,,,,,02_HS,24,M,2,2021_Nov_02_1208,Partial repeat,2021.2.3,120.11171118412796,
2,2,0,1,1,3,2,3,2,1,1,0,0,1,1,0,0,59,59,59,1,0,1,0,,,,,,,,,0.9029248331205867,582.0316922999953,None,"[93. 87. 87. 93. 87. 87. 87. 93. 87. 87. 87. 93. 93. 93. 87. 93. 87. 93.
 87. 87. 87. 87. 87. 87. 87. 87. 87. 87. 87. 93. 93. 93. 87. 93.]",583.0225148456932,None,l,1,0.6087503564698409,583.0225148456932,None,None,None,,,,,,,02_HS,24,M,2,2021_Nov_02_1208,Partial repeat,2021.2.3,120.11171118412796,
2,2,0,1,1,3,2,3,2,1,1,0,0,1,1,0,0,59,59,59,,,,,,,,,,,,,,,,,,,,,,,,,,,,,,,,02_HS,24,M,2,2021_Nov_02_1208,Partial repeat,2021.2.3,120.11171118412796,
2,2,0,1,1,2,3,3,2,1,1,0,0,1,1,0,0,60,60,60,0,0,0,0,,,,,,,583.6553021799341,None,0.8068902379054588,584.1881743741974,None,"[93. 93. 87. 87. 87. 93. 93. 87. 87. 93. 93. 87. 87. 93. 93. 93. 87. 93.
 87. 93. 93. 93. 93. 93. 87. 87. 87. 87. 93. 87. 87. 87. 93. 87.]",585.0790570852025,None,l,1,0.9998437743339537,585.0790570852025,None,None,None,,,,,,,02_HS,24,M,2,2021_Nov_02_1208,Partial repeat,2021.2.3,120.11171118412796,
2,2,0,1,1,2,3,3,2,1,1,0,0,1,1,0,0,60,60,60,1,0,1,0,,,,,,,,,0.7329594180277733,586.153134817753,None,"[93. 87. 87. 87. 93. 87. 93. 87. 93. 93. 87. 93. 87. 87. 93. 87. 93. 87.
 87. 87. 87. 87. 87. 87. 87. 87. 87. 93. 87. 93. 93. 93. 87. 93.]",586.9690867060328,None,l,1,0.6454008422182369,586.9690867060328,None,None,None,,,,,,,02_HS,24,M,2,2021_Nov_02_1208,Partial repeat,2021.2.3,120.11171118412796,
2,2,0,1,1,2,3,3,2,1,1,0,0,1,1,0,0,60,60,60,,,,,,,,,,,,,,,,,,,,,,,,,,,,,,,,02_HS,24,M,2,2021_Nov_02_1208,Partial repeat,2021.2.3,120.11171118412796,
2,2,0,1,1,3,3,3,2,0,1,1,0,0,1,0,0,61,61,61,0,0,0,0,,,,,,,587.6352029264199,None,0.7098348612947581,588.059823750287,None,"[93. 87. 93. 87. 87. 87. 87. 93. 87. 93. 93. 87. 93. 93. 93. 87. 93. 93.
 87. 93. 87. 87. 87. 87. 87. 87. 93. 93. 93. 93. 93. 87. 87. 93.]",588.8591288345763,None,s,1,0.7087681238366486,588.8591288345763,None,None,None,,,,,,,02_HS,24,M,2,2021_Nov_02_1208,Partial repeat,2021.2.3,120.11171118412796,
2,2,0,1,1,3,3,3,2,0,1,1,0,0,1,0,0,61,61,61,1,0,1,0,,,,,,,,,0.9487213625035493,589.6251483286487,None,"[93. 93. 87. 87. 87. 87. 87. 93. 93. 87. 87. 93. 93. 87. 93. 87. 93. 93.
 93. 93. 87. 87. 93. 87. 87. 87. 93. 93. 93. 93. 87. 93. 93. 93.]",590.6492513331939,None,l,1,0.7588464413632892,590.6492513331939,None,None,None,,,,,,,02_HS,24,M,2,2021_Nov_02_1208,Partial repeat,2021.2.3,120.11171118412796,
2,2,0,1,1,3,3,3,2,0,1,1,0,0,1,0,0,61,61,61,,,,,,,,,,,,,,,,,,,,,,,,,,,,,,,,02_HS,24,M,2,2021_Nov_02_1208,Partial repeat,2021.2.3,120.11171118412796,
2,2,0,1,1,3,3,3,3,1,0,1,1,0,1,0,0,62,62,62,0,0,0,0,,,,,,,591.4235794765746,None,0.8584786137245978,592.2562022221396,None,"[87. 93. 93. 93. 93. 93. 93. 87. 93. 87. 87. 87. 87. 93. 93. 93. 93. 87.
 93. 87. 93. 87. 87. 87. 87. 87. 87. 87. 87. 87. 93. 93. 87. 93.]",593.1970497191217,None,l,1,1.184501556889586,593.1970497191217,None,None,None,,,,,,,02_HS,24,M,2,2021_Nov_02_1208,Partial repeat,2021.2.3,120.11171118412796,
2,2,0,1,1,3,3,3,3,1,0,1,1,0,1,0,0,62,62,62,1,0,1,0,,,,,,,,,0.735303226645282,594.4542952128172,None,"[87. 87. 93. 87. 93. 87. 87. 87. 87. 93. 93. 93. 87. 87. 87. 87. 87. 93.
 87. 87. 87. 87. 93. 87. 87. 93. 87. 93. 93. 93. 93. 93. 93. 93.]",595.2785852557795,None,s,1,0.5429488814576189,595.2785852557795,None,None,None,,,,,,,02_HS,24,M,2,2021_Nov_02_1208,Partial repeat,2021.2.3,120.11171118412796,
2,2,0,1,1,3,3,3,3,1,0,1,1,0,1,0,0,62,62,62,,,,,,,,,,,,,,,,,,,,,,,,,,,,,,,,02_HS,24,M,2,2021_Nov_02_1208,Partial repeat,2021.2.3,120.11171118412796,
2,2,0,1,1,3,2,2,3,0,1,0,0,0,1,0,0,63,63,63,0,0,0,0,,,,,,,595.853086005601,None,0.9945092817593955,596.2860539640471,None,"[87. 93. 93. 93. 87. 87. 87. 93. 87. 87. 87. 87. 87. 93. 93. 87. 93. 93.
 87. 93. 87. 93. 87. 87. 93. 87. 93. 87. 93. 93. 87. 93. 87. 87.]",597.3684464394069,None,s,1,0.6451179754759551,597.3684464394069,None,None,None,,,,,,,02_HS,24,M,2,2021_Nov_02_1208,Partial repeat,2021.2.3,120.11171118412796,
2,2,0,1,1,3,2,2,3,0,1,0,0,0,1,0,0,63,63,63,1,0,1,0,,,,,,,,,0.7444086343760044,598.0845027510554,None,"[93. 93. 93. 87. 87. 87. 87. 93. 87. 87. 93. 87. 87. 87. 87. 87. 87. 93.
 93. 93. 93. 93. 93. 93. 87. 87. 87. 87. 87. 87. 87. 93. 93. 87.]",598.9171078575378,None,l,1,1.128494262647905,598.9171078575378,None,None,None,,,,,,,02_HS,24,M,2,2021_Nov_02_1208,Partial repeat,2021.2.3,120.11171118412796,
2,2,0,1,1,3,2,2,3,0,1,0,0,0,1,0,0,63,63,63,,,,,,,,,,,,,,,,,,,,,,,,,,,,,,,,02_HS,24,M,2,2021_Nov_02_1208,Partial repeat,2021.2.3,120.11171118412796,
3,8,0,1,1,2,2,3,2,1,1,1,0,1,0,0,0,64,64,64,0,0,0,0,,,,,,,602.7221405122903,None,0.8667439979356573,606.5688296244223,None,"[93. 93. 93. 87. 93. 93. 87. 93. 87. 87. 87. 93. 87. 93. 93. 87. 87. 87.
 87. 93. 87. 87. 93. 93. 93. 87. 87. 87. 87. 93. 87. 87. 93. 93.]",607.5180043719267,None,l,1,1.934684361927225,607.5180043719267,None,None,None,,,,,,,02_HS,24,M,2,2021_Nov_02_1208,Partial repeat,2021.2.3,120.11171118412796,
3,8,0,1,1,2,2,3,2,1,1,1,0,1,0,0,0,64,64,64,1,0,1,0,,,,,,,,,0.7983024985062065,609.5246097272804,None,"[93. 93. 87. 87. 87. 93. 87. 93. 93. 93. 93. 87. 87. 93. 93. 87. 93. 87.
 87. 93. 87. 87. 87. 87. 93. 87. 93. 87. 87. 93. 93. 87. 93. 87.]",610.4071815440034,None,l,1,0.7734394147224748,610.4071815440034,None,None,None,,,,,,,02_HS,24,M,2,2021_Nov_02_1208,Partial repeat,2021.2.3,120.11171118412796,
3,8,0,1,1,2,2,3,2,1,1,1,0,1,0,0,0,64,64,64,,,,,,,,,,,,,,,,,,,,,,,,,,,,,,,,02_HS,24,M,2,2021_Nov_02_1208,Partial repeat,2021.2.3,120.11171118412796,
1,4,0,1,1,2,3,3,2,0,1,0,0,0,0,0,0,65,65,65,0,0,0,0,,,,,,,611.198162584876,None,0.800629883403104,611.7893284191919,None,"[93. 87. 93. 93. 87. 87. 87. 87. 87. 87. 87. 87. 87. 93. 93. 93. 93. 93.
 93. 87. 93. 87. 87. 87. 93. 93. 87. 87. 87. 87. 93. 93. 93. 87.]",612.6802188272511,None,s,1,0.6139176455288862,612.6802188272511,None,None,None,,,,,,,02_HS,24,M,2,2021_Nov_02_1208,Partial repeat,2021.2.3,120.11171118412796,
1,4,0,1,1,2,3,3,2,0,1,0,0,0,0,0,0,65,65,65,1,0,1,0,,,,,,,,,0.9419362922184287,613.3546356791817,None,"[93. 93. 87. 93. 93. 93. 87. 93. 93. 87. 87. 87. 93. 87. 93. 87. 87. 93.
 87. 93. 87. 87. 87. 87. 87. 93. 87. 93. 93. 93. 93. 87. 93. 93.]",614.3870781212518,None,l,1,0.66558219764363,614.3870781212518,None,None,None,,,,,,,02_HS,24,M,2,2021_Nov_02_1208,Partial repeat,2021.2.3,120.11171118412796,
1,4,0,1,1,2,3,3,2,0,1,0,0,0,0,0,0,65,65,65,,,,,,,,,,,,,,,,,,,,,,,,,,,,,,,,02_HS,24,M,2,2021_Nov_02_1208,Partial repeat,2021.2.3,120.11171118412796,
8,6,0,1,1,2,2,2,3,0,0,1,0,1,0,0,0,66,66,66,0,0,0,0,,,,,,,615.0698180544669,None,0.7235904816627032,615.486125418367,None,"[93. 93. 93. 93. 87. 87. 93. 93. 87. 87. 87. 87. 87. 87. 87. 93. 93. 87.
 87. 87. 87. 87. 93. 87. 87. 93. 87. 93. 87. 87. 87. 93. 93. 87.]",616.2854426896586,None,s,1,0.7032426010463269,616.2854426896586,None,None,None,,,,,,,02_HS,24,M,2,2021_Nov_02_1208,Partial repeat,2021.2.3,120.11171118412796,
8,6,0,1,1,2,2,2,3,0,0,1,0,1,0,0,0,66,66,66,1,0,1,0,,,,,,,,,0.9045083110525372,617.0597682673547,None,"[87. 93. 93. 93. 93. 93. 93. 87. 87. 87. 87. 87. 93. 93. 93. 93. 87. 93.
 87. 87. 93. 87. 93. 93. 93. 87. 93. 93. 93. 93. 93. 93. 87. 87.]",618.0505712497065,None,s,1,0.7942490421979755,618.0505712497065,None,None,None,,,,,,,02_HS,24,M,2,2021_Nov_02_1208,Partial repeat,2021.2.3,120.11171118412796,
8,6,0,1,1,2,2,2,3,0,0,1,0,1,0,0,0,66,66,66,,,,,,,,,,,,,,,,,,,,,,,,,,,,,,,,02_HS,24,M,2,2021_Nov_02_1208,Partial repeat,2021.2.3,120.11171118412796,
6,7,0,1,1,3,3,3,2,0,0,1,0,1,0,0,0,67,67,67,0,0,0,0,,,,,,,618.8665398149371,None,0.991410394496441,619.3577805672471,None,"[87. 93. 93. 87. 93. 87. 93. 87. 93. 93. 93. 93. 87. 87. 87. 93. 87. 93.
 87. 87. 93. 93. 93. 93. 87. 93. 93. 93. 87. 87. 87. 87. 87. 87.]",620.4318544512705,None,s,1,0.8922059233001391,620.4318544512705,None,None,None,,,,,,,02_HS,24,M,2,2021_Nov_02_1208,Partial repeat,2021.2.3,120.11171118412796,
6,7,0,1,1,3,3,3,2,0,0,1,0,1,0,0,0,67,67,67,1,0,1,0,,,,,,,,,0.793305306625132,621.3643987510247,None,"[93. 93. 93. 93. 93. 93. 87. 93. 93. 93. 93. 93. 87. 93. 87. 87. 87. 93.
 87. 93. 93. 87. 87. 93. 87. 93. 87. 87. 87. 93. 93. 87. 87. 93.]",622.2469622292722,None,s,1,1.2379531084233122,622.2469622292722,None,None,None,,,,,,,02_HS,24,M,2,2021_Nov_02_1208,Partial repeat,2021.2.3,120.11171118412796,
6,7,0,1,1,3,3,3,2,0,0,1,0,1,0,0,0,67,67,67,,,,,,,,,,,,,,,,,,,,,,,,,,,,,,,,02_HS,24,M,2,2021_Nov_02_1208,Partial repeat,2021.2.3,120.11171118412796,
6,1,0,1,1,3,3,3,3,0,1,1,1,0,0,0,0,68,68,68,0,0,0,0,,,,,,,623.4958724546805,None,0.896815155057964,624.2285765324514,None,"[87. 93. 87. 87. 93. 87. 87. 87. 93. 93. 93. 93. 93. 93. 93. 87. 93. 93.
 93. 93. 87. 93. 93. 93. 87. 93. 93. 87. 87. 87. 93. 93. 93. 93.]",625.2110628477305,None,s,1,0.6886682289012924,625.2110628477305,None,None,None,,,,,,,02_HS,24,M,2,2021_Nov_02_1208,Partial repeat,2021.2.3,120.11171118412796,
6,1,0,1,1,3,3,3,3,0,1,1,1,0,0,0,0,68,68,68,1,0,1,0,,,,,,,,,0.7222820749247048,625.9687371314874,None,"[87. 87. 93. 87. 87. 87. 93. 93. 87. 93. 87. 93. 87. 87. 87. 87. 87. 93.
 87. 93. 93. 87. 87. 87. 87. 87. 93. 93. 93. 93. 93. 93. 93. 87.]",626.7763736355369,None,l,1,0.9155068306544081,626.7763736355369,None,None,None,,,,,,,02_HS,24,M,2,2021_Nov_02_1208,Partial repeat,2021.2.3,120.11171118412796,
6,1,0,1,1,3,3,3,3,0,1,1,1,0,0,0,0,68,68,68,,,,,,,,,,,,,,,,,,,,,,,,,,,,,,,,02_HS,24,M,2,2021_Nov_02_1208,Partial repeat,2021.2.3,120.11171118412796,
8,4,0,1,1,2,2,2,3,0,1,1,0,0,0,0,0,69,69,69,0,0,0,0,,,,,,,627.70057529066,None,0.8518336439867508,628.3749947082752,None,"[87. 87. 87. 93. 87. 93. 87. 93. 87. 87. 87. 93. 87. 93. 87. 93. 93. 87.
 87. 93. 87. 93. 87. 93. 87. 87. 93. 93. 93. 93. 93. 87. 93. 93.]",629.3158463744951,None,s,1,0.7758697595889998,629.3158463744951,None,None,None,,,,,,,02_HS,24,M,2,2021_Nov_02_1208,Partial repeat,2021.2.3,120.11171118412796,
8,4,0,1,1,2,2,2,3,0,1,1,0,0,0,0,0,69,69,69,1,0,1,0,,,,,,,,,0.9408497103192616,630.1651107926812,None,"[87. 87. 93. 87. 87. 87. 87. 87. 93. 93. 93. 87. 93. 87. 87. 87. 93. 93.
 87. 93. 87. 93. 93. 93. 87. 87. 93. 87. 93. 93. 87. 93. 87. 87.]",631.1809032236545,None,l,1,0.7188637725636227,631.1809032236545,None,None,None,,,,,,,02_HS,24,M,2,2021_Nov_02_1208,Partial repeat,2021.2.3,120.11171118412796,
8,4,0,1,1,2,2,2,3,0,1,1,0,0,0,0,0,69,69,69,,,,,,,,,,,,,,,,,,,,,,,,,,,,,,,,02_HS,24,M,2,2021_Nov_02_1208,Partial repeat,2021.2.3,120.11171118412796,
2,2,0,1,1,3,3,3,3,1,0,1,1,0,0,0,0,70,70,70,0,0,0,0,,,,,,,631.9302525018634,None,0.9348506947239054,632.413169852178,None,"[87. 93. 93. 93. 93. 93. 87. 93. 87. 93. 93. 87. 87. 93. 87. 93. 93. 93.
 93. 87. 87. 93. 93. 93. 93. 87. 93. 87. 87. 87. 87. 87. 87. 93.]",633.4372850437258,None,l,1,0.8464982497220035,633.4372850437258,None,None,None,,,,,,,02_HS,24,M,2,2021_Nov_02_1208,Partial repeat,2021.2.3,120.11171118412796,
2,2,0,1,1,3,3,3,3,1,0,1,1,0,0,0,0,70,70,70,1,0,1,0,,,,,,,,,0.7261803203058581,634.3531620140111,None,"[87. 87. 93. 87. 93. 93. 87. 87. 87. 93. 93. 93. 93. 93. 93. 93. 87. 93.
 87. 87. 93. 93. 93. 93. 87. 87. 87. 93. 87. 87. 87. 93. 93. 87.]",635.1691251271618,None,s,1,0.6028162483852384,635.1691251271618,None,None,None,,,,,,,02_HS,24,M,2,2021_Nov_02_1208,Partial repeat,2021.2.3,120.11171118412796,
2,2,0,1,1,3,3,3,3,1,0,1,1,0,0,0,0,70,70,70,,,,,,,,,,,,,,,,,,,,,,,,,,,,,,,,02_HS,24,M,2,2021_Nov_02_1208,Partial repeat,2021.2.3,120.11171118412796,
2,3,0,1,1,2,2,2,2,0,0,1,1,1,0,0,0,71,71,71,0,0,0,0,,,,,,,635.7935826451953,None,0.874642814043574,636.2515169611004,None,"[87. 87. 87. 87. 93. 93. 87. 87. 93. 87. 93. 87. 93. 93. 87. 87. 87. 87.
 93. 87. 87. 87. 93. 93. 93. 93. 93. 87. 87. 93. 87. 87. 87. 87.]",637.2090256940498,None,s,1,0.6427815988128032,637.2090256940498,None,None,None,,,,,,,02_HS,24,M,2,2021_Nov_02_1208,Partial repeat,2021.2.3,120.11171118412796,
2,3,0,1,1,2,2,2,2,0,0,1,1,1,0,0,0,71,71,71,1,0,1,0,,,,,,,,,0.952659155035205,637.9167473788323,None,"[87. 93. 93. 93. 93. 93. 93. 87. 93. 87. 93. 93. 87. 87. 93. 87. 93. 87.
 93. 93. 93. 87. 93. 93. 87. 93. 87. 87. 93. 87. 93. 93. 87. 93.]",638.9575286170061,None,s,1,1.1501829578561455,638.9575286170061,None,None,None,,,,,,,02_HS,24,M,2,2021_Nov_02_1208,Partial repeat,2021.2.3,120.11171118412796,
2,3,0,1,1,2,2,2,2,0,0,1,1,1,0,0,0,71,71,71,,,,,,,,,,,,,,,,,,,,,,,,,,,,,,,,02_HS,24,M,2,2021_Nov_02_1208,Partial repeat,2021.2.3,120.11171118412796,
6,4,0,1,1,2,3,2,3,1,0,0,0,0,0,0,0,72,72,72,0,0,0,0,,,,,,,640.1315125096373,None,0.9518477857342871,640.5811118779657,None,"[93. 87. 87. 93. 87. 87. 87. 87. 93. 87. 87. 93. 87. 93. 87. 87. 87. 87.
 93. 93. 87. 93. 93. 87. 87. 87. 87. 93. 93. 87. 87. 93. 87. 87.]",641.6219049824315,None,l,1,0.708853112143629,641.6219049824315,None,None,None,,,,,,,02_HS,24,M,2,2021_Nov_02_1208,Partial repeat,2021.2.3,120.11171118412796,
6,4,0,1,1,2,3,2,3,1,0,0,0,0,0,0,0,72,72,72,1,0,1,0,,,,,,,,,0.9380665389194047,642.4045542828333,None,"[93. 87. 87. 93. 87. 87. 87. 93. 93. 93. 87. 93. 87. 87. 93. 93. 93. 93.
 93. 87. 87. 93. 93. 93. 87. 93. 93. 87. 87. 87. 87. 87. 93. 87.]",643.4286508731666,None,s,1,1.4142159705216955,643.4286508731666,None,None,None,,,,,,,02_HS,24,M,2,2021_Nov_02_1208,Partial repeat,2021.2.3,120.11171118412796,
6,4,0,1,1,2,3,2,3,1,0,0,0,0,0,0,0,72,72,72,,,,,,,,,,,,,,,,,,,,,,,,,,,,,,,,02_HS,24,M,2,2021_Nov_02_1208,Partial repeat,2021.2.3,120.11171118412796,
7,8,0,1,1,2,3,2,2,0,0,0,1,1,0,0,0,73,73,73,0,0,0,0,,,,,,,644.8607471402236,None,0.7218945725343517,645.6933599437602,None,"[87. 87. 93. 87. 87. 87. 93. 87. 93. 93. 87. 87. 93. 93. 87. 93. 87. 87.
 87. 93. 87. 93. 87. 87. 93. 87. 87. 87. 87. 93. 87. 93. 87. 93.]",646.5009996549154,None,s,1,0.8698536778769039,646.5009996549154,None,None,None,,,,,,,02_HS,24,M,2,2021_Nov_02_1208,Partial repeat,2021.2.3,120.11171118412796,
7,8,0,1,1,2,3,2,2,0,0,0,1,1,0,0,0,73,73,73,1,0,1,0,,,,,,,,,0.9158645247149984,647.4418660738224,None,"[87. 87. 93. 87. 87. 87. 87. 87. 93. 87. 87. 87. 93. 87. 87. 93. 93. 93.
 87. 87. 87. 93. 87. 93. 93. 93. 93. 93. 93. 87. 93. 93. 93. 87.]",648.4409854025366,None,s,1,0.8818841736057266,648.4409854025366,None,None,None,,,,,,,02_HS,24,M,2,2021_Nov_02_1208,Partial repeat,2021.2.3,120.11171118412796,
7,8,0,1,1,2,3,2,2,0,0,0,1,1,0,0,0,73,73,73,,,,,,,,,,,,,,,,,,,,,,,,,,,,,,,,02_HS,24,M,2,2021_Nov_02_1208,Partial repeat,2021.2.3,120.11171118412796,
5,4,0,1,1,2,2,3,3,0,1,1,1,0,0,0,0,74,74,74,0,0,0,0,,,,,,,649.3402094753303,None,0.9629507545324335,649.8481063322381,None,"[93. 93. 87. 87. 93. 93. 93. 93. 87. 93. 87. 93. 93. 87. 93. 87. 87. 87.
 87. 87. 93. 87. 93. 87. 87. 87. 87. 93. 87. 93. 87. 93. 93. 93.]",650.8972080860119,None,s,1,0.6346323426688514,650.8972080860119,None,None,None,,,,,,,02_HS,24,M,2,2021_Nov_02_1208,Partial repeat,2021.2.3,120.11171118412796,
5,4,0,1,1,2,2,3,3,0,1,1,1,0,0,0,0,74,74,74,1,0,1,0,,,,,,,,,0.8388802008768343,651.6049220737402,None,"[87. 93. 87. 87. 87. 87. 93. 93. 93. 93. 87. 93. 87. 87. 87. 87. 87. 87.
 87. 93. 87. 93. 87. 93. 93. 93. 93. 93. 93. 93. 87. 93. 87. 87.]",652.5291221253106,None,l,1,0.8586297692871767,652.5291221253106,None,None,None,,,,,,,02_HS,24,M,2,2021_Nov_02_1208,Partial repeat,2021.2.3,120.11171118412796,
5,4,0,1,1,2,2,3,3,0,1,1,1,0,0,0,0,74,74,74,,,,,,,,,,,,,,,,,,,,,,,,,,,,,,,,02_HS,24,M,2,2021_Nov_02_1208,Partial repeat,2021.2.3,120.11171118412796,
8,7,0,1,1,2,2,3,2,0,1,1,0,0,0,0,0,75,75,75,0,0,0,0,,,,,,,653.4033580323251,None,0.8271115779670977,654.0611312873707,None,"[87. 93. 93. 93. 87. 87. 87. 87. 87. 93. 93. 93. 87. 87. 93. 93. 93. 87.
 93. 93. 87. 93. 93. 93. 93. 93. 93. 87. 93. 93. 87. 87. 87. 87.]",654.9770194825271,None,s,1,0.6020741240751022,654.9770194825271,None,None,None,,,,,,,02_HS,24,M,2,2021_Nov_02_1208,Partial repeat,2021.2.3,120.11171118412796,
8,7,0,1,1,2,2,3,2,0,1,1,0,0,0,0,0,75,75,75,1,0,1,0,,,,,,,,,0.7139358020497182,655.6430985004856,None,"[87. 87. 87. 87. 93. 87. 93. 87. 93. 87. 87. 93. 93. 93. 87. 93. 87. 87.
 87. 87. 87. 93. 87. 87. 93. 93. 87. 93. 87. 87. 87. 93. 93. 93.]",656.4424090368548,None,l,1,0.6875021251886437,656.4424090368548,None,None,None,,,,,,,02_HS,24,M,2,2021_Nov_02_1208,Partial repeat,2021.2.3,120.11171118412796,
8,7,0,1,1,2,2,3,2,0,1,1,0,0,0,0,0,75,75,75,,,,,,,,,,,,,,,,,,,,,,,,,,,,,,,,02_HS,24,M,2,2021_Nov_02_1208,Partial repeat,2021.2.3,120.11171118412796,
1,6,0,1,1,3,3,2,3,1,0,1,0,0,0,0,0,76,76,76,0,0,0,0,,,,,,,657.1418031504043,None,0.7442040846218065,658.1326205647329,None,"[93. 87. 93. 93. 93. 87. 93. 93. 87. 87. 87. 87. 93. 87. 87. 93. 87. 87.
 87. 87. 87. 93. 87. 87. 93. 93. 87. 93. 93. 87. 87. 93. 87. 93.]",658.9652388203494,None,l,1,1.012704589785585,658.9652388203494,None,None,None,,,,,,,02_HS,24,M,2,2021_Nov_02_1208,Partial repeat,2021.2.3,120.11171118412796,
1,6,0,1,1,3,3,2,3,1,0,1,0,0,0,0,0,76,76,76,1,0,1,0,,,,,,,,,0.8803875935636543,660.0393085351352,None,"[93. 87. 93. 93. 87. 87. 87. 93. 87. 87. 87. 87. 93. 93. 87. 87. 87. 93.
 93. 87. 87. 87. 93. 87. 93. 87. 93. 93. 93. 93. 93. 93. 93. 93.]",660.9968070053455,None,s,1,1.0611639602435616,660.9968070053455,None,None,None,,,,,,,02_HS,24,M,2,2021_Nov_02_1208,Partial repeat,2021.2.3,120.11171118412796,
1,6,0,1,1,3,3,2,3,1,0,1,0,0,0,0,0,76,76,76,,,,,,,,,,,,,,,,,,,,,,,,,,,,,,,,02_HS,24,M,2,2021_Nov_02_1208,Partial repeat,2021.2.3,120.11171118412796,
3,3,0,1,1,3,2,3,3,0,1,0,1,0,0,0,0,77,77,77,0,0,0,0,,,,,,,662.0708985284514,None,0.9516808799334373,662.5704463265167,None,"[87. 93. 87. 87. 87. 93. 93. 93. 93. 93. 87. 87. 87. 93. 93. 87. 93. 93.
 93. 93. 93. 87. 93. 93. 93. 87. 93. 87. 87. 93. 87. 93. 93. 87.]",663.6112150569775,None,s,1,0.9907881900570601,663.6112150569775,None,None,None,,,,,,,02_HS,24,M,2,2021_Nov_02_1208,Partial repeat,2021.2.3,120.11171118412796,
3,3,0,1,1,3,2,3,3,0,1,0,1,0,0,0,0,77,77,77,1,0,1,0,,,,,,,,,0.9851636331304752,664.6686318742711,None,"[87. 93. 93. 87. 93. 87. 93. 87. 93. 93. 93. 93. 93. 87. 87. 93. 87. 87.
 87. 87. 93. 87. 93. 87. 87. 93. 93. 93. 93. 87. 87. 93. 87. 93.]",665.7427035133203,None,l,1,1.4512872285666845,665.7427035133203,None,None,None,,,,,,,02_HS,24,M,2,2021_Nov_02_1208,Partial repeat,2021.2.3,120.11171118412796,
3,3,0,1,1,3,2,3,3,0,1,0,1,0,0,0,0,77,77,77,,,,,,,,,,,,,,,,,,,,,,,,,,,,,,,,02_HS,24,M,2,2021_Nov_02_1208,Partial repeat,2021.2.3,120.11171118412796,
6,2,0,1,1,3,3,3,2,1,0,1,0,0,0,0,0,78,78,78,0,0,0,0,,,,,,,667.2081046132294,None,0.8884247348013801,667.7326524433656,None,"[87. 87. 93. 87. 87. 87. 87. 87. 93. 87. 87. 87. 93. 93. 93. 93. 93. 93.
 93. 87. 87. 87. 87. 93. 93. 87. 87. 87. 93. 87. 87. 93. 87. 87.]",668.7068118288328,None,l,1,1.4633331184037388,668.7068118288328,None,None,None,,,,,,,02_HS,24,M,2,2021_Nov_02_1208,Partial repeat,2021.2.3,120.11171118412796,
6,2,0,1,1,3,3,3,2,1,0,1,0,0,0,0,0,78,78,78,1,0,1,0,,,,,,,,,0.7610550992571294,670.230495023213,None,"[93. 87. 87. 93. 93. 93. 87. 87. 93. 87. 87. 87. 93. 93. 93. 93. 87. 93.
 93. 87. 87. 87. 93. 93. 93. 93. 93. 87. 87. 93. 87. 93. 93. 87.]",671.0797693834274,None,s,1,0.6733360176275482,671.0797693834274,None,None,None,,,,,,,02_HS,24,M,2,2021_Nov_02_1208,Partial repeat,2021.2.3,120.11171118412796,
6,2,0,1,1,3,3,3,2,1,0,1,0,0,0,0,0,78,78,78,,,,,,,,,,,,,,,,,,,,,,,,,,,,,,,,02_HS,24,M,2,2021_Nov_02_1208,Partial repeat,2021.2.3,120.11171118412796,
8,8,0,1,1,2,2,2,3,1,0,1,0,0,0,0,0,79,79,79,0,0,0,0,,,,,,,671.7791580448968,None,0.8620256818022253,672.2121125334982,None,"[93. 93. 93. 87. 87. 93. 87. 93. 87. 93. 87. 87. 93. 93. 93. 93. 87. 93.
 93. 87. 87. 87. 87. 87. 87. 93. 87. 93. 87. 87. 93. 87. 93. 87.]",673.1529718967722,None,l,1,0.7760942570033649,673.1529718967722,None,None,None,,,,,,,02_HS,24,M,2,2021_Nov_02_1208,Partial repeat,2021.2.3,120.11171118412796,
8,8,0,1,1,2,2,2,3,1,0,1,0,0,0,0,0,79,79,79,1,0,1,0,,,,,,,,,0.8758443490522072,674.0022379185114,None,"[93. 87. 87. 87. 93. 87. 93. 93. 87. 87. 87. 93. 87. 93. 93. 93. 87. 87.
 87. 87. 93. 93. 87. 87. 87. 87. 87. 93. 93. 87. 87. 93. 87. 87.]",674.9680671670608,None,s,1,1.1690263086915138,674.9680671670608,None,None,None,,,,,,,02_HS,24,M,2,2021_Nov_02_1208,Partial repeat,2021.2.3,120.11171118412796,
8,8,0,1,1,2,2,2,3,1,0,1,0,0,0,0,0,79,79,79,,,,,,,,,,,,,,,,,,,,,,,,,,,,,,,,02_HS,24,M,2,2021_Nov_02_1208,Partial repeat,2021.2.3,120.11171118412796,
5,7,0,1,1,2,3,2,3,0,0,0,0,1,0,0,0,80,80,80,0,0,0,0,,,,,,,676.1587039571839,None,0.7239081752487243,676.6332908498703,None,"[87. 93. 93. 93. 93. 93. 87. 87. 87. 93. 87. 93. 93. 93. 87. 93. 87. 87.
 87. 87. 87. 87. 93. 93. 93. 87. 93. 87. 87. 87. 87. 87. 93. 93.]",677.4409286367618,None,s,1,1.0812420468583923,677.4409286367618,None,None,None,,,,,,,02_HS,24,M,2,2021_Nov_02_1208,Partial repeat,2021.2.3,120.11171118412796,
5,7,0,1,1,2,3,2,3,0,0,0,0,1,0,0,0,80,80,80,1,0,1,0,,,,,,,,,0.7783199166666938,678.581614110753,None,"[87. 93. 87. 87. 87. 93. 93. 87. 87. 93. 87. 87. 87. 87. 87. 93. 93. 87.
 87. 93. 93. 93. 93. 93. 93. 93. 87. 93. 93. 87. 93. 87. 87. 87.]",679.4475320678521,None,s,1,0.9133750673491932,679.4475320678521,None,None,None,,,,,,,02_HS,24,M,2,2021_Nov_02_1208,Partial repeat,2021.2.3,120.11171118412796,
5,7,0,1,1,2,3,2,3,0,0,0,0,1,0,0,0,80,80,80,,,,,,,,,,,,,,,,,,,,,,,,,,,,,,,,02_HS,24,M,2,2021_Nov_02_1208,Partial repeat,2021.2.3,120.11171118412796,
3,4,0,1,1,2,3,3,3,1,1,0,1,1,0,0,0,81,81,81,0,0,0,0,,,,,,,680.3800587285236,None,0.9249850609274155,680.8879552647209,None,"[93. 93. 93. 87. 87. 93. 93. 93. 87. 87. 93. 87. 93. 87. 87. 93. 87. 87.
 93. 87. 87. 87. 93. 87. 87. 93. 87. 87. 87. 93. 93. 87. 87. 87.]",681.8954108238543,None,l,1,0.8016953007239636,681.8954108238543,None,None,None,,,,,,,02_HS,24,M,2,2021_Nov_02_1208,Partial repeat,2021.2.3,120.11171118412796,
3,4,0,1,1,2,3,3,3,1,1,0,1,1,0,0,0,81,81,81,1,0,1,0,,,,,,,,,0.9884024357058935,682.7696598800028,None,"[87. 87. 93. 87. 93. 93. 93. 93. 93. 87. 93. 93. 93. 93. 93. 87. 93. 87.
 87. 93. 93. 93. 87. 87. 93. 93. 87. 93. 93. 93. 87. 87. 93. 93.]",683.843724463419,None,l,1,0.9493950360734971,683.843724463419,None,None,None,,,,,,,02_HS,24,M,2,2021_Nov_02_1208,Partial repeat,2021.2.3,120.11171118412796,
3,4,0,1,1,2,3,3,3,1,1,0,1,1,0,0,0,81,81,81,,,,,,,,,,,,,,,,,,,,,,,,,,,,,,,,02_HS,24,M,2,2021_Nov_02_1208,Partial repeat,2021.2.3,120.11171118412796,
7,3,0,1,1,3,3,2,3,0,1,1,0,0,0,0,0,82,82,82,0,0,0,0,,,,,,,684.8095665403921,None,0.9378869327601455,685.2092139511674,None,"[93. 87. 87. 93. 87. 87. 93. 87. 87. 87. 87. 87. 87. 93. 93. 87. 87. 93.
 87. 87. 93. 93. 93. 87. 87. 87. 93. 93. 93. 87. 87. 87. 93. 93.]",686.2333371604798,None,s,1,0.7677439153181922,686.2333371604798,None,None,None,,,,,,,02_HS,24,M,2,2021_Nov_02_1208,Partial repeat,2021.2.3,120.11171118412796,
7,3,0,1,1,3,3,2,3,0,1,1,0,0,0,0,0,82,82,82,1,0,1,0,,,,,,,,,0.9384967919678491,687.0659506054374,None,"[93. 93. 93. 93. 87. 93. 87. 93. 93. 93. 93. 93. 93. 87. 93. 87. 93. 93.
 93. 87. 93. 87. 93. 87. 93. 87. 93. 93. 87. 93. 93. 93. 93. 93.]",688.0900629105897,None,l,1,0.9423650598959057,688.0900629105897,None,None,None,,,,,,,02_HS,24,M,2,2021_Nov_02_1208,Partial repeat,2021.2.3,120.11171118412796,
7,3,0,1,1,3,3,2,3,0,1,1,0,0,0,0,0,82,82,82,,,,,,,,,,,,,,,,,,,,,,,,,,,,,,,,02_HS,24,M,2,2021_Nov_02_1208,Partial repeat,2021.2.3,120.11171118412796,
5,3,0,1,1,3,2,3,3,1,1,0,1,1,0,0,0,83,83,83,0,0,0,0,,,,,,,689.0558924798497,None,0.8509638404375108,689.4638841388087,None,"[87. 87. 93. 93. 87. 87. 93. 93. 93. 87. 87. 87. 93. 87. 87. 93. 87. 93.
 93. 87. 87. 93. 93. 87. 87. 87. 93. 87. 93. 93. 93. 87. 87. 87.]",690.404732918633,None,l,1,0.6913945896445739,690.404732918633,None,None,None,,,,,,,02_HS,24,M,2,2021_Nov_02_1208,Partial repeat,2021.2.3,120.11171118412796,
5,3,0,1,1,3,2,3,3,1,1,0,1,1,0,0,0,83,83,83,1,0,1,0,,,,,,,,,0.8255670234130754,691.1624072023901,None,"[87. 87. 87. 93. 93. 93. 87. 93. 87. 87. 93. 87. 87. 87. 93. 93. 87. 87.
 93. 87. 93. 87. 87. 93. 87. 87. 87. 93. 87. 93. 87. 87. 93. 87.]",692.0782819277015,None,l,1,0.9065615708212817,692.0782819277015,None,None,None,,,,,,,02_HS,24,M,2,2021_Nov_02_1208,Partial repeat,2021.2.3,120.11171118412796,
5,3,0,1,1,3,2,3,3,1,1,0,1,1,0,0,0,83,83,83,,,,,,,,,,,,,,,,,,,,,,,,,,,,,,,,02_HS,24,M,2,2021_Nov_02_1208,Partial repeat,2021.2.3,120.11171118412796,
1,8,0,1,1,3,3,2,3,1,1,1,0,1,0,0,0,84,84,84,0,0,0,0,,,,,,,693.0191368010273,None,0.8461460301815428,693.4604220679676,None,"[93. 93. 93. 87. 93. 93. 87. 93. 93. 93. 93. 93. 87. 93. 87. 87. 93. 93.
 87. 87. 87. 93. 93. 87. 93. 87. 87. 87. 87. 87. 93. 93. 93. 93.]",694.3929654055898,None,l,1,0.7032387525192689,694.3929654055898,None,None,None,,,,,,,02_HS,24,M,2,2021_Nov_02_1208,Partial repeat,2021.2.3,120.11171118412796,
1,8,0,1,1,3,3,2,3,1,1,1,0,1,0,0,0,84,84,84,1,0,1,0,,,,,,,,,0.9605217982614945,695.1672816826785,None,"[87. 93. 87. 87. 87. 87. 93. 87. 87. 87. 93. 87. 87. 93. 87. 93. 93. 93.
 87. 93. 93. 87. 93. 87. 87. 87. 87. 93. 87. 93. 93. 93. 93. 87.]",696.2080484888759,None,l,1,0.7601183795712814,696.2080484888759,None,None,None,,,,,,,02_HS,24,M,2,2021_Nov_02_1208,Partial repeat,2021.2.3,120.11171118412796,
1,8,0,1,1,3,3,2,3,1,1,1,0,1,0,0,0,84,84,84,,,,,,,,,,,,,,,,,,,,,,,,,,,,,,,,02_HS,24,M,2,2021_Nov_02_1208,Partial repeat,2021.2.3,120.11171118412796,
7,4,0,1,1,2,2,3,3,1,1,1,1,1,0,0,0,85,85,85,0,0,0,0,,,,,,,696.9907045242,None,0.8243734127553061,697.6234896134667,None,"[87. 87. 93. 93. 93. 87. 87. 93. 87. 87. 87. 93. 93. 93. 87. 93. 93. 93.
 93. 87. 93. 87. 87. 87. 87. 93. 93. 87. 93. 93. 93. 93. 93. 93.]",698.5310409367828,None,l,1,0.7256086370249477,698.5310409367828,None,None,None,,,,,,,02_HS,24,M,2,2021_Nov_02_1208,Partial repeat,2021.2.3,120.11171118412796,
7,4,0,1,1,2,2,3,3,1,1,1,1,1,0,0,0,85,85,85,1,0,1,0,,,,,,,,,0.7152440072389179,699.3137001792131,None,"[93. 87. 93. 87. 93. 87. 87. 93. 93. 87. 93. 87. 87. 87. 87. 87. 87. 87.
 87. 87. 87. 93. 87. 87. 93. 87. 93. 93. 87. 93. 93. 93. 87. 87.]",700.1130026978174,None,l,1,1.1432440634868044,700.1130026978174,None,None,None,,,,,,,02_HS,24,M,2,2021_Nov_02_1208,Partial repeat,2021.2.3,120.11171118412796,
7,4,0,1,1,2,2,3,3,1,1,1,1,1,0,0,0,85,85,85,,,,,,,,,,,,,,,,,,,,,,,,,,,,,,,,02_HS,24,M,2,2021_Nov_02_1208,Partial repeat,2021.2.3,120.11171118412796,
7,2,0,1,1,3,2,2,3,1,0,0,0,0,0,0,0,86,86,86,0,0,0,0,,,,,,,701.2869901182653,None,0.8589610843835103,701.7199481346831,None,"[87. 87. 87. 93. 87. 93. 87. 87. 87. 93. 87. 93. 87. 87. 87. 87. 93. 87.
 93. 87. 87. 87. 87. 93. 87. 87. 93. 93. 93. 93. 93. 93. 93. 87.]",702.6691430869548,None,l,1,1.1460932563865072,702.6691430869548,None,None,None,,,,,,,02_HS,24,M,2,2021_Nov_02_1208,Partial repeat,2021.2.3,120.11171118412796,
7,2,0,1,1,3,2,2,3,1,0,0,0,0,0,0,0,86,86,86,1,0,1,0,,,,,,,,,0.925020284873276,703.8764209082781,None,"[93. 93. 87. 93. 93. 87. 87. 93. 87. 93. 87. 87. 93. 93. 87. 87. 87. 93.
 93. 93. 87. 87. 93. 87. 93. 93. 87. 93. 87. 87. 93. 87. 87. 93.]",704.8755588382066,None,s,1,0.7636631937451739,704.8755588382066,None,None,None,,,,,,,02_HS,24,M,2,2021_Nov_02_1208,Partial repeat,2021.2.3,120.11171118412796,
7,2,0,1,1,3,2,2,3,1,0,0,0,0,0,0,0,86,86,86,,,,,,,,,,,,,,,,,,,,,,,,,,,,,,,,02_HS,24,M,2,2021_Nov_02_1208,Partial repeat,2021.2.3,120.11171118412796,
4,4,0,1,1,2,3,3,3,0,0,0,1,1,0,0,0,87,87,87,0,0,0,0,,,,,,,705.6582145528203,None,0.8554970627414906,706.1328049733233,None,"[93. 93. 93. 87. 93. 87. 87. 87. 87. 93. 93. 93. 93. 87. 87. 87. 87. 93.
 93. 87. 93. 87. 87. 93. 93. 93. 93. 93. 93. 87. 87. 87. 87. 87.]",707.0736511874629,None,s,1,0.6935026203660755,707.0736511874629,None,None,None,,,,,,,02_HS,24,M,2,2021_Nov_02_1208,Partial repeat,2021.2.3,120.11171118412796,
4,4,0,1,1,2,3,3,3,0,0,0,1,1,0,0,0,87,87,87,1,0,1,0,,,,,,,,,0.7010851072230051,707.831337337512,None,"[87. 87. 87. 87. 93. 87. 93. 87. 87. 93. 87. 93. 93. 87. 93. 93. 93. 93.
 87. 93. 87. 87. 87. 87. 93. 93. 87. 93. 87. 87. 93. 87. 87. 87.]",708.6139898450199,None,s,1,0.5612813403200789,708.6139898450199,None,None,None,,,,,,,02_HS,24,M,2,2021_Nov_02_1208,Partial repeat,2021.2.3,120.11171118412796,
4,4,0,1,1,2,3,3,3,0,0,0,1,1,0,0,0,87,87,87,,,,,,,,,,,,,,,,,,,,,,,,,,,,,,,,02_HS,24,M,2,2021_Nov_02_1208,Partial repeat,2021.2.3,120.11171118412796,
3,6,0,1,1,3,2,2,2,0,1,0,1,0,0,0,0,88,88,88,0,0,0,0,,,,,,,709.2051588864415,None,0.7840201070912209,709.6714137179465,None,"[87. 87. 93. 87. 93. 87. 93. 87. 87. 93. 87. 93. 93. 87. 93. 93. 87. 93.
 87. 87. 87. 93. 87. 87. 93. 93. 87. 93. 87. 87. 93. 93. 93. 93.]",710.5456618119636,None,s,1,0.6615964064056925,710.5456618119636,None,None,None,,,,,,,02_HS,24,M,2,2021_Nov_02_1208,Partial repeat,2021.2.3,120.11171118412796,
3,6,0,1,1,3,2,2,2,0,1,0,1,0,0,0,0,88,88,88,1,0,1,0,,,,,,,,,0.982498138633177,711.278359154812,None,"[87. 87. 93. 87. 87. 93. 87. 87. 93. 87. 87. 93. 93. 93. 87. 87. 87. 87.
 87. 93. 93. 87. 93. 87. 87. 87. 93. 93. 87. 93. 87. 93. 87. 87.]",712.3441083539979,None,l,1,0.6392034307374388,712.3441083539979,None,None,None,,,,,,,02_HS,24,M,2,2021_Nov_02_1208,Partial repeat,2021.2.3,120.11171118412796,
3,6,0,1,1,3,2,2,2,0,1,0,1,0,0,0,0,88,88,88,,,,,,,,,,,,,,,,,,,,,,,,,,,,,,,,02_HS,24,M,2,2021_Nov_02_1208,Partial repeat,2021.2.3,120.11171118412796,
4,2,0,1,1,3,2,2,2,1,0,0,1,0,0,0,0,89,89,89,0,0,0,0,,,,,,,713.0018684599092,None,0.9760246886705597,713.4764627289392,None,"[93. 87. 93. 87. 87. 87. 93. 87. 93. 93. 87. 87. 87. 93. 87. 87. 87. 93.
 87. 87. 93. 87. 93. 87. 93. 93. 93. 93. 87. 93. 93. 87. 93. 93.]",714.5422151352309,None,l,1,0.7930996154360628,714.5422151352309,None,None,None,,,,,,,02_HS,24,M,2,2021_Nov_02_1208,Partial repeat,2021.2.3,120.11171118412796,
4,2,0,1,1,3,2,2,2,1,0,0,1,0,0,0,0,89,89,89,1,0,1,0,,,,,,,,,0.8844892674258484,715.3997975033321,None,"[87. 87. 93. 87. 87. 93. 93. 93. 87. 87. 87. 87. 93. 87. 93. 87. 93. 87.
 93. 87. 93. 87. 87. 87. 93. 87. 93. 87. 87. 93. 87. 87. 93. 87.]",716.3739402118485,None,s,1,0.6895463345025519,716.3739402118485,None,None,None,,,,,,,02_HS,24,M,2,2021_Nov_02_1208,Partial repeat,2021.2.3,120.11171118412796,
4,2,0,1,1,3,2,2,2,1,0,0,1,0,0,0,0,89,89,89,,,,,,,,,,,,,,,,,,,,,,,,,,,,,,,,02_HS,24,M,2,2021_Nov_02_1208,Partial repeat,2021.2.3,120.11171118412796,
4,5,0,1,1,3,2,3,3,1,0,0,1,0,0,0,0,90,90,90,0,0,0,0,,,,,,,717.0816724800807,None,0.8466618531363086,717.4979917102726,None,"[93. 93. 87. 93. 93. 93. 93. 87. 87. 87. 93. 93. 93. 93. 93. 93. 93. 87.
 87. 87. 93. 87. 93. 93. 87. 87. 87. 93. 93. 93. 93. 87. 87. 93.]",718.4305151638382,None,l,1,0.7758091452870985,718.4305151638382,None,None,None,,,,,,,02_HS,24,M,2,2021_Nov_02_1208,Partial repeat,2021.2.3,120.11171118412796,
4,5,0,1,1,3,2,3,3,1,0,0,1,0,0,0,0,90,90,90,1,0,1,0,,,,,,,,,0.8759342164139043,719.271452972923,None,"[93. 93. 87. 93. 93. 93. 93. 93. 87. 93. 87. 93. 93. 87. 87. 93. 87. 93.
 93. 93. 87. 87. 87. 93. 93. 93. 87. 87. 93. 93. 93. 87. 87. 87.]",720.2372841457359,None,s,1,0.8410493767629532,720.2372841457359,None,None,None,,,,,,,02_HS,24,M,2,2021_Nov_02_1208,Partial repeat,2021.2.3,120.11171118412796,
4,5,0,1,1,3,2,3,3,1,0,0,1,0,0,0,0,90,90,90,,,,,,,,,,,,,,,,,,,,,,,,,,,,,,,,02_HS,24,M,2,2021_Nov_02_1208,Partial repeat,2021.2.3,120.11171118412796,
8,3,0,1,1,2,3,2,3,0,1,0,0,0,0,0,0,91,91,91,0,0,0,0,,,,,,,721.1031786909621,None,0.9534622196270464,721.5278424900482,None,"[93. 93. 87. 87. 87. 87. 93. 87. 93. 93. 93. 87. 87. 93. 93. 87. 93. 93.
 87. 93. 93. 87. 87. 87. 87. 87. 87. 93. 87. 93. 87. 93. 87. 93.]",722.5685945435582,None,s,1,0.6539894718731603,722.5685945435582,None,None,None,,,,,,,02_HS,24,M,2,2021_Nov_02_1208,Partial repeat,2021.2.3,120.11171118412796,
8,3,0,1,1,2,3,2,3,0,1,0,0,0,0,0,0,91,91,91,1,0,1,0,,,,,,,,,0.8638331079847463,723.2929838785199,None,"[87. 93. 93. 87. 93. 93. 87. 93. 93. 87. 93. 93. 93. 93. 93. 87. 93. 87.
 87. 87. 87. 93. 87. 93. 93. 93. 93. 87. 93. 87. 87. 87. 87. 93.]",724.2421563810503,None,l,1,0.8362316622495882,724.2421563810503,None,None,None,,,,,,,02_HS,24,M,2,2021_Nov_02_1208,Partial repeat,2021.2.3,120.11171118412796,
8,3,0,1,1,2,3,2,3,0,1,0,0,0,0,0,0,91,91,91,,,,,,,,,,,,,,,,,,,,,,,,,,,,,,,,02_HS,24,M,2,2021_Nov_02_1208,Partial repeat,2021.2.3,120.11171118412796,
5,2,0,1,1,3,2,3,3,0,0,0,1,1,0,0,0,92,92,92,0,0,0,0,,,,,,,725.1080939014957,None,0.8157965502082035,725.5743368667088,None,"[93. 87. 93. 93. 87. 93. 93. 93. 87. 87. 93. 87. 87. 93. 87. 93. 87. 87.
 87. 93. 93. 87. 93. 93. 93. 87. 93. 87. 93. 87. 93. 93. 87. 87.]",726.4735628637659,None,s,1,0.7644053180550827,726.4735628637659,None,None,None,,,,,,,02_HS,24,M,2,2021_Nov_02_1208,Partial repeat,2021.2.3,120.11171118412796,
5,2,0,1,1,3,2,3,3,0,0,0,1,1,0,0,0,92,92,92,1,0,1,0,,,,,,,,,0.7068636916170565,727.306177591566,None,"[93. 87. 87. 93. 93. 87. 93. 93. 93. 87. 93. 87. 93. 87. 93. 87. 87. 93.
 93. 87. 93. 87. 87. 93. 93. 87. 87. 87. 93. 93. 87. 87. 93. 87.]",728.0971576703068,None,s,1,0.8052279278953165,728.0971576703068,None,None,None,,,,,,,02_HS,24,M,2,2021_Nov_02_1208,Partial repeat,2021.2.3,120.11171118412796,
5,2,0,1,1,3,2,3,3,0,0,0,1,1,0,0,0,92,92,92,,,,,,,,,,,,,,,,,,,,,,,,,,,,,,,,02_HS,24,M,2,2021_Nov_02_1208,Partial repeat,2021.2.3,120.11171118412796,
4,7,0,1,1,2,2,3,3,0,0,1,1,1,0,0,0,93,93,93,0,0,0,0,,,,,,,728.9297647010528,None,0.7023538223042185,729.3460941939836,None,"[93. 87. 87. 87. 93. 93. 87. 93. 87. 93. 87. 93. 93. 93. 87. 87. 87. 93.
 87. 93. 93. 87. 93. 93. 87. 93. 93. 93. 93. 87. 93. 87. 87. 87.]",730.1370723484611,None,s,1,0.6853203310309937,730.1370723484611,None,None,None,,,,,,,02_HS,24,M,2,2021_Nov_02_1208,Partial repeat,2021.2.3,120.11171118412796,
4,7,0,1,1,2,2,3,3,0,0,1,1,1,0,0,0,93,93,93,1,0,1,0,,,,,,,,,0.7929608862509041,730.886416816011,None,"[87. 93. 93. 87. 87. 93. 87. 87. 87. 93. 93. 93. 93. 87. 87. 87. 93. 93.
 93. 87. 93. 93. 87. 93. 93. 93. 87. 87. 93. 87. 87. 87. 87. 87.]",731.7689867084703,None,s,1,0.8774012809502665,731.7689867084703,None,None,None,,,,,,,02_HS,24,M,2,2021_Nov_02_1208,Partial repeat,2021.2.3,120.11171118412796,
4,7,0,1,1,2,2,3,3,0,0,1,1,1,0,0,0,93,93,93,,,,,,,,,,,,,,,,,,,,,,,,,,,,,,,,02_HS,24,M,2,2021_Nov_02_1208,Partial repeat,2021.2.3,120.11171118412796,
6,8,0,1,1,2,2,2,2,1,0,1,1,0,0,0,0,94,94,94,0,0,0,0,,,,,,,732.6682001978143,None,0.9782700943783769,734.3417633181487,None,"[93. 93. 93. 93. 93. 93. 87. 93. 87. 93. 93. 93. 93. 87. 87. 87. 93. 87.
 87. 93. 87. 93. 93. 93. 93. 93. 87. 87. 87. 87. 93. 87. 93. 87.]",735.4075102723602,None,l,1,1.0459356592015183,735.4075102723602,None,None,None,,,,,,,02_HS,24,M,2,2021_Nov_02_1208,Partial repeat,2021.2.3,120.11171118412796,
6,8,0,1,1,2,2,2,2,1,0,1,1,0,0,0,0,94,94,94,1,0,1,0,,,,,,,,,0.9141759007751619,736.5232111083885,None,"[93. 93. 87. 87. 87. 93. 93. 87. 93. 93. 93. 87. 87. 93. 87. 93. 87. 93.
 93. 87. 93. 87. 87. 93. 87. 93. 93. 87. 93. 93. 87. 87. 93. 87.]",737.5223666773998,None,s,1,0.723074702637291,737.5223666773998,None,None,None,,,,,,,02_HS,24,M,2,2021_Nov_02_1208,Partial repeat,2021.2.3,120.11171118412796,
6,8,0,1,1,2,2,2,2,1,0,1,1,0,0,0,0,94,94,94,,,,,,,,,,,,,,,,,,,,,,,,,,,,,,,,02_HS,24,M,2,2021_Nov_02_1208,Partial repeat,2021.2.3,120.11171118412796,
3,2,0,1,1,2,3,3,3,0,1,0,1,0,0,0,0,95,95,95,0,0,0,0,,,,,,,738.2716967129729,None,0.8484081129573027,738.7213101925674,None,"[87. 87. 87. 87. 87. 93. 87. 87. 93. 87. 87. 87. 87. 93. 87. 93. 93. 87.
 87. 93. 87. 93. 93. 93. 93. 87. 87. 93. 87. 93. 87. 87. 93. 93.]",739.6538374946601,None,s,1,0.6556180402595828,739.6538374946601,None,None,None,,,,,,,02_HS,24,M,2,2021_Nov_02_1208,Partial repeat,2021.2.3,120.11171118412796,
3,2,0,1,1,2,3,3,3,0,1,0,1,0,0,0,0,95,95,95,1,0,1,0,,,,,,,,,0.7245434080432377,740.3698873920969,None,"[87. 87. 93. 87. 93. 93. 87. 87. 93. 87. 93. 93. 87. 93. 87. 93. 93. 87.
 93. 87. 87. 87. 87. 93. 93. 93. 93. 93. 87. 87. 93. 93. 93. 87.]",741.1775277446734,None,l,1,0.6199723407961528,741.1775277446734,None,None,None,,,,,,,02_HS,24,M,2,2021_Nov_02_1208,Partial repeat,2021.2.3,120.11171118412796,
3,2,0,1,1,2,3,3,3,0,1,0,1,0,0,0,0,95,95,95,,,,,,,,,,,,,,,,,,,,,,,,,,,,,,,,02_HS,24,M,2,2021_Nov_02_1208,Partial repeat,2021.2.3,120.11171118412796,
1,5,0,1,1,3,2,3,2,1,0,0,0,0,0,0,0,96,96,96,0,0,0,0,,,,,,,741.8186349530929,None,0.9899124997811584,742.3181923724758,None,"[87. 87. 87. 93. 93. 87. 87. 87. 87. 87. 87. 87. 93. 87. 93. 87. 87. 93.
 93. 93. 93. 93. 93. 93. 93. 87. 93. 93. 87. 87. 93. 87. 93. 87.]",743.3922729914216,None,l,1,0.5172057629448545,743.3922729914216,None,None,None,,,,,,,02_HS,24,M,2,2021_Nov_02_1208,Partial repeat,2021.2.3,120.11171118412796,
1,5,0,1,1,3,2,3,2,1,0,0,0,0,0,0,0,96,96,96,1,0,1,0,,,,,,,,,0.9544005722560747,743.9751093302409,None,"[87. 87. 93. 87. 87. 87. 93. 93. 87. 93. 87. 93. 87. 87. 87. 87. 87. 93.
 87. 93. 93. 87. 93. 93. 87. 87. 93. 87. 93. 87. 93. 93. 93. 93.]",745.0158706843579,None,s,1,0.7976046371223902,745.0158706843579,None,None,None,,,,,,,02_HS,24,M,2,2021_Nov_02_1208,Partial repeat,2021.2.3,120.11171118412796,
1,5,0,1,1,3,2,3,2,1,0,0,0,0,0,0,0,96,96,96,,,,,,,,,,,,,,,,,,,,,,,,,,,,,,,,02_HS,24,M,2,2021_Nov_02_1208,Partial repeat,2021.2.3,120.11171118412796,
7,6,0,1,1,3,3,3,3,1,1,1,1,1,0,0,0,97,97,97,0,0,0,0,,,,,,,745.8235049434331,None,0.8998768460862225,746.2231693518695,None,"[93. 87. 93. 93. 87. 87. 87. 93. 93. 87. 93. 87. 93. 93. 93. 87. 93. 87.
 93. 87. 93. 87. 87. 87. 87. 87. 87. 93. 93. 93. 93. 87. 87. 87.]",747.2056460458307,None,l,1,0.6558598560458222,747.2056460458307,None,None,None,,,,,,,02_HS,24,M,2,2021_Nov_02_1208,Partial repeat,2021.2.3,120.11171118412796,
7,6,0,1,1,3,3,3,3,1,1,1,1,1,0,0,0,97,97,97,1,0,1,0,,,,,,,,,0.8771503579675026,747.9300190245524,None,"[87. 93. 93. 87. 87. 93. 87. 93. 87. 93. 87. 93. 87. 93. 87. 87. 87. 93.
 93. 87. 93. 87. 93. 93. 93. 87. 87. 93. 87. 93. 93. 93. 87. 93.]",748.8958485938124,None,l,1,1.06074671576323,748.8958485938124,None,None,None,,,,,,,02_HS,24,M,2,2021_Nov_02_1208,Partial repeat,2021.2.3,120.11171118412796,
7,6,0,1,1,3,3,3,3,1,1,1,1,1,0,0,0,97,97,97,,,,,,,,,,,,,,,,,,,,,,,,,,,,,,,,02_HS,24,M,2,2021_Nov_02_1208,Partial repeat,2021.2.3,120.11171118412796,
3,7,0,1,1,3,3,3,2,1,1,1,0,1,0,0,0,98,98,98,0,0,0,0,,,,,,,749.9782558218594,None,0.9383580465285493,750.4195327503242,None,"[93. 93. 93. 87. 93. 93. 87. 87. 87. 87. 87. 93. 87. 93. 87. 87. 87. 87.
 93. 93. 93. 93. 93. 93. 93. 87. 87. 93. 93. 93. 87. 93. 93. 93.]",751.4353245398765,None,l,1,0.6012033948178441,751.4353245398765,None,None,None,,,,,,,02_HS,24,M,2,2021_Nov_02_1208,Partial repeat,2021.2.3,120.11171118412796,
3,7,0,1,1,3,3,3,2,1,1,1,0,1,0,0,0,98,98,98,1,0,1,0,,,,,,,,,0.9946817939649901,752.1014160655482,None,"[93. 87. 93. 87. 93. 93. 93. 87. 87. 93. 93. 87. 87. 87. 87. 93. 93. 93.
 87. 87. 87. 93. 87. 93. 87. 87. 93. 87. 87. 87. 87. 93. 93. 93.]",753.1838800593698,None,l,1,0.5811362123630488,753.1838800593698,None,None,None,,,,,,,02_HS,24,M,2,2021_Nov_02_1208,Partial repeat,2021.2.3,120.11171118412796,
3,7,0,1,1,3,3,3,2,1,1,1,0,1,0,0,0,98,98,98,,,,,,,,,,,,,,,,,,,,,,,,,,,,,,,,02_HS,24,M,2,2021_Nov_02_1208,Partial repeat,2021.2.3,120.11171118412796,
5,5,0,1,1,3,2,2,2,0,0,0,1,1,0,0,0,99,99,99,0,0,0,0,,,,,,,753.7916195756613,None,0.931977460385466,754.2495561365406,None,"[93. 87. 87. 93. 87. 93. 87. 93. 87. 87. 93. 93. 87. 93. 87. 87. 87. 87.
 93. 87. 87. 87. 93. 93. 87. 87. 93. 87. 93. 93. 87. 93. 87. 87.]",755.2653453604082,None,s,1,0.8191916670729142,755.2653453604082,None,None,None,,,,,,,02_HS,24,M,2,2021_Nov_02_1208,Partial repeat,2021.2.3,120.11171118412796,
5,5,0,1,1,3,2,2,2,0,0,0,1,1,0,0,0,99,99,99,1,0,1,0,,,,,,,,,0.992727843123426,756.1479184599734,None,"[87. 87. 93. 93. 87. 87. 93. 87. 87. 87. 93. 93. 93. 93. 87. 93. 93. 93.
 87. 93. 87. 93. 87. 87. 93. 93. 93. 93. 93. 93. 87. 87. 93. 93.]",757.2303282537052,None,s,1,0.8382540632427435,757.2303282537052,None,None,None,,,,,,,02_HS,24,M,2,2021_Nov_02_1208,Partial repeat,2021.2.3,120.11171118412796,
5,5,0,1,1,3,2,2,2,0,0,0,1,1,0,0,0,99,99,99,,,,,,,,,,,,,,,,,,,,,,,,,,,,,,,,02_HS,24,M,2,2021_Nov_02_1208,Partial repeat,2021.2.3,120.11171118412796,
2,1,0,1,1,2,3,2,2,1,1,0,1,1,0,0,0,100,100,100,0,0,0,0,,,,,,,758.0879160738866,None,0.8371410855900698,758.4459297977342,None,"[87. 87. 87. 87. 87. 87. 93. 87. 87. 93. 87. 93. 93. 93. 93. 87. 93. 93.
 93. 93. 87. 93. 93. 93. 93. 93. 87. 87. 93. 87. 93. 87. 87. 93.]",759.3701330564104,None,l,1,0.9384475800142127,759.3701330564104,None,None,None,,,,,,,02_HS,24,M,2,2021_Nov_02_1208,Partial repeat,2021.2.3,120.11171118412796,
2,1,0,1,1,2,3,2,2,1,1,0,1,1,0,0,0,100,100,100,1,0,1,0,,,,,,,,,0.887598892804489,760.3775950297554,None,"[87. 93. 87. 93. 93. 93. 93. 93. 93. 93. 87. 87. 87. 93. 93. 93. 87. 87.
 87. 93. 87. 87. 87. 87. 87. 87. 87. 93. 93. 93. 87. 87. 87. 93.]",761.3517537738014,None,l,1,0.6368369072789619,761.3517537738014,None,None,None,,,,,,,02_HS,24,M,2,2021_Nov_02_1208,Partial repeat,2021.2.3,120.11171118412796,
2,1,0,1,1,2,3,2,2,1,1,0,1,1,0,0,0,100,100,100,,,,,,,,,,,,,,,,,,,,,,,,,,,,,,,,02_HS,24,M,2,2021_Nov_02_1208,Partial repeat,2021.2.3,120.11171118412796,
1,3,0,1,1,2,3,3,2,1,1,0,0,1,0,0,0,101,101,101,0,0,0,0,,,,,,,762.0095315187955,None,0.9139133742326219,762.4674558926722,None,"[87. 87. 87. 87. 87. 87. 93. 87. 93. 93. 93. 93. 87. 87. 87. 93. 93. 93.
 93. 87. 87. 93. 93. 87. 93. 87. 87. 87. 87. 87. 87. 93. 87. 87.]",763.4582697791843,None,l,1,0.6734001597459383,763.4582697791843,None,None,None,,,,,,,02_HS,24,M,2,2021_Nov_02_1208,Partial repeat,2021.2.3,120.11171118412796,
1,3,0,1,1,2,3,3,2,1,1,0,0,1,0,0,0,101,101,101,1,0,1,0,,,,,,,,,0.8914324828627033,764.1909700084282,None,"[93. 93. 87. 87. 93. 93. 87. 93. 87. 87. 93. 93. 87. 87. 87. 93. 87. 87.
 93. 93. 93. 93. 87. 87. 93. 87. 93. 87. 93. 87. 93. 93. 93. 93.]",765.1651265075002,None,l,1,0.6624870197198334,765.1651265075002,None,None,None,,,,,,,02_HS,24,M,2,2021_Nov_02_1208,Partial repeat,2021.2.3,120.11171118412796,
