prime_tar_pos,probe_tar_pos,dimension,tar_color,tar_shape,prime_dist_color,probe_dist_color,prime_dist_shape,probe_dist_shape,prime_tar_ori,probe_tar_ori,col_rep,shape_rep,resp_rep,pos_fixed,sparse,MainLoop.thisRepN,MainLoop.thisTrialN,MainLoop.thisN,MainLoop.thisIndex,PrimeProbe.thisRepN,PrimeProbe.thisTrialN,PrimeProbe.thisN,PrimeProbe.thisIndex,Instruction.started,Instruction.stopped,instruction_key.keys,instruction_key.rt,instruction_key.started,instruction_key.stopped,PairStartText.started,PairStartText.stopped,fixdur,FixCross.started,FixCross.stopped,dist_ori,SearchFixCross.started,SearchFixCross.stopped,key_resp.keys,key_resp.corr,key_resp.rt,key_resp.started,key_resp.stopped,feedback_text.started,feedback_text.stopped,text_finish.started,text_finish.stopped,finish_key.keys,finish_key.rt,finish_key.started,finish_key.stopped,participant,age,gender,group,date,expName,psychopyVersion,frameRate,
,,,,,,,,,,,,,,,,,,,,,,,,33.28212669088134,None,space,3.942214270022305,33.28212669088134,None,,,,,,,,,,,,,,,,,,,,,,03__HAB,25,M,3,2021_Oct_28_1353,Partial repeat,2021.2.3,120.09760193740416,
3,1,0,1,1,2,3,3,2,1,0,0,0,0,0,0,0,0,0,0,0,0,0,0,,,,,,,124.81313393067285,None,0.8837581918901433,125.71134069221443,None,"[87. 87. 93. 87. 87. 93. 93. 87. 93. 93. 87. 93. 93. 93. 93. 93. 93. 87.
 87. 87. 87. 87. 93. 93. 93. 93. 93. 87. 93. 87. 93. 87. 87. 87.]",126.68553222113951,None,l,1,1.3022904202771315,126.68553222113951,None,None,None,,,,,,,03__HAB,25,M,3,2021_Oct_28_1353,Partial repeat,2021.2.3,120.09760193740416,
3,1,0,1,1,2,3,3,2,1,0,0,0,0,0,0,0,0,0,0,1,0,1,0,,,,,,,,,0.9333718846042552,128.05932689896144,None,"[93. 93. 87. 93. 93. 87. 93. 93. 87. 93. 93. 93. 87. 93. 93. 93. 87. 87.
 93. 93. 87. 93. 93. 87. 87. 93. 87. 93. 93. 87. 87. 87. 93. 93.]",129.0667773984078,None,s,1,1.8170759622480546,129.0667773984078,None,None,None,,,,,,,03__HAB,25,M,3,2021_Oct_28_1353,Partial repeat,2021.2.3,120.09760193740416,
3,1,0,1,1,2,3,3,2,1,0,0,0,0,0,0,0,0,0,0,,,,,,,,,,,,,,,,,,,,,,,,,,,,,,,,03__HAB,25,M,3,2021_Oct_28_1353,Partial repeat,2021.2.3,120.09760193740416,
1,7,0,1,1,3,2,3,3,1,0,0,1,0,0,0,0,1,1,1,0,0,0,0,,,,,,,130.90688655651502,None,0.7134118505715004,132.38064608411696,None,"[93. 93. 87. 93. 87. 87. 93. 93. 87. 87. 87. 87. 87. 87. 93. 87. 87. 93.
 87. 93. 87. 93. 93. 87. 93. 87. 87. 87. 87. 87. 87. 87. 93. 93.]",133.17163730105312,None,l,1,0.8654152106119,133.17163730105312,None,None,None,,,,,,,03__HAB,25,M,3,2021_Oct_28_1353,Partial repeat,2021.2.3,120.09760193740416,
1,7,0,1,1,3,2,3,3,1,0,0,1,0,0,0,0,1,1,1,1,0,1,0,,,,,,,,,0.8077776218576134,134.09582090835102,None,"[93. 87. 87. 87. 87. 87. 87. 93. 87. 93. 87. 93. 87. 87. 87. 87. 87. 93.
 87. 87. 93. 87. 93. 87. 93. 87. 93. 87. 87. 93. 93. 87. 93. 93.]",134.98675548725078,None,s,1,1.720300609991682,134.98675548725078,None,None,None,,,,,,,03__HAB,25,M,3,2021_Oct_28_1353,Partial repeat,2021.2.3,120.09760193740416,
1,7,0,1,1,3,2,3,3,1,0,0,1,0,0,0,0,1,1,1,,,,,,,,,,,,,,,,,,,,,,,,,,,,,,,,03__HAB,25,M,3,2021_Oct_28_1353,Partial repeat,2021.2.3,120.09760193740416,
2,6,0,1,1,2,3,2,2,1,0,0,1,0,0,0,0,2,2,2,0,0,0,0,,,,,,,136.72691005841443,None,0.8200949241783256,137.93421424828193,None,"[93. 87. 87. 87. 93. 87. 87. 87. 93. 93. 93. 93. 93. 93. 93. 93. 93. 87.
 93. 87. 87. 87. 87. 93. 93. 93. 87. 87. 93. 87. 87. 93. 93. 87.]",138.83344793501965,None,l,1,1.2345512015490385,138.83344793501965,None,None,None,,,,,,,03__HAB,25,M,3,2021_Oct_28_1353,Partial repeat,2021.2.3,120.09760193740416,
2,6,0,1,1,2,3,2,2,1,0,0,1,0,0,0,0,2,2,2,1,0,1,0,,,,,,,,,0.9921172326221345,140.1406845825877,None,"[87. 93. 87. 87. 93. 87. 93. 93. 87. 93. 87. 93. 93. 87. 93. 93. 87. 93.
 93. 93. 87. 87. 93. 87. 93. 93. 87. 87. 87. 87. 87. 93. 93. 93.]",141.21475148217723,None,s,1,1.5882983880892425,141.21475148217723,None,None,None,,,,,,,03__HAB,25,M,3,2021_Oct_28_1353,Partial repeat,2021.2.3,120.09760193740416,
2,6,0,1,1,2,3,2,2,1,0,0,1,0,0,0,0,2,2,2,,,,,,,,,,,,,,,,,,,,,,,,,,,,,,,,03__HAB,25,M,3,2021_Oct_28_1353,Partial repeat,2021.2.3,120.09760193740416,
6,4,0,1,1,3,3,2,3,1,1,1,0,1,0,0,0,3,3,3,0,0,0,0,,,,,,,142.82171045584255,None,0.7173955951552413,143.50444829870867,None,"[93. 87. 93. 93. 93. 93. 93. 93. 87. 93. 87. 93. 87. 93. 93. 87. 93. 87.
 93. 93. 87. 87. 93. 87. 93. 87. 93. 87. 93. 87. 93. 93. 87. 87.]",144.30378544768064,None,l,1,0.7873143743818218,144.30378544768064,None,None,None,,,,,,,03__HAB,25,M,3,2021_Oct_28_1353,Partial repeat,2021.2.3,120.09760193740416,
6,4,0,1,1,3,3,2,3,1,1,1,0,1,0,0,0,3,3,3,1,0,1,0,,,,,,,,,0.7823569287080623,145.16136740766342,None,"[87. 87. 93. 87. 93. 93. 87. 93. 93. 87. 93. 87. 87. 93. 93. 93. 87. 87.
 93. 93. 87. 93. 87. 93. 87. 93. 87. 93. 93. 93. 87. 93. 93. 87.]",146.01897277974604,None,l,1,0.5601448586021434,146.01897277974604,None,None,None,,,,,,,03__HAB,25,M,3,2021_Oct_28_1353,Partial repeat,2021.2.3,120.09760193740416,
6,4,0,1,1,3,3,2,3,1,1,1,0,1,0,0,0,3,3,3,,,,,,,,,,,,,,,,,,,,,,,,,,,,,,,,03__HAB,25,M,3,2021_Oct_28_1353,Partial repeat,2021.2.3,120.09760193740416,
8,5,0,1,1,2,2,3,3,1,1,1,1,1,0,0,0,4,4,4,0,0,0,0,,,,,,,146.601814726273,None,0.9964001958574988,147.30120851327956,None,"[87. 87. 93. 87. 93. 87. 93. 87. 87. 87. 87. 93. 93. 87. 87. 93. 93. 93.
 93. 93. 87. 87. 87. 87. 93. 87. 87. 87. 93. 93. 93. 93. 93. 93.]",148.3752978628272,None,l,1,0.9878781248862651,148.3752978628272,None,None,None,,,,,,,03__HAB,25,M,3,2021_Oct_28_1353,Partial repeat,2021.2.3,120.09760193740416,
8,5,0,1,1,2,2,3,3,1,1,1,1,1,0,0,0,4,4,4,1,0,1,0,,,,,,,,,0.7116951718089152,149.43271138398813,None,"[93. 87. 93. 87. 93. 87. 87. 87. 87. 93. 93. 93. 87. 87. 93. 87. 87. 93.
 87. 87. 87. 93. 93. 87. 93. 93. 87. 93. 93. 93. 93. 87. 87. 87.]",150.22371158090573,None,l,1,0.8038449194755231,150.22371158090573,None,None,None,,,,,,,03__HAB,25,M,3,2021_Oct_28_1353,Partial repeat,2021.2.3,120.09760193740416,
8,5,0,1,1,2,2,3,3,1,1,1,1,1,0,0,0,4,4,4,,,,,,,,,,,,,,,,,,,,,,,,,,,,,,,,03__HAB,25,M,3,2021_Oct_28_1353,Partial repeat,2021.2.3,120.09760193740416,
5,3,0,1,1,3,3,2,2,1,0,1,1,0,0,0,0,5,5,5,0,0,0,0,,,,,,,151.04800314042768,None,0.8941480015427272,151.69744737569636,None,"[93. 93. 93. 87. 87. 87. 87. 93. 93. 87. 93. 87. 87. 87. 87. 87. 93. 87.
 93. 87. 93. 93. 87. 93. 87. 87. 93. 93. 87. 87. 93. 93. 93. 87.]",152.6716164546633,None,l,1,1.2356252716563176,152.6716164546633,None,None,None,,,,,,,03__HAB,25,M,3,2021_Oct_28_1353,Partial repeat,2021.2.3,120.09760193740416,
5,3,0,1,1,3,3,2,2,1,0,1,1,0,0,0,0,5,5,5,1,0,1,0,,,,,,,,,0.9897223249241742,153.9705148673238,None,"[87. 93. 93. 87. 93. 87. 87. 93. 87. 93. 93. 87. 87. 93. 87. 87. 87. 93.
 93. 87. 87. 87. 93. 93. 93. 93. 93. 87. 93. 87. 87. 87. 87. 87.]",155.0362509084207,None,s,1,3.0631406450665963,155.0362509084207,None,None,None,,,,,,,03__HAB,25,M,3,2021_Oct_28_1353,Partial repeat,2021.2.3,120.09760193740416,
5,3,0,1,1,3,3,2,2,1,0,1,1,0,0,0,0,5,5,5,,,,,,,,,,,,,,,,,,,,,,,,,,,,,,,,03__HAB,25,M,3,2021_Oct_28_1353,Partial repeat,2021.2.3,120.09760193740416,
3,7,0,1,1,3,3,3,2,1,1,1,0,1,0,0,0,6,6,6,0,0,0,0,,,,,,,158.1086128941006,None,0.973038266085992,158.6914622170425,None,"[93. 87. 93. 93. 87. 87. 93. 87. 93. 87. 93. 93. 87. 93. 93. 93. 93. 87.
 93. 87. 87. 87. 87. 93. 87. 87. 87. 87. 93. 93. 87. 87. 87. 93.]",159.740570857517,None,l,1,0.709771900665146,159.740570857517,None,None,None,,,,,,,03__HAB,25,M,3,2021_Oct_28_1353,Partial repeat,2021.2.3,120.09760193740416,
3,7,0,1,1,3,3,3,2,1,1,1,0,1,0,0,0,6,6,6,1,0,1,0,,,,,,,,,0.7958160649463142,160.5149016403211,None,"[93. 93. 93. 93. 93. 93. 93. 93. 93. 93. 93. 93. 93. 93. 87. 93. 87. 93.
 87. 87. 93. 87. 93. 93. 87. 93. 93. 87. 93. 87. 93. 87. 87. 93.]",161.389170012244,None,l,1,0.7732395339226059,161.389170012244,None,None,None,,,,,,,03__HAB,25,M,3,2021_Oct_28_1353,Partial repeat,2021.2.3,120.09760193740416,
3,7,0,1,1,3,3,3,2,1,1,1,0,1,0,0,0,6,6,6,,,,,,,,,,,,,,,,,,,,,,,,,,,,,,,,03__HAB,25,M,3,2021_Oct_28_1353,Partial repeat,2021.2.3,120.09760193740416,
6,6,0,1,1,3,2,2,3,1,0,0,0,0,0,0,0,7,7,7,0,0,0,0,,,,,,,162.17180375145108,None,0.7617889644223574,162.71304271970257,None,"[93. 87. 93. 87. 87. 87. 93. 87. 87. 87. 87. 93. 93. 87. 93. 87. 93. 87.
 87. 93. 87. 87. 87. 87. 93. 93. 93. 87. 87. 87. 93. 87. 93. 87.]",163.55397579124838,None,l,1,0.6404416213827062,163.55397579124838,None,None,None,,,,,,,03__HAB,25,M,3,2021_Oct_28_1353,Partial repeat,2021.2.3,120.09760193740416,
6,6,0,1,1,3,2,2,3,1,0,0,0,0,0,0,0,7,7,7,1,0,1,0,,,,,,,,,0.7731521049527267,164.26169658818253,None,"[87. 87. 87. 87. 87. 87. 87. 93. 93. 93. 87. 87. 93. 87. 93. 93. 87. 87.
 93. 87. 87. 87. 93. 87. 93. 93. 87. 93. 93. 87. 93. 87. 93. 93.]",165.110985213174,None,s,1,0.7004837118456635,165.110985213174,None,None,None,,,,,,,03__HAB,25,M,3,2021_Oct_28_1353,Partial repeat,2021.2.3,120.09760193740416,
6,6,0,1,1,3,2,2,3,1,0,0,0,0,0,0,0,7,7,7,,,,,,,,,,,,,,,,,,,,,,,,,,,,,,,,03__HAB,25,M,3,2021_Oct_28_1353,Partial repeat,2021.2.3,120.09760193740416,
8,1,0,1,1,3,2,3,3,0,1,0,1,0,0,0,0,8,8,8,0,0,0,0,,,,,,,165.82702885076105,None,0.9520130327943428,166.37656019186215,None,"[87. 93. 93. 87. 87. 93. 87. 87. 93. 87. 87. 87. 93. 93. 87. 93. 87. 93.
 87. 93. 87. 87. 93. 93. 93. 87. 93. 87. 93. 87. 93. 93. 87. 93.]",167.40902860316965,None,s,1,0.7045307977459743,167.40902860316965,None,None,None,,,,,,,03__HAB,25,M,3,2021_Oct_28_1353,Partial repeat,2021.2.3,120.09760193740416,
8,1,0,1,1,3,2,3,3,0,1,0,1,0,0,0,0,8,8,8,1,0,1,0,,,,,,,,,0.7277488726599602,168.18334559528557,None,"[93. 87. 93. 87. 93. 87. 93. 87. 87. 87. 87. 87. 87. 93. 87. 93. 87. 87.
 93. 93. 87. 93. 87. 93. 87. 87. 93. 93. 93. 93. 93. 93. 87. 87.]",168.99096966497564,None,l,1,0.6115308869029832,168.99096966497564,None,None,None,,,,,,,03__HAB,25,M,3,2021_Oct_28_1353,Partial repeat,2021.2.3,120.09760193740416,
8,1,0,1,1,3,2,3,3,0,1,0,1,0,0,0,0,8,8,8,,,,,,,,,,,,,,,,,,,,,,,,,,,,,,,,03__HAB,25,M,3,2021_Oct_28_1353,Partial repeat,2021.2.3,120.09760193740416,
7,4,0,1,1,3,2,3,3,0,0,0,1,1,0,0,0,9,9,9,0,0,0,0,,,,,,,169.623780406062,None,0.7811307301131428,170.73117651246866,None,"[87. 87. 93. 93. 87. 87. 87. 87. 93. 93. 93. 87. 93. 87. 93. 87. 87. 87.
 87. 93. 87. 93. 93. 93. 93. 93. 87. 93. 87. 93. 93. 87. 87. 87.]",171.58877098028643,None,l,0,0.5887608572120371,171.58877098028643,None,172.19658144876485,None,,,,,,,03__HAB,25,M,3,2021_Oct_28_1353,Partial repeat,2021.2.3,120.09760193740416,
7,4,0,1,1,3,2,3,3,0,0,0,1,1,0,0,0,9,9,9,1,0,1,0,,,,,,,,,0.7692345742603066,172.74610701702295,None,"[93. 87. 87. 93. 93. 93. 87. 93. 93. 87. 93. 87. 93. 93. 93. 87. 93. 93.
 93. 93. 87. 87. 93. 93. 93. 93. 87. 87. 87. 93. 87. 87. 93. 87.]",173.59538794488617,None,s,1,1.174230090187848,173.59538794488617,None,None,None,,,,,,,03__HAB,25,M,3,2021_Oct_28_1353,Partial repeat,2021.2.3,120.09760193740416,
7,4,0,1,1,3,2,3,3,0,0,0,1,1,0,0,0,9,9,9,,,,,,,,,,,,,,,,,,,,,,,,,,,,,,,,03__HAB,25,M,3,2021_Oct_28_1353,Partial repeat,2021.2.3,120.09760193740416,
2,5,0,1,1,2,3,2,3,1,0,0,0,0,0,0,0,10,10,10,0,0,0,0,,,,,,,174.78603234205002,None,0.835517760061186,175.29393376492771,None,"[87. 87. 93. 93. 93. 87. 87. 93. 93. 87. 87. 93. 93. 87. 87. 93. 87. 87.
 93. 87. 93. 87. 93. 87. 93. 87. 93. 93. 87. 93. 93. 93. 87. 87.]",176.20982403723247,None,l,1,0.5437775567734207,176.20982403723247,None,None,None,,,,,,,03__HAB,25,M,3,2021_Oct_28_1353,Partial repeat,2021.2.3,120.09760193740416,
2,5,0,1,1,2,3,2,3,1,0,0,0,0,0,0,0,10,10,10,1,0,1,0,,,,,,,,,0.8725985226913466,176.8176159043196,None,"[87. 93. 87. 87. 93. 87. 87. 93. 87. 87. 93. 93. 93. 87. 87. 93. 93. 87.
 87. 93. 93. 87. 93. 93. 93. 87. 87. 87. 87. 93. 93. 93. 87. 87.]",177.76685045698468,None,s,1,0.6828303481670446,177.76685045698468,None,None,None,,,,,,,03__HAB,25,M,3,2021_Oct_28_1353,Partial repeat,2021.2.3,120.09760193740416,
2,5,0,1,1,2,3,2,3,1,0,0,0,0,0,0,0,10,10,10,,,,,,,,,,,,,,,,,,,,,,,,,,,,,,,,03__HAB,25,M,3,2021_Oct_28_1353,Partial repeat,2021.2.3,120.09760193740416,
3,4,0,1,1,3,3,3,3,1,0,1,1,0,0,0,0,11,11,11,0,0,0,0,,,,,,,178.46622179403312,None,0.9024248535098724,179.40708155043103,None,"[93. 93. 87. 93. 87. 87. 93. 87. 87. 93. 93. 93. 93. 93. 87. 87. 93. 87.
 93. 87. 93. 87. 93. 93. 87. 87. 93. 93. 93. 93. 87. 87. 87. 87.]",180.38956930077256,None,l,1,0.5240943962307938,180.38956930077256,None,None,None,,,,,,,03__HAB,25,M,3,2021_Oct_28_1353,Partial repeat,2021.2.3,120.09760193740416,
3,4,0,1,1,3,3,3,3,1,0,1,1,0,0,0,0,11,11,11,1,0,1,0,,,,,,,,,0.733933813783736,180.9724195858562,None,"[93. 87. 93. 93. 87. 87. 87. 93. 87. 87. 93. 93. 93. 87. 87. 87. 87. 87.
 87. 93. 93. 87. 87. 93. 93. 93. 93. 93. 87. 93. 93. 93. 93. 87.]",181.7884004918451,None,s,1,0.7411623933021474,181.7884004918451,None,None,None,,,,,,,03__HAB,25,M,3,2021_Oct_28_1353,Partial repeat,2021.2.3,120.09760193740416,
3,4,0,1,1,3,3,3,3,1,0,1,1,0,0,0,0,11,11,11,,,,,,,,,,,,,,,,,,,,,,,,,,,,,,,,03__HAB,25,M,3,2021_Oct_28_1353,Partial repeat,2021.2.3,120.09760193740416,
7,1,0,1,1,3,3,2,2,1,1,1,1,1,0,0,0,12,12,12,0,0,0,0,,,,,,,182.5377386991713,None,0.7405765907911059,183.12888167781966,None,"[87. 93. 93. 93. 93. 87. 93. 87. 87. 87. 87. 93. 87. 87. 93. 87. 87. 87.
 93. 93. 87. 87. 93. 87. 87. 93. 87. 93. 93. 87. 87. 93. 93. 93.]",183.94487637449856,None,l,1,0.5698932715495175,183.94487637449856,None,None,None,,,,,,,03__HAB,25,M,3,2021_Oct_28_1353,Partial repeat,2021.2.3,120.09760193740416,
7,1,0,1,1,3,3,2,2,1,1,1,1,1,0,0,0,12,12,12,1,0,1,0,,,,,,,,,0.7636640229427938,184.57765600635685,None,"[93. 93. 93. 93. 87. 93. 93. 87. 93. 93. 87. 87. 87. 93. 87. 87. 93. 93.
 87. 93. 93. 87. 93. 93. 87. 87. 87. 93. 87. 93. 87. 87. 87. 93.]",185.41860703786915,None,l,1,0.6461297991718311,185.41860703786915,None,None,None,,,,,,,03__HAB,25,M,3,2021_Oct_28_1353,Partial repeat,2021.2.3,120.09760193740416,
7,1,0,1,1,3,3,2,2,1,1,1,1,1,0,0,0,12,12,12,,,,,,,,,,,,,,,,,,,,,,,,,,,,,,,,03__HAB,25,M,3,2021_Oct_28_1353,Partial repeat,2021.2.3,120.09760193740416,
5,7,0,1,1,3,2,2,2,0,0,0,1,1,0,0,0,13,13,13,0,0,0,0,,,,,,,186.08468957802324,None,0.9421725133239965,188.59089474625944,None,"[93. 87. 93. 93. 87. 87. 87. 87. 87. 87. 93. 87. 93. 87. 87. 93. 87. 93.
 87. 93. 93. 93. 93. 93. 93. 87. 93. 87. 87. 93. 93. 87. 93. 87.]",189.61502588480107,None,l,0,0.6097955051936879,189.61502588480107,None,190.24779236739778,None,,,,,,,03__HAB,25,M,3,2021_Oct_28_1353,Partial repeat,2021.2.3,120.09760193740416,
5,7,0,1,1,3,2,2,2,0,0,0,1,1,0,0,0,13,13,13,1,0,1,0,,,,,,,,,0.7801219838299797,190.79734744131383,None,"[93. 87. 93. 93. 93. 93. 87. 87. 93. 93. 93. 93. 93. 87. 93. 93. 87. 93.
 87. 87. 93. 87. 93. 87. 93. 93. 93. 87. 93. 93. 93. 93. 87. 93.]",191.65494800269153,None,s,1,0.6819515926927124,191.65494800269153,None,None,None,,,,,,,03__HAB,25,M,3,2021_Oct_28_1353,Partial repeat,2021.2.3,120.09760193740416,
5,7,0,1,1,3,2,2,2,0,0,0,1,1,0,0,0,13,13,13,,,,,,,,,,,,,,,,,,,,,,,,,,,,,,,,03__HAB,25,M,3,2021_Oct_28_1353,Partial repeat,2021.2.3,120.09760193740416,
3,3,0,1,1,2,3,3,3,1,0,0,1,0,0,0,0,14,14,14,0,0,0,0,,,,,,,192.35434146898297,None,0.7354287171080428,192.84560170055192,None,"[93. 93. 93. 87. 87. 93. 93. 93. 93. 87. 93. 87. 93. 87. 87. 93. 93. 93.
 93. 93. 87. 87. 87. 87. 87. 87. 87. 93. 87. 93. 93. 93. 87. 87.]",193.6698781865307,None,l,1,0.5550051012032782,193.6698781865307,None,None,None,,,,,,,03__HAB,25,M,3,2021_Oct_28_1353,Partial repeat,2021.2.3,120.09760193740416,
3,3,0,1,1,2,3,3,3,1,0,0,1,0,0,0,0,14,14,14,1,0,1,0,,,,,,,,,0.8617598894498842,194.28603266276332,None,"[87. 87. 93. 93. 87. 87. 93. 87. 87. 93. 93. 93. 87. 93. 87. 93. 87. 87.
 87. 87. 87. 87. 87. 87. 93. 87. 93. 93. 93. 93. 87. 87. 93. 87.]",195.22688183560967,None,s,1,1.4136252113621595,195.22688183560967,None,None,None,,,,,,,03__HAB,25,M,3,2021_Oct_28_1353,Partial repeat,2021.2.3,120.09760193740416,
3,3,0,1,1,2,3,3,3,1,0,0,1,0,0,0,0,14,14,14,,,,,,,,,,,,,,,,,,,,,,,,,,,,,,,,03__HAB,25,M,3,2021_Oct_28_1353,Partial repeat,2021.2.3,120.09760193740416,
8,8,0,1,1,2,2,2,3,1,0,1,0,0,0,0,0,15,15,15,0,0,0,0,,,,,,,196.6506664750923,None,0.7053850265564792,198.27427690290642,None,"[87. 93. 87. 93. 87. 93. 93. 93. 87. 87. 87. 87. 87. 87. 87. 87. 87. 93.
 93. 87. 93. 87. 87. 87. 93. 93. 87. 87. 87. 93. 93. 93. 93. 87.]",199.05694688275798,None,l,1,0.975115003366227,199.05694688275798,None,None,None,,,,,,,03__HAB,25,M,3,2021_Oct_28_1353,Partial repeat,2021.2.3,120.09760193740416,
8,8,0,1,1,2,2,2,3,1,0,1,0,0,0,0,0,15,15,15,1,0,1,0,,,,,,,,,0.7313531783177355,200.0977243440284,None,"[93. 87. 87. 87. 87. 87. 93. 87. 93. 93. 93. 93. 87. 93. 93. 87. 87. 93.
 87. 87. 87. 87. 87. 87. 93. 87. 87. 87. 87. 87. 87. 87. 87. 93.]",200.90537022224817,None,s,1,0.7427258724801504,200.90537022224817,None,None,None,,,,,,,03__HAB,25,M,3,2021_Oct_28_1353,Partial repeat,2021.2.3,120.09760193740416,
8,8,0,1,1,2,2,2,3,1,0,1,0,0,0,0,0,15,15,15,,,,,,,,,,,,,,,,,,,,,,,,,,,,,,,,03__HAB,25,M,3,2021_Oct_28_1353,Partial repeat,2021.2.3,120.09760193740416,
5,2,0,1,1,3,3,3,3,0,1,1,1,0,0,0,0,16,16,16,0,0,0,0,,,,,,,201.67136854299133,None,0.9242600469608205,202.36244397933842,None,"[87. 93. 87. 87. 93. 87. 87. 87. 93. 87. 93. 87. 87. 87. 87. 93. 87. 93.
 87. 87. 93. 87. 93. 87. 93. 93. 87. 93. 87. 87. 87. 87. 87. 87.]",203.36160338878835,None,s,1,0.9744382975077315,203.36160338878835,None,None,None,,,,,,,03__HAB,25,M,3,2021_Oct_28_1353,Partial repeat,2021.2.3,120.09760193740416,
5,2,0,1,1,3,3,3,3,0,1,1,1,0,0,0,0,16,16,16,1,0,1,0,,,,,,,,,0.8276115534290767,204.4023725115021,None,"[87. 93. 93. 93. 93. 87. 87. 87. 93. 93. 93. 93. 87. 87. 93. 87. 93. 87.
 93. 93. 87. 93. 87. 87. 93. 93. 87. 87. 93. 93. 87. 87. 93. 87.]",205.30992839746432,None,l,1,0.7705064119600138,205.30992839746432,None,None,None,,,,,,,03__HAB,25,M,3,2021_Oct_28_1353,Partial repeat,2021.2.3,120.09760193740416,
5,2,0,1,1,3,3,3,3,0,1,1,1,0,0,0,0,16,16,16,,,,,,,,,,,,,,,,,,,,,,,,,,,,,,,,03__HAB,25,M,3,2021_Oct_28_1353,Partial repeat,2021.2.3,120.09760193740416,
8,6,0,1,1,2,3,3,3,0,0,0,1,1,0,0,0,17,17,17,0,0,0,0,,,,,,,206.10093148080523,None,0.9217651158623149,206.72536934990603,None,"[87. 93. 87. 93. 87. 93. 87. 87. 87. 87. 93. 87. 93. 93. 87. 93. 87. 93.
 87. 93. 93. 93. 87. 93. 93. 87. 93. 93. 87. 93. 87. 93. 87. 87.]",207.72452234508273,None,s,1,1.0919535618722875,207.72452234508273,None,None,None,,,,,,,03__HAB,25,M,3,2021_Oct_28_1353,Partial repeat,2021.2.3,120.09760193740416,
8,6,0,1,1,2,3,3,3,0,0,0,1,1,0,0,0,17,17,17,1,0,1,0,,,,,,,,,0.8923035136746281,208.89019661672683,None,"[93. 87. 87. 87. 87. 87. 93. 93. 87. 93. 87. 93. 93. 93. 87. 87. 87. 93.
 93. 93. 87. 93. 87. 93. 93. 87. 87. 93. 87. 93. 93. 87. 87. 87.]",209.86437403425043,None,s,1,0.8077431942274416,209.86437403425043,None,None,None,,,,,,,03__HAB,25,M,3,2021_Oct_28_1353,Partial repeat,2021.2.3,120.09760193740416,
8,6,0,1,1,2,3,3,3,0,0,0,1,1,0,0,0,17,17,17,,,,,,,,,,,,,,,,,,,,,,,,,,,,,,,,03__HAB,25,M,3,2021_Oct_28_1353,Partial repeat,2021.2.3,120.09760193740416,
4,2,0,1,1,2,3,2,3,1,1,0,0,1,0,0,0,18,18,18,0,0,0,0,,,,,,,210.68864346452756,None,0.7697965613390925,211.42968994043076,None,"[93. 87. 93. 93. 93. 87. 93. 93. 87. 93. 87. 93. 93. 87. 87. 93. 93. 93.
 87. 93. 87. 87. 87. 93. 87. 93. 93. 93. 87. 93. 93. 87. 93. 87.]",212.27897920684882,None,l,1,0.9051920452056947,212.27897920684882,None,None,None,,,,,,,03__HAB,25,M,3,2021_Oct_28_1353,Partial repeat,2021.2.3,120.09760193740416,
4,2,0,1,1,2,3,2,3,1,1,0,0,1,0,0,0,18,18,18,1,0,1,0,,,,,,,,,0.9665410839827546,213.25311685587621,None,"[93. 93. 87. 87. 87. 93. 93. 87. 87. 93. 93. 87. 87. 87. 93. 93. 87. 93.
 87. 87. 93. 87. 93. 93. 87. 87. 87. 93. 87. 87. 87. 93. 87. 93.]",214.29391965352625,None,l,1,0.7453730431770964,214.29391965352625,None,None,None,,,,,,,03__HAB,25,M,3,2021_Oct_28_1353,Partial repeat,2021.2.3,120.09760193740416,
4,2,0,1,1,2,3,2,3,1,1,0,0,1,0,0,0,18,18,18,,,,,,,,,,,,,,,,,,,,,,,,,,,,,,,,03__HAB,25,M,3,2021_Oct_28_1353,Partial repeat,2021.2.3,120.09760193740416,
1,4,0,1,1,3,3,2,3,1,0,1,0,0,0,0,0,19,19,19,0,0,0,0,,,,,,,215.06823824921048,None,0.9564941225890388,215.90918318716285,None,"[93. 93. 87. 87. 93. 93. 93. 87. 93. 87. 93. 93. 87. 93. 93. 93. 93. 87.
 87. 87. 93. 93. 93. 87. 87. 87. 93. 87. 93. 93. 87. 87. 93. 87.]",216.94165031561351,None,l,1,0.6575853710273805,216.94165031561351,None,None,None,,,,,,,03__HAB,25,M,3,2021_Oct_28_1353,Partial repeat,2021.2.3,120.09760193740416,
1,4,0,1,1,3,3,2,3,1,0,1,0,0,0,0,0,19,19,19,1,0,1,0,,,,,,,,,0.7550583384792098,217.65770197104212,None,"[87. 93. 93. 87. 87. 87. 93. 87. 93. 93. 87. 87. 87. 87. 87. 87. 93. 93.
 87. 87. 87. 93. 87. 87. 93. 93. 93. 93. 87. 87. 93. 87. 87. 93.]",218.49033304832483,None,s,1,1.7170094462308043,218.49033304832483,None,None,None,,,,,,,03__HAB,25,M,3,2021_Oct_28_1353,Partial repeat,2021.2.3,120.09760193740416,
1,4,0,1,1,3,3,2,3,1,0,1,0,0,0,0,0,19,19,19,,,,,,,,,,,,,,,,,,,,,,,,,,,,,,,,03__HAB,25,M,3,2021_Oct_28_1353,Partial repeat,2021.2.3,120.09760193740416,
3,5,0,1,1,3,2,3,2,0,1,0,0,0,0,0,0,20,20,20,0,0,0,0,,,,,,,220.23882874081937,None,0.8624766934885703,220.9132376494763,None,"[93. 87. 93. 87. 93. 93. 87. 93. 93. 93. 93. 87. 87. 93. 87. 93. 87. 87.
 93. 93. 87. 93. 87. 87. 93. 93. 93. 87. 87. 87. 93. 87. 87. 87.]",221.85410510300244,None,s,1,0.6572303409848246,221.85410510300244,None,None,None,,,,,,,03__HAB,25,M,3,2021_Oct_28_1353,Partial repeat,2021.2.3,120.09760193740416,
3,5,0,1,1,3,2,3,2,0,1,0,0,0,0,0,0,20,20,20,1,0,1,0,,,,,,,,,0.7009628297202974,222.57016253127767,None,"[93. 87. 87. 87. 87. 87. 93. 93. 87. 93. 87. 87. 93. 93. 87. 93. 87. 87.
 93. 93. 87. 87. 93. 93. 93. 93. 93. 87. 87. 93. 87. 93. 87. 87.]",223.35283251112924,None,l,1,0.6625355866417522,223.35283251112924,None,None,None,,,,,,,03__HAB,25,M,3,2021_Oct_28_1353,Partial repeat,2021.2.3,120.09760193740416,
3,5,0,1,1,3,2,3,2,0,1,0,0,0,0,0,0,20,20,20,,,,,,,,,,,,,,,,,,,,,,,,,,,,,,,,03__HAB,25,M,3,2021_Oct_28_1353,Partial repeat,2021.2.3,120.09760193740416,
8,3,0,1,1,3,2,2,3,0,1,0,0,0,0,0,0,21,21,21,0,0,0,0,,,,,,,224.02724687191767,None,0.7794331556957437,224.65170911526002,None,"[93. 93. 87. 93. 87. 87. 93. 87. 93. 87. 87. 87. 87. 93. 87. 93. 93. 93.
 93. 87. 93. 93. 93. 93. 87. 87. 87. 87. 87. 93. 93. 93. 87. 93.]",225.50931480805593,None,s,1,0.8577039709434757,225.50931480805593,None,None,None,,,,,,,03__HAB,25,M,3,2021_Oct_28_1353,Partial repeat,2021.2.3,120.09760193740416,
8,3,0,1,1,3,2,2,3,0,1,0,0,0,0,0,0,21,21,21,1,0,1,0,,,,,,,,,0.9371102055097786,226.42519770394574,None,"[87. 87. 93. 87. 87. 93. 87. 93. 93. 87. 87. 87. 87. 87. 93. 87. 87. 93.
 87. 87. 93. 93. 87. 93. 87. 87. 87. 93. 87. 87. 87. 87. 87. 87.]",227.44100311541115,None,l,1,0.6224268133901205,227.44100311541115,None,None,None,,,,,,,03__HAB,25,M,3,2021_Oct_28_1353,Partial repeat,2021.2.3,120.09760193740416,
8,3,0,1,1,3,2,2,3,0,1,0,0,0,0,0,0,21,21,21,,,,,,,,,,,,,,,,,,,,,,,,,,,,,,,,03__HAB,25,M,3,2021_Oct_28_1353,Partial repeat,2021.2.3,120.09760193740416,
2,2,0,1,1,3,2,3,2,0,0,0,0,1,0,0,0,22,22,22,0,0,0,0,,,,,,,228.08214054571363,None,0.8146351359433811,228.71491151830196,None,"[93. 87. 87. 93. 87. 87. 93. 87. 93. 87. 93. 93. 93. 87. 93. 93. 87. 93.
 87. 87. 87. 93. 93. 87. 93. 87. 93. 93. 87. 87. 87. 87. 87. 93.]",229.6058207608221,None,s,1,0.9847335272734199,229.6058207608221,None,None,None,,,,,,,03__HAB,25,M,3,2021_Oct_28_1353,Partial repeat,2021.2.3,120.09760193740416,
2,2,0,1,1,3,2,3,2,0,0,0,0,1,0,0,0,22,22,22,1,0,1,0,,,,,,,,,0.8912754211040812,230.65493517414325,None,"[93. 87. 93. 93. 87. 93. 87. 87. 93. 93. 87. 87. 93. 87. 93. 93. 93. 87.
 87. 93. 93. 93. 87. 93. 87. 93. 87. 87. 87. 87. 93. 87. 87. 93.]",231.6207551139396,None,s,1,0.9377422385005048,231.6207551139396,None,None,None,,,,,,,03__HAB,25,M,3,2021_Oct_28_1353,Partial repeat,2021.2.3,120.09760193740416,
2,2,0,1,1,3,2,3,2,0,0,0,0,1,0,0,0,22,22,22,,,,,,,,,,,,,,,,,,,,,,,,,,,,,,,,03__HAB,25,M,3,2021_Oct_28_1353,Partial repeat,2021.2.3,120.09760193740416,
6,3,0,1,1,2,2,2,3,1,1,1,0,1,0,0,0,23,23,23,0,0,0,0,,,,,,,232.57828685016102,None,0.9552042519695386,233.385915730556,None,"[93. 93. 93. 87. 93. 93. 87. 93. 87. 87. 87. 93. 93. 87. 93. 93. 87. 93.
 93. 87. 93. 93. 87. 93. 87. 93. 87. 87. 87. 93. 93. 87. 93. 87.]",234.41837131331522,None,l,1,0.6681820716512448,234.41837131331522,None,None,None,,,,,,,03__HAB,25,M,3,2021_Oct_28_1353,Partial repeat,2021.2.3,120.09760193740416,
6,3,0,1,1,2,2,2,3,1,1,1,0,1,0,0,0,23,23,23,1,0,1,0,,,,,,,,,0.8410392850591322,235.15107570574582,None,"[93. 87. 93. 87. 93. 93. 87. 93. 87. 87. 87. 93. 93. 87. 87. 87. 87. 87.
 87. 87. 93. 87. 87. 93. 93. 87. 87. 87. 93. 87. 87. 87. 87. 93.]",236.0669512252225,None,l,1,0.5716071654442203,236.0669512252225,None,None,None,,,,,,,03__HAB,25,M,3,2021_Oct_28_1353,Partial repeat,2021.2.3,120.09760193740416,
6,3,0,1,1,2,2,2,3,1,1,1,0,1,0,0,0,23,23,23,,,,,,,,,,,,,,,,,,,,,,,,,,,,,,,,03__HAB,25,M,3,2021_Oct_28_1353,Partial repeat,2021.2.3,120.09760193740416,
4,8,0,1,1,3,2,3,3,1,1,0,1,1,0,0,0,24,24,24,0,0,0,0,,,,,,,236.66644206018645,None,0.7744906037627157,237.2409537896492,None,"[93. 87. 87. 93. 87. 87. 87. 93. 87. 87. 87. 93. 87. 87. 87. 93. 87. 87.
 87. 93. 87. 87. 87. 93. 87. 93. 93. 87. 93. 87. 93. 93. 87. 87.]",238.0902343967973,None,l,1,0.6443475932628644,238.0902343967973,None,None,None,,,,,,,03__HAB,25,M,3,2021_Oct_28_1353,Partial repeat,2021.2.3,120.09760193740416,
4,8,0,1,1,3,2,3,3,1,1,0,1,1,0,0,0,24,24,24,1,0,1,0,,,,,,,,,0.775343747702007,238.8062870143658,None,"[87. 87. 87. 87. 93. 87. 87. 87. 93. 93. 93. 93. 87. 93. 87. 87. 87. 93.
 93. 87. 93. 87. 87. 87. 87. 93. 93. 93. 93. 87. 87. 87. 93. 87.]",239.66389046216682,None,l,1,0.9269431675420492,239.66389046216682,None,None,None,,,,,,,03__HAB,25,M,3,2021_Oct_28_1353,Partial repeat,2021.2.3,120.09760193740416,
4,8,0,1,1,3,2,3,3,1,1,0,1,1,0,0,0,24,24,24,,,,,,,,,,,,,,,,,,,,,,,,,,,,,,,,03__HAB,25,M,3,2021_Oct_28_1353,Partial repeat,2021.2.3,120.09760193740416,
6,5,0,1,1,2,3,3,3,1,1,0,1,1,0,0,0,25,25,25,0,0,0,0,,,,,,,240.6130692106526,None,0.7993161992761753,241.50395856892283,None,"[93. 93. 87. 87. 87. 93. 87. 93. 87. 87. 87. 87. 87. 87. 87. 93. 93. 93.
 93. 87. 93. 87. 93. 87. 93. 87. 93. 93. 93. 87. 87. 93. 87. 93.]",242.37823207226575,None,l,1,0.7404253932709253,242.37823207226575,None,None,None,,,,,,,03__HAB,25,M,3,2021_Oct_28_1353,Partial repeat,2021.2.3,120.09760193740416,
6,5,0,1,1,2,3,3,3,1,1,0,1,1,0,0,0,25,25,25,1,0,1,0,,,,,,,,,0.9541224787390423,243.1775307355947,None,"[93. 93. 87. 87. 93. 93. 87. 93. 87. 87. 87. 87. 93. 93. 93. 93. 93. 93.
 87. 87. 87. 93. 93. 87. 87. 93. 87. 93. 87. 87. 93. 87. 87. 93.]",244.21000075046868,None,l,1,0.5406823490684474,244.21000075046868,None,None,None,,,,,,,03__HAB,25,M,3,2021_Oct_28_1353,Partial repeat,2021.2.3,120.09760193740416,
6,5,0,1,1,2,3,3,3,1,1,0,1,1,0,0,0,25,25,25,,,,,,,,,,,,,,,,,,,,,,,,,,,,,,,,03__HAB,25,M,3,2021_Oct_28_1353,Partial repeat,2021.2.3,120.09760193740416,
8,4,0,1,1,3,2,2,2,0,1,0,1,0,0,0,0,26,26,26,0,0,0,0,,,,,,,244.76784819723616,None,0.8105483689067443,245.42560629317086,None,"[93. 87. 93. 93. 87. 93. 87. 93. 87. 93. 93. 93. 93. 87. 87. 87. 87. 93.
 93. 93. 87. 87. 87. 93. 87. 93. 87. 87. 87. 87. 93. 87. 93. 93.]",246.31654279635404,None,s,1,0.7533350809408148,246.31654279635404,None,None,None,,,,,,,03__HAB,25,M,3,2021_Oct_28_1353,Partial repeat,2021.2.3,120.09760193740416,
8,4,0,1,1,3,2,2,2,0,1,0,1,0,0,0,0,26,26,26,1,0,1,0,,,,,,,,,0.9495344387470146,247.13250189381324,None,"[93. 87. 93. 93. 87. 93. 93. 87. 87. 87. 93. 87. 87. 93. 93. 93. 93. 87.
 93. 87. 93. 93. 87. 93. 93. 87. 93. 93. 93. 93. 93. 93. 93. 87.]",248.15661507238838,None,l,1,0.5291510887855111,248.15661507238838,None,None,None,,,,,,,03__HAB,25,M,3,2021_Oct_28_1353,Partial repeat,2021.2.3,120.09760193740416,
8,4,0,1,1,3,2,2,2,0,1,0,1,0,0,0,0,26,26,26,,,,,,,,,,,,,,,,,,,,,,,,,,,,,,,,03__HAB,25,M,3,2021_Oct_28_1353,Partial repeat,2021.2.3,120.09760193740416,
1,6,0,1,1,3,3,2,3,0,0,1,0,1,0,0,0,27,27,27,0,0,0,0,,,,,,,248.7144731027056,None,0.99534090272587,249.39721800127336,None,"[93. 87. 93. 87. 93. 87. 87. 93. 87. 87. 87. 93. 87. 87. 87. 87. 93. 93.
 87. 87. 93. 93. 93. 87. 93. 87. 93. 87. 87. 87. 93. 93. 87. 87.]",250.4713076715343,None,s,1,0.6945014396151237,250.4713076715343,None,None,None,,,,,,,03__HAB,25,M,3,2021_Oct_28_1353,Partial repeat,2021.2.3,120.09760193740416,
1,6,0,1,1,3,3,2,3,0,0,1,0,1,0,0,0,27,27,27,1,0,1,0,,,,,,,,,0.9329638651331671,251.23731850011063,None,"[87. 87. 87. 87. 87. 87. 93. 93. 93. 93. 87. 87. 93. 93. 87. 93. 93. 93.
 87. 93. 87. 87. 93. 87. 87. 93. 87. 87. 93. 93. 87. 93. 87. 93.]",252.24477637597374,None,l,0,0.5373017061920109,252.24477637597374,None,252.80265108340245,None,,,,,,,03__HAB,25,M,3,2021_Oct_28_1353,Partial repeat,2021.2.3,120.09760193740416,
1,6,0,1,1,3,3,2,3,0,0,1,0,1,0,0,0,27,27,27,,,,,,,,,,,,,,,,,,,,,,,,,,,,,,,,03__HAB,25,M,3,2021_Oct_28_1353,Partial repeat,2021.2.3,120.09760193740416,
3,6,0,1,1,3,2,2,2,1,1,0,1,1,0,0,0,28,28,28,0,0,0,0,,,,,,,253.3022184406509,None,0.9414957297930242,254.76763812977697,None,"[87. 87. 93. 93. 87. 93. 93. 93. 93. 93. 87. 93. 93. 93. 87. 87. 93. 93.
 87. 93. 93. 87. 93. 87. 87. 87. 87. 93. 87. 93. 93. 87. 93. 93.]",255.78343039198262,None,l,1,0.5024436572730338,255.78343039198262,None,None,None,,,,,,,03__HAB,25,M,3,2021_Oct_28_1353,Partial repeat,2021.2.3,120.09760193740416,
3,6,0,1,1,3,2,2,2,1,1,0,1,1,0,0,0,28,28,28,1,0,1,0,,,,,,,,,0.7857157893984151,256.3496234500708,None,"[93. 87. 93. 93. 93. 87. 87. 87. 87. 93. 87. 87. 93. 87. 87. 93. 87. 93.
 93. 87. 87. 87. 87. 93. 87. 87. 93. 93. 87. 93. 87. 93. 87. 93.]",257.21554300353455,None,l,1,0.6063574545678421,257.21554300353455,None,None,None,,,,,,,03__HAB,25,M,3,2021_Oct_28_1353,Partial repeat,2021.2.3,120.09760193740416,
3,6,0,1,1,3,2,2,2,1,1,0,1,1,0,0,0,28,28,28,,,,,,,,,,,,,,,,,,,,,,,,,,,,,,,,03__HAB,25,M,3,2021_Oct_28_1353,Partial repeat,2021.2.3,120.09760193740416,
6,1,0,1,1,3,3,2,2,0,0,1,1,1,0,0,0,29,29,29,0,0,0,0,,,,,,,257.8483146175513,None,0.7831568983167427,258.40617810000185,None,"[87. 93. 93. 93. 87. 87. 87. 87. 87. 93. 87. 93. 93. 87. 93. 87. 93. 93.
 93. 93. 93. 87. 93. 93. 93. 93. 87. 87. 87. 87. 87. 93. 87. 87.]",259.2637879620761,None,s,1,0.8301578731643531,259.2637879620761,None,None,None,,,,,,,03__HAB,25,M,3,2021_Oct_28_1353,Partial repeat,2021.2.3,120.09760193740416,
6,1,0,1,1,3,3,2,2,0,0,1,1,1,0,0,0,29,29,29,1,0,1,0,,,,,,,,,0.8440462142615784,260.1546965631678,None,"[87. 87. 87. 93. 87. 87. 93. 87. 93. 87. 87. 87. 87. 93. 93. 93. 93. 87.
 87. 87. 87. 87. 93. 87. 87. 87. 93. 87. 93. 87. 87. 87. 93. 93.]",261.07889203687046,None,s,1,0.6621609930662089,261.07889203687046,None,None,None,,,,,,,03__HAB,25,M,3,2021_Oct_28_1353,Partial repeat,2021.2.3,120.09760193740416,
6,1,0,1,1,3,3,2,2,0,0,1,1,1,0,0,0,29,29,29,,,,,,,,,,,,,,,,,,,,,,,,,,,,,,,,03__HAB,25,M,3,2021_Oct_28_1353,Partial repeat,2021.2.3,120.09760193740416,
6,8,0,1,1,3,2,3,2,1,0,0,0,0,0,0,0,30,30,30,0,0,0,0,,,,,,,261.75331794335216,None,0.9904208851087579,262.4693769751939,None,"[87. 87. 87. 93. 93. 93. 93. 87. 87. 93. 87. 87. 93. 87. 87. 93. 93. 87.
 87. 87. 87. 87. 93. 87. 93. 87. 93. 87. 93. 87. 87. 87. 93. 87.]",263.535134504109,None,l,1,0.49382704289382673,263.535134504109,None,None,None,,,,,,,03__HAB,25,M,3,2021_Oct_28_1353,Partial repeat,2021.2.3,120.09760193740416,
6,8,0,1,1,3,2,3,2,1,0,0,0,0,0,0,0,30,30,30,1,0,1,0,,,,,,,,,0.894286769255775,264.09297585731474,None,"[93. 87. 93. 87. 87. 87. 93. 93. 87. 93. 87. 87. 93. 87. 93. 87. 93. 93.
 93. 87. 87. 87. 87. 93. 87. 93. 93. 87. 87. 93. 93. 93. 93. 93.]",265.06715680268826,None,s,1,0.6578781826137856,265.06715680268826,None,None,None,,,,,,,03__HAB,25,M,3,2021_Oct_28_1353,Partial repeat,2021.2.3,120.09760193740416,
6,8,0,1,1,3,2,3,2,1,0,0,0,0,0,0,0,30,30,30,,,,,,,,,,,,,,,,,,,,,,,,,,,,,,,,03__HAB,25,M,3,2021_Oct_28_1353,Partial repeat,2021.2.3,120.09760193740416,
5,8,0,1,1,3,2,2,3,0,0,0,0,1,0,0,0,31,31,31,0,0,0,0,,,,,,,265.741575332755,None,0.9147326057557731,266.4909289343377,None,"[87. 87. 93. 87. 87. 93. 87. 93. 93. 93. 87. 93. 87. 87. 93. 87. 87. 87.
 87. 93. 87. 93. 93. 87. 87. 87. 93. 87. 93. 87. 87. 87. 93. 87.]",267.4817728795533,None,l,0,0.6918225182653259,267.4817728795533,None,268.19785371992475,None,,,,,,,03__HAB,25,M,3,2021_Oct_28_1353,Partial repeat,2021.2.3,120.09760193740416,
5,8,0,1,1,3,2,2,3,0,0,0,0,1,0,0,0,31,31,31,1,0,1,0,,,,,,,,,0.9315575445462054,268.74734112325314,None,"[93. 93. 93. 87. 87. 93. 93. 87. 87. 87. 93. 87. 87. 93. 87. 93. 93. 87.
 93. 93. 87. 87. 93. 87. 93. 93. 87. 93. 87. 93. 87. 93. 93. 93.]",269.75482273192756,None,s,1,0.6903228611081431,269.75482273192756,None,None,None,,,,,,,03__HAB,25,M,3,2021_Oct_28_1353,Partial repeat,2021.2.3,120.09760193740416,
5,8,0,1,1,3,2,2,3,0,0,0,0,1,0,0,0,31,31,31,,,,,,,,,,,,,,,,,,,,,,,,,,,,,,,,03__HAB,25,M,3,2021_Oct_28_1353,Partial repeat,2021.2.3,120.09760193740416,
7,8,0,1,1,3,3,3,2,0,0,1,0,1,0,0,0,32,32,32,0,0,0,0,,,,,,,270.46252653103875,None,0.9518851827867452,271.03703056337145,None,"[87. 87. 87. 87. 87. 87. 93. 87. 93. 93. 93. 93. 87. 87. 87. 93. 87. 87.
 87. 93. 93. 87. 93. 93. 93. 93. 93. 87. 87. 93. 87. 93. 93. 87.]",272.0695089168021,None,s,1,0.7756416793672543,272.0695089168021,None,None,None,,,,,,,03__HAB,25,M,3,2021_Oct_28_1353,Partial repeat,2021.2.3,120.09760193740416,
7,8,0,1,1,3,3,3,2,0,0,1,0,1,0,0,0,32,32,32,1,0,1,0,,,,,,,,,0.9563451708654431,272.9187750918354,None,"[87. 93. 93. 87. 93. 87. 93. 87. 87. 87. 87. 87. 87. 87. 93. 93. 87. 87.
 93. 87. 93. 87. 93. 87. 93. 93. 87. 87. 93. 93. 87. 87. 93. 93.]",273.9512306745946,None,s,1,0.6539580993321579,273.9512306745946,None,None,None,,,,,,,03__HAB,25,M,3,2021_Oct_28_1353,Partial repeat,2021.2.3,120.09760193740416,
7,8,0,1,1,3,3,3,2,0,0,1,0,1,0,0,0,32,32,32,,,,,,,,,,,,,,,,,,,,,,,,,,,,,,,,03__HAB,25,M,3,2021_Oct_28_1353,Partial repeat,2021.2.3,120.09760193740416,
5,1,0,1,1,3,3,2,2,0,1,1,1,0,0,0,0,33,33,33,0,0,0,0,,,,,,,274.6256488839481,None,0.7523031195159516,276.35749568800384,None,"[93. 87. 87. 93. 93. 87. 93. 93. 87. 87. 93. 87. 87. 93. 87. 87. 87. 93.
 93. 87. 93. 93. 93. 93. 87. 87. 87. 93. 93. 87. 93. 93. 87. 93.]",277.1901181060184,None,s,1,1.0624905584409134,277.1901181060184,None,None,None,,,,,,,03__HAB,25,M,3,2021_Oct_28_1353,Partial repeat,2021.2.3,120.09760193740416,
5,1,0,1,1,3,3,2,2,0,1,1,1,0,0,0,0,33,33,33,1,0,1,0,,,,,,,,,0.757413360350022,278.3224888279383,None,"[87. 93. 87. 93. 93. 87. 93. 93. 87. 93. 93. 93. 87. 93. 93. 93. 93. 93.
 93. 87. 87. 93. 87. 87. 93. 87. 93. 93. 87. 93. 93. 93. 87. 93.]",279.1551029073962,None,l,1,0.6331405745095253,279.1551029073962,None,None,None,,,,,,,03__HAB,25,M,3,2021_Oct_28_1353,Partial repeat,2021.2.3,120.09760193740416,
5,1,0,1,1,3,3,2,2,0,1,1,1,0,0,0,0,33,33,33,,,,,,,,,,,,,,,,,,,,,,,,,,,,,,,,03__HAB,25,M,3,2021_Oct_28_1353,Partial repeat,2021.2.3,120.09760193740416,
6,7,0,1,1,2,2,3,2,0,1,1,0,0,0,0,0,34,34,34,0,0,0,0,,,,,,,279.81288088758083,None,0.7149208507411782,280.4290273459719,None,"[93. 93. 87. 93. 93. 93. 87. 93. 93. 93. 87. 87. 87. 87. 87. 87. 93. 93.
 93. 87. 93. 93. 93. 87. 93. 93. 93. 93. 87. 87. 93. 87. 93. 87.]",281.2200031686498,None,s,1,0.9842710581506253,281.2200031686498,None,None,None,,,,,,,03__HAB,25,M,3,2021_Oct_28_1353,Partial repeat,2021.2.3,120.09760193740416,
6,7,0,1,1,2,2,3,2,0,1,1,0,0,0,0,0,34,34,34,1,0,1,0,,,,,,,,,0.9786501664500634,282.26911726125763,None,"[93. 93. 87. 93. 93. 93. 87. 93. 87. 87. 87. 93. 93. 93. 87. 87. 87. 93.
 87. 93. 93. 93. 87. 87. 93. 87. 87. 87. 87. 87. 87. 93. 87. 93.]",283.32654778024335,None,l,1,0.5580922910648951,283.32654778024335,None,None,None,,,,,,,03__HAB,25,M,3,2021_Oct_28_1353,Partial repeat,2021.2.3,120.09760193740416,
6,7,0,1,1,2,2,3,2,0,1,1,0,0,0,0,0,34,34,34,,,,,,,,,,,,,,,,,,,,,,,,,,,,,,,,03__HAB,25,M,3,2021_Oct_28_1353,Partial repeat,2021.2.3,120.09760193740416,
2,1,0,1,1,2,2,3,2,1,1,1,0,1,0,0,0,35,35,35,0,0,0,0,,,,,,,283.89272640621675,None,0.7481206752581057,284.44223754235827,None,"[87. 87. 93. 93. 87. 87. 87. 93. 93. 93. 93. 87. 87. 87. 87. 87. 93. 87.
 93. 87. 87. 87. 87. 93. 87. 93. 93. 93. 87. 93. 87. 87. 93. 87.]",285.26655315540484,None,l,1,0.6185686278477078,285.26655315540484,None,None,None,,,,,,,03__HAB,25,M,3,2021_Oct_28_1353,Partial repeat,2021.2.3,120.09760193740416,
2,1,0,1,1,2,2,3,2,1,1,1,0,1,0,0,0,35,35,35,1,0,1,0,,,,,,,,,0.8838352849644244,285.9492816975744,None,"[87. 87. 87. 93. 87. 87. 87. 93. 87. 93. 93. 93. 93. 87. 93. 93. 87. 87.
 93. 87. 87. 93. 87. 93. 93. 87. 93. 87. 93. 87. 93. 93. 87. 93.]",286.9151324258837,None,l,1,0.681256926865899,286.9151324258837,None,None,None,,,,,,,03__HAB,25,M,3,2021_Oct_28_1353,Partial repeat,2021.2.3,120.09760193740416,
2,1,0,1,1,2,2,3,2,1,1,1,0,1,0,0,0,35,35,35,,,,,,,,,,,,,,,,,,,,,,,,,,,,,,,,03__HAB,25,M,3,2021_Oct_28_1353,Partial repeat,2021.2.3,120.09760193740416,
6,2,0,1,1,2,2,2,2,1,0,1,1,0,0,0,0,36,36,36,0,0,0,0,,,,,,,287.6145300614553,None,0.7808494183661164,288.36389745372435,None,"[93. 87. 87. 87. 93. 93. 87. 87. 87. 87. 93. 87. 93. 87. 87. 93. 87. 87.
 87. 93. 87. 93. 87. 93. 87. 87. 93. 87. 87. 87. 87. 93. 93. 87.]",289.2214861486955,None,l,1,0.5669164071932755,289.2214861486955,None,None,None,,,,,,,03__HAB,25,M,3,2021_Oct_28_1353,Partial repeat,2021.2.3,120.09760193740416,
6,2,0,1,1,2,2,2,2,1,0,1,1,0,0,0,0,36,36,36,1,0,1,0,,,,,,,,,0.9935393877574633,289.85427989195705,None,"[87. 87. 87. 87. 93. 93. 93. 93. 93. 93. 93. 87. 87. 87. 87. 93. 87. 87.
 93. 93. 87. 93. 87. 87. 93. 87. 87. 87. 93. 93. 87. 87. 87. 93.]",290.92835929938155,None,s,1,0.9874175800450757,290.92835929938155,None,None,None,,,,,,,03__HAB,25,M,3,2021_Oct_28_1353,Partial repeat,2021.2.3,120.09760193740416,
6,2,0,1,1,2,2,2,2,1,0,1,1,0,0,0,0,36,36,36,,,,,,,,,,,,,,,,,,,,,,,,,,,,,,,,03__HAB,25,M,3,2021_Oct_28_1353,Partial repeat,2021.2.3,120.09760193740416,
4,5,0,1,1,3,2,2,2,1,0,0,1,0,0,0,0,37,37,37,0,0,0,0,,,,,,,291.9358441151926,None,0.7693750077274881,293.0931968290388,None,"[93. 87. 87. 87. 93. 93. 87. 87. 93. 87. 93. 93. 87. 93. 93. 93. 87. 87.
 93. 93. 87. 93. 87. 93. 93. 93. 93. 87. 87. 87. 93. 93. 87. 87.]",293.9424511376674,None,l,1,0.5970593236233981,293.9424511376674,None,None,None,,,,,,,03__HAB,25,M,3,2021_Oct_28_1353,Partial repeat,2021.2.3,120.09760193740416,
4,5,0,1,1,3,2,2,2,1,0,0,1,0,0,0,0,37,37,37,1,0,1,0,,,,,,,,,0.8693272139272084,294.6085631834794,None,"[87. 93. 93. 93. 87. 87. 87. 87. 93. 93. 93. 87. 87. 93. 93. 93. 87. 87.
 87. 87. 93. 87. 87. 87. 87. 87. 93. 93. 87. 87. 87. 87. 87. 87.]",295.5577531569452,None,s,1,2.62980579368741,295.5577531569452,None,None,None,,,,,,,03__HAB,25,M,3,2021_Oct_28_1353,Partial repeat,2021.2.3,120.09760193740416,
4,5,0,1,1,3,2,2,2,1,0,0,1,0,0,0,0,37,37,37,,,,,,,,,,,,,,,,,,,,,,,,,,,,,,,,03__HAB,25,M,3,2021_Oct_28_1353,Partial repeat,2021.2.3,120.09760193740416,
4,1,0,1,1,2,3,2,2,0,0,0,1,1,0,0,0,38,38,38,0,0,0,0,,,,,,,298.2054761219042,None,0.8414209887040435,300.17046958255196,None,"[93. 87. 93. 87. 87. 93. 93. 93. 93. 93. 93. 93. 93. 87. 93. 93. 87. 93.
 93. 87. 87. 87. 87. 87. 87. 87. 93. 87. 93. 93. 93. 87. 93. 93.]",301.0863630619933,None,s,1,0.7022492406413221,301.0863630619933,None,None,None,,,,,,,03__HAB,25,M,3,2021_Oct_28_1353,Partial repeat,2021.2.3,120.09760193740416,
4,1,0,1,1,2,3,2,2,0,0,0,1,1,0,0,0,38,38,38,1,0,1,0,,,,,,,,,0.8631563854085734,301.8606909583759,None,"[87. 93. 87. 87. 87. 87. 93. 93. 87. 93. 87. 87. 87. 87. 87. 87. 93. 93.
 93. 93. 87. 87. 87. 87. 93. 87. 87. 93. 93. 87. 87. 87. 93. 93.]",302.8015404519356,None,s,1,1.3061081958967407,302.8015404519356,None,None,None,,,,,,,03__HAB,25,M,3,2021_Oct_28_1353,Partial repeat,2021.2.3,120.09760193740416,
4,1,0,1,1,2,3,2,2,0,0,0,1,1,0,0,0,38,38,38,,,,,,,,,,,,,,,,,,,,,,,,,,,,,,,,03__HAB,25,M,3,2021_Oct_28_1353,Partial repeat,2021.2.3,120.09760193740416,
4,6,0,1,1,2,2,2,3,0,0,1,0,1,0,0,0,39,39,39,0,0,0,0,,,,,,,304.12542630865573,None,0.8608097062856929,305.11623561679335,None,"[93. 87. 93. 93. 93. 93. 87. 87. 93. 87. 93. 87. 87. 87. 87. 93. 93. 87.
 93. 87. 93. 87. 87. 93. 87. 87. 87. 87. 87. 93. 87. 87. 93. 93.]",306.0571072395978,None,s,1,1.1065912548383494,306.0571072395978,None,None,None,,,,,,,03__HAB,25,M,3,2021_Oct_28_1353,Partial repeat,2021.2.3,120.09760193740416,
4,6,0,1,1,2,2,2,3,0,0,1,0,1,0,0,0,39,39,39,1,0,1,0,,,,,,,,,0.9906510484797033,307.2310899197764,None,"[93. 93. 87. 93. 87. 93. 93. 93. 87. 87. 87. 87. 93. 93. 93. 87. 93. 93.
 87. 87. 87. 87. 93. 87. 93. 87. 87. 87. 93. 93. 87. 87. 87. 93.]",308.2968596358096,None,s,1,1.1860560863387946,308.2968596358096,None,None,None,,,,,,,03__HAB,25,M,3,2021_Oct_28_1353,Partial repeat,2021.2.3,120.09760193740416,
4,6,0,1,1,2,2,2,3,0,0,1,0,1,0,0,0,39,39,39,,,,,,,,,,,,,,,,,,,,,,,,,,,,,,,,03__HAB,25,M,3,2021_Oct_28_1353,Partial repeat,2021.2.3,120.09760193740416,
2,7,0,1,1,2,3,2,3,0,1,0,0,0,0,0,0,40,40,40,0,0,0,0,,,,,,,309.5124853834732,None,0.939520053451198,310.02868783847225,None,"[93. 87. 93. 93. 87. 87. 93. 87. 93. 87. 87. 87. 87. 87. 93. 87. 93. 93.
 87. 93. 93. 87. 93. 93. 93. 93. 87. 93. 87. 87. 93. 93. 87. 93.]",311.04450992704915,None,s,1,0.5982809220204217,311.04450992704915,None,None,None,,,,,,,03__HAB,25,M,3,2021_Oct_28_1353,Partial repeat,2021.2.3,120.09760193740416,
2,7,0,1,1,2,3,2,3,0,1,0,0,0,0,0,0,40,40,40,1,0,1,0,,,,,,,,,0.9875698554805228,311.70226385370734,None,"[93. 87. 93. 87. 93. 93. 93. 87. 93. 87. 93. 93. 93. 87. 87. 93. 93. 93.
 93. 87. 93. 87. 87. 87. 93. 93. 93. 93. 87. 87. 87. 93. 87. 93.]",312.768029400464,None,l,1,0.8757284003459063,312.768029400464,None,None,None,,,,,,,03__HAB,25,M,3,2021_Oct_28_1353,Partial repeat,2021.2.3,120.09760193740416,
2,7,0,1,1,2,3,2,3,0,1,0,0,0,0,0,0,40,40,40,,,,,,,,,,,,,,,,,,,,,,,,,,,,,,,,03__HAB,25,M,3,2021_Oct_28_1353,Partial repeat,2021.2.3,120.09760193740416,
3,2,0,1,1,2,2,2,2,0,0,1,1,1,0,0,0,41,41,41,0,0,0,0,,,,,,,313.6755884935628,None,0.8158292973532656,314.24175493241455,None,"[87. 93. 87. 87. 93. 87. 87. 93. 87. 87. 93. 93. 93. 93. 93. 87. 93. 93.
 93. 87. 93. 93. 87. 87. 87. 93. 87. 87. 87. 93. 87. 87. 93. 87.]",315.13267764490956,None,s,1,0.6061368035570922,315.13267764490956,None,None,None,,,,,,,03__HAB,25,M,3,2021_Oct_28_1353,Partial repeat,2021.2.3,120.09760193740416,
3,2,0,1,1,2,2,2,2,0,0,1,1,1,0,0,0,41,41,41,1,0,1,0,,,,,,,,,0.7314473170769169,315.7987470358039,None,"[87. 93. 93. 87. 93. 93. 87. 93. 87. 93. 87. 87. 93. 93. 93. 93. 93. 93.
 87. 93. 93. 93. 93. 87. 87. 87. 87. 87. 93. 87. 93. 87. 93. 87.]",316.6064131189851,None,s,1,0.9244262066004012,316.6064131189851,None,None,None,,,,,,,03__HAB,25,M,3,2021_Oct_28_1353,Partial repeat,2021.2.3,120.09760193740416,
3,2,0,1,1,2,2,2,2,0,0,1,1,1,0,0,0,41,41,41,,,,,,,,,,,,,,,,,,,,,,,,,,,,,,,,03__HAB,25,M,3,2021_Oct_28_1353,Partial repeat,2021.2.3,120.09760193740416,
7,3,0,1,1,3,2,2,3,1,1,0,0,1,0,0,0,42,42,42,0,0,0,0,,,,,,,317.5472574811265,None,0.9869737340478807,318.3715920162813,None,"[93. 87. 87. 87. 93. 93. 93. 87. 93. 93. 87. 87. 93. 87. 93. 93. 93. 87.
 87. 87. 87. 93. 93. 93. 87. 87. 87. 93. 87. 87. 87. 93. 93. 87.]",319.43732485024157,None,l,1,0.6695688375930331,319.43732485024157,None,None,None,,,,,,,03__HAB,25,M,3,2021_Oct_28_1353,Partial repeat,2021.2.3,120.09760193740416,
7,3,0,1,1,3,2,2,3,1,1,0,0,1,0,0,0,42,42,42,1,0,1,0,,,,,,,,,0.8081233251209443,320.17835015904166,None,"[87. 87. 87. 87. 87. 87. 93. 93. 93. 93. 87. 93. 93. 87. 87. 93. 93. 93.
 93. 87. 87. 93. 87. 93. 93. 93. 93. 93. 87. 93. 93. 87. 87. 93.]",321.0609227702207,None,l,1,0.5030109997696854,321.0609227702207,None,None,None,,,,,,,03__HAB,25,M,3,2021_Oct_28_1353,Partial repeat,2021.2.3,120.09760193740416,
7,3,0,1,1,3,2,2,3,1,1,0,0,1,0,0,0,42,42,42,,,,,,,,,,,,,,,,,,,,,,,,,,,,,,,,03__HAB,25,M,3,2021_Oct_28_1353,Partial repeat,2021.2.3,120.09760193740416,
8,2,0,1,1,3,3,3,3,0,0,1,1,1,0,0,0,43,43,43,0,0,0,0,,,,,,,321.5854904000771,None,0.8619711750323442,322.08505358804723,None,"[87. 93. 87. 93. 87. 93. 87. 93. 87. 87. 87. 93. 93. 87. 87. 87. 93. 93.
 93. 87. 93. 93. 93. 87. 93. 93. 93. 87. 93. 87. 87. 87. 93. 87.]",323.02591109945024,None,s,1,0.6321460413928435,323.02591109945024,None,None,None,,,,,,,03__HAB,25,M,3,2021_Oct_28_1353,Partial repeat,2021.2.3,120.09760193740416,
8,2,0,1,1,3,3,3,3,0,0,1,1,1,0,0,0,43,43,43,1,0,1,0,,,,,,,,,0.8909741258781185,323.716982366519,None,"[87. 87. 87. 93. 93. 87. 87. 87. 87. 87. 93. 87. 93. 93. 87. 93. 93. 87.
 93. 93. 87. 87. 93. 93. 93. 87. 87. 87. 93. 93. 93. 87. 93. 93.]",324.6828430369533,None,s,1,0.7351650475284259,324.6828430369533,None,None,None,,,,,,,03__HAB,25,M,3,2021_Oct_28_1353,Partial repeat,2021.2.3,120.09760193740416,
8,2,0,1,1,3,3,3,3,0,0,1,1,1,0,0,0,43,43,43,,,,,,,,,,,,,,,,,,,,,,,,,,,,,,,,03__HAB,25,M,3,2021_Oct_28_1353,Partial repeat,2021.2.3,120.09760193740416,
1,3,0,1,1,2,3,3,2,0,1,0,0,0,0,0,0,44,44,44,0,0,0,0,,,,,,,325.44886412836604,None,0.7926320819499538,325.9983797544992,None,"[93. 93. 87. 87. 93. 87. 87. 87. 87. 87. 87. 87. 93. 87. 87. 87. 93. 87.
 93. 87. 93. 87. 87. 87. 87. 93. 93. 93. 93. 93. 93. 93. 87. 87.]",326.87262984574227,None,s,1,1.0414709840024443,326.87262984574227,None,None,None,,,,,,,03__HAB,25,M,3,2021_Oct_28_1353,Partial repeat,2021.2.3,120.09760193740416,
1,3,0,1,1,2,3,3,2,0,1,0,0,0,0,0,0,44,44,44,1,0,1,0,,,,,,,,,0.9682503635655584,327.9883423785268,None,"[93. 93. 87. 93. 87. 87. 87. 93. 87. 87. 93. 93. 93. 93. 93. 87. 93. 93.
 87. 87. 87. 93. 93. 87. 87. 93. 93. 87. 93. 87. 93. 87. 93. 87.]",329.03745518828146,None,l,1,3.180641477318204,329.03745518828146,None,None,None,,,,,,,03__HAB,25,M,3,2021_Oct_28_1353,Partial repeat,2021.2.3,120.09760193740416,
1,3,0,1,1,2,3,3,2,0,1,0,0,0,0,0,0,44,44,44,,,,,,,,,,,,,,,,,,,,,,,,,,,,,,,,03__HAB,25,M,3,2021_Oct_28_1353,Partial repeat,2021.2.3,120.09760193740416,
2,3,0,1,1,3,3,3,2,1,0,1,0,0,0,0,0,45,45,45,0,0,0,0,,,,,,,332.2347053250651,None,0.9716977860581817,332.80089838315325,None,"[87. 93. 87. 93. 87. 93. 87. 93. 93. 93. 93. 93. 87. 93. 87. 93. 87. 93.
 87. 93. 87. 93. 87. 93. 93. 87. 87. 93. 87. 87. 87. 93. 93. 93.]",333.8499881015214,None,l,1,0.8481473447736789,333.8499881015214,None,None,None,,,,,,,03__HAB,25,M,3,2021_Oct_28_1353,Partial repeat,2021.2.3,120.09760193740416,
2,3,0,1,1,3,3,3,2,1,0,1,0,0,0,0,0,45,45,45,1,0,1,0,,,,,,,,,0.9328205975712343,334.7575487981885,None,"[87. 87. 87. 87. 93. 93. 87. 93. 87. 87. 87. 93. 87. 87. 87. 87. 87. 93.
 87. 87. 87. 93. 87. 93. 93. 93. 93. 93. 93. 93. 93. 93. 93. 87.]",335.7650275204396,None,s,1,0.7251443486675271,335.7650275204396,None,None,None,,,,,,,03__HAB,25,M,3,2021_Oct_28_1353,Partial repeat,2021.2.3,120.09760193740416,
2,3,0,1,1,3,3,3,2,1,0,1,0,0,0,0,0,45,45,45,,,,,,,,,,,,,,,,,,,,,,,,,,,,,,,,03__HAB,25,M,3,2021_Oct_28_1353,Partial repeat,2021.2.3,120.09760193740416,
2,8,0,1,1,2,2,2,2,0,1,1,1,0,0,0,0,46,46,46,0,0,0,0,,,,,,,336.5143830463039,None,0.888674468620724,339.0455461529418,None,"[93. 87. 93. 87. 87. 87. 93. 87. 93. 87. 93. 87. 93. 93. 87. 93. 87. 87.
 87. 93. 93. 93. 87. 87. 93. 93. 87. 87. 93. 87. 87. 87. 87. 87.]",340.01138084556806,None,s,1,0.5898775822370226,340.01138084556806,None,None,None,,,,,,,03__HAB,25,M,3,2021_Oct_28_1353,Partial repeat,2021.2.3,120.09760193740416,
2,8,0,1,1,2,2,2,2,0,1,1,1,0,0,0,0,46,46,46,1,0,1,0,,,,,,,,,0.8055342127936264,340.6691447143494,None,"[87. 93. 93. 87. 93. 93. 93. 93. 93. 93. 93. 93. 87. 93. 87. 93. 87. 93.
 87. 87. 93. 87. 93. 87. 87. 87. 93. 93. 87. 93. 87. 87. 93. 87.]",341.5517439447649,None,l,1,1.0815069552500063,341.5517439447649,None,None,None,,,,,,,03__HAB,25,M,3,2021_Oct_28_1353,Partial repeat,2021.2.3,120.09760193740416,
2,8,0,1,1,2,2,2,2,0,1,1,1,0,0,0,0,46,46,46,,,,,,,,,,,,,,,,,,,,,,,,,,,,,,,,03__HAB,25,M,3,2021_Oct_28_1353,Partial repeat,2021.2.3,120.09760193740416,
4,4,0,1,1,2,3,3,2,1,1,0,0,1,0,0,0,47,47,47,0,0,0,0,,,,,,,342.6508223419405,None,0.9660944767227817,345.32350228315954,None,"[93. 87. 87. 87. 93. 87. 87. 87. 87. 93. 93. 93. 93. 93. 87. 87. 87. 93.
 93. 87. 93. 93. 93. 93. 87. 93. 93. 93. 93. 87. 87. 87. 87. 93.]",346.36428359299316,None,l,1,0.5415877237810491,346.36428359299316,None,None,None,,,,,,,03__HAB,25,M,3,2021_Oct_28_1353,Partial repeat,2021.2.3,120.09760193740416,
4,4,0,1,1,2,3,3,2,1,1,0,0,1,0,0,0,47,47,47,1,0,1,0,,,,,,,,,0.9449659795201206,346.95545158730783,None,"[87. 93. 87. 87. 93. 93. 93. 87. 87. 87. 87. 87. 93. 87. 87. 93. 87. 87.
 93. 87. 93. 93. 87. 93. 87. 93. 93. 93. 93. 93. 93. 93. 93. 87.]",347.9795737458644,None,l,1,0.6857607090423699,347.9795737458644,None,None,None,,,,,,,03__HAB,25,M,3,2021_Oct_28_1353,Partial repeat,2021.2.3,120.09760193740416,
4,4,0,1,1,2,3,3,2,1,1,0,0,1,0,0,0,47,47,47,,,,,,,,,,,,,,,,,,,,,,,,,,,,,,,,03__HAB,25,M,3,2021_Oct_28_1353,Partial repeat,2021.2.3,120.09760193740416,
3,8,0,1,1,2,3,2,3,0,0,0,0,1,0,0,0,48,48,48,0,0,0,0,,,,,,,348.6956305327112,None,0.9327368313050933,349.3367304395124,None,"[87. 93. 93. 93. 87. 93. 93. 87. 93. 87. 93. 93. 87. 87. 93. 93. 93. 93.
 87. 93. 93. 93. 93. 87. 93. 87. 93. 93. 87. 93. 93. 93. 93. 87.]",350.34422455602,None,s,1,0.6572056460299791,350.34422455602,None,None,None,,,,,,,03__HAB,25,M,3,2021_Oct_28_1353,Partial repeat,2021.2.3,120.09760193740416,
3,8,0,1,1,2,3,2,3,0,0,0,0,1,0,0,0,48,48,48,1,0,1,0,,,,,,,,,0.7066795081789642,351.06859616567453,None,"[87. 87. 93. 87. 87. 87. 87. 87. 87. 87. 87. 93. 87. 87. 93. 93. 87. 93.
 93. 87. 87. 87. 87. 93. 87. 87. 87. 87. 87. 93. 93. 93. 93. 87.]",351.8595828926191,None,s,1,0.7746288655744138,351.8595828926191,None,None,None,,,,,,,03__HAB,25,M,3,2021_Oct_28_1353,Partial repeat,2021.2.3,120.09760193740416,
3,8,0,1,1,2,3,2,3,0,0,0,0,1,0,0,0,48,48,48,,,,,,,,,,,,,,,,,,,,,,,,,,,,,,,,03__HAB,25,M,3,2021_Oct_28_1353,Partial repeat,2021.2.3,120.09760193740416,
7,2,0,1,1,2,2,2,3,0,1,1,0,0,0,0,0,49,49,49,0,0,0,0,,,,,,,352.6505840516784,None,0.8726176875970837,353.22509834684934,None,"[93. 93. 87. 87. 87. 93. 87. 93. 87. 87. 93. 93. 87. 93. 87. 93. 87. 93.
 87. 87. 87. 87. 93. 93. 93. 93. 93. 93. 87. 93. 93. 93. 87. 87.]",354.1742716432018,None,s,1,0.6823377319597057,354.1742716432018,None,None,None,,,,,,,03__HAB,25,M,3,2021_Oct_28_1353,Partial repeat,2021.2.3,120.09760193740416,
7,2,0,1,1,2,2,2,3,0,1,1,0,0,0,0,0,49,49,49,1,0,1,0,,,,,,,,,0.7768082104696271,354.92363679047594,None,"[87. 87. 93. 93. 93. 87. 87. 93. 87. 93. 87. 87. 93. 87. 87. 87. 93. 93.
 93. 93. 93. 93. 93. 87. 87. 87. 87. 87. 87. 93. 93. 93. 93. 93.]",355.7812344654303,None,l,1,0.6912801914368174,355.7812344654303,None,None,None,,,,,,,03__HAB,25,M,3,2021_Oct_28_1353,Partial repeat,2021.2.3,120.09760193740416,
7,2,0,1,1,2,2,2,3,0,1,1,0,0,0,0,0,49,49,49,,,,,,,,,,,,,,,,,,,,,,,,,,,,,,,,03__HAB,25,M,3,2021_Oct_28_1353,Partial repeat,2021.2.3,120.09760193740416,
7,6,0,1,1,2,2,3,3,0,1,1,1,0,0,0,0,50,50,50,0,0,0,0,,,,,,,356.48066288951486,None,0.7137039815059986,360.08588359504574,None,"[93. 93. 87. 87. 93. 93. 87. 87. 93. 93. 87. 93. 93. 87. 87. 93. 87. 93.
 87. 93. 93. 93. 87. 93. 93. 87. 87. 93. 93. 87. 87. 93. 93. 87.]",360.88522908257255,None,s,1,0.6273234698219312,360.88522908257255,None,None,None,,,,,,,03__HAB,25,M,3,2021_Oct_28_1353,Partial repeat,2021.2.3,120.09760193740416,
7,6,0,1,1,2,2,3,3,0,1,1,1,0,0,0,0,50,50,50,1,0,1,0,,,,,,,,,0.88187964847451,361.5762778996832,None,"[93. 87. 87. 93. 87. 87. 87. 93. 93. 93. 87. 93. 93. 87. 93. 87. 93. 87.
 87. 93. 87. 93. 87. 87. 93. 93. 93. 93. 87. 87. 93. 93. 93. 87.]",362.5421154787309,None,l,1,0.5864356830479664,362.5421154787309,None,None,None,,,,,,,03__HAB,25,M,3,2021_Oct_28_1353,Partial repeat,2021.2.3,120.09760193740416,
7,6,0,1,1,2,2,3,3,0,1,1,1,0,0,0,0,50,50,50,,,,,,,,,,,,,,,,,,,,,,,,,,,,,,,,03__HAB,25,M,3,2021_Oct_28_1353,Partial repeat,2021.2.3,120.09760193740416,
4,7,0,1,1,2,3,2,2,0,1,0,1,0,0,0,0,51,51,51,0,0,0,0,,,,,,,363.1499301164895,None,0.7752723541548221,363.6828128898669,None,"[87. 93. 87. 87. 87. 93. 87. 87. 87. 87. 87. 93. 87. 93. 87. 87. 93. 93.
 87. 93. 93. 87. 93. 87. 87. 87. 93. 93. 93. 87. 93. 87. 87. 87.]",364.53208355489187,None,s,1,1.588553996889459,364.53208355489187,None,None,None,,,,,,,03__HAB,25,M,3,2021_Oct_28_1353,Partial repeat,2021.2.3,120.09760193740416,
4,7,0,1,1,2,3,2,2,0,1,0,1,0,0,0,0,51,51,51,1,0,1,0,,,,,,,,,0.8147961595265432,366.18900330527504,None,"[93. 93. 93. 93. 87. 93. 93. 87. 93. 87. 87. 93. 93. 87. 93. 87. 93. 93.
 93. 93. 87. 87. 87. 87. 87. 87. 93. 93. 87. 93. 87. 93. 87. 87.]",367.0882302570262,None,l,1,0.7124110535205546,367.0882302570262,None,None,None,,,,,,,03__HAB,25,M,3,2021_Oct_28_1353,Partial repeat,2021.2.3,120.09760193740416,
4,7,0,1,1,2,3,2,2,0,1,0,1,0,0,0,0,51,51,51,,,,,,,,,,,,,,,,,,,,,,,,,,,,,,,,03__HAB,25,M,3,2021_Oct_28_1353,Partial repeat,2021.2.3,120.09760193740416,
5,5,0,1,1,2,3,2,2,1,1,0,1,1,0,0,0,52,52,52,0,0,0,0,,,,,,,367.82926550794946,None,0.9699049482279866,368.5703180774108,None,"[93. 93. 93. 93. 87. 87. 87. 93. 93. 93. 87. 87. 87. 93. 87. 93. 93. 93.
 87. 93. 93. 87. 93. 87. 93. 87. 93. 87. 93. 93. 87. 87. 93. 93.]",369.61939560865903,None,l,1,0.5496376370938378,369.61939560865903,None,None,None,,,,,,,03__HAB,25,M,3,2021_Oct_28_1353,Partial repeat,2021.2.3,120.09760193740416,
5,5,0,1,1,2,3,2,2,1,1,0,1,1,0,0,0,52,52,52,1,0,1,0,,,,,,,,,0.8159604561591662,370.22720319071595,None,"[93. 93. 87. 93. 87. 93. 93. 93. 93. 93. 87. 87. 93. 87. 93. 93. 87. 93.
 87. 87. 87. 93. 93. 93. 93. 93. 87. 87. 87. 87. 93. 93. 93. 87.]",371.12645547884676,None,l,1,0.5453496952213754,371.12645547884676,None,None,None,,,,,,,03__HAB,25,M,3,2021_Oct_28_1353,Partial repeat,2021.2.3,120.09760193740416,
5,5,0,1,1,2,3,2,2,1,1,0,1,1,0,0,0,52,52,52,,,,,,,,,,,,,,,,,,,,,,,,,,,,,,,,03__HAB,25,M,3,2021_Oct_28_1353,Partial repeat,2021.2.3,120.09760193740416,
5,6,0,1,1,3,3,3,3,1,1,1,1,1,0,0,0,53,53,53,0,0,0,0,,,,,,,371.692620314132,None,0.8525929458333975,372.1672175458589,None,"[93. 93. 87. 87. 93. 93. 93. 87. 87. 93. 87. 93. 93. 93. 87. 93. 93. 93.
 87. 93. 87. 93. 93. 93. 87. 87. 87. 87. 87. 93. 93. 93. 93. 87.]",373.1080773022586,None,l,1,0.5637394175028021,373.1080773022586,None,None,None,,,,,,,03__HAB,25,M,3,2021_Oct_28_1353,Partial repeat,2021.2.3,120.09760193740416,
5,6,0,1,1,3,3,3,3,1,1,1,1,1,0,0,0,53,53,53,1,0,1,0,,,,,,,,,0.8151214180139337,373.73255878842065,None,"[93. 87. 93. 93. 93. 93. 87. 93. 93. 93. 93. 87. 93. 87. 87. 93. 93. 87.
 87. 87. 93. 93. 87. 93. 93. 93. 87. 93. 93. 87. 93. 87. 93. 87.]",374.62346129595244,None,l,1,1.3843661818282271,374.62346129595244,None,None,None,,,,,,,03__HAB,25,M,3,2021_Oct_28_1353,Partial repeat,2021.2.3,120.09760193740416,
5,6,0,1,1,3,3,3,3,1,1,1,1,1,0,0,0,53,53,53,,,,,,,,,,,,,,,,,,,,,,,,,,,,,,,,03__HAB,25,M,3,2021_Oct_28_1353,Partial repeat,2021.2.3,120.09760193740416,
1,1,0,1,1,2,2,3,2,0,0,1,0,1,0,0,0,54,54,54,0,0,0,0,,,,,,,376.03059255700464,None,0.9304185391753379,378.1787292426088,None,"[93. 93. 87. 87. 87. 93. 93. 87. 87. 87. 93. 93. 87. 93. 87. 87. 93. 87.
 87. 87. 87. 93. 87. 93. 93. 93. 93. 93. 87. 87. 93. 87. 93. 87.]",379.18622784910804,None,s,1,0.7423669938762032,379.18622784910804,None,None,None,,,,,,,03__HAB,25,M,3,2021_Oct_28_1353,Partial repeat,2021.2.3,120.09760193740416,
1,1,0,1,1,2,2,3,2,0,0,1,0,1,0,0,0,54,54,54,1,0,1,0,,,,,,,,,0.9780771476208207,380.0021741180208,None,"[87. 93. 93. 87. 87. 93. 87. 87. 93. 93. 87. 87. 93. 87. 93. 87. 93. 87.
 93. 93. 93. 87. 93. 87. 87. 87. 93. 87. 93. 87. 93. 93. 93. 87.]",381.067937740494,None,s,1,1.307948450979893,381.067937740494,None,None,None,,,,,,,03__HAB,25,M,3,2021_Oct_28_1353,Partial repeat,2021.2.3,120.09760193740416,
1,1,0,1,1,2,2,3,2,0,0,1,0,1,0,0,0,54,54,54,,,,,,,,,,,,,,,,,,,,,,,,,,,,,,,,03__HAB,25,M,3,2021_Oct_28_1353,Partial repeat,2021.2.3,120.09760193740416,
2,4,0,1,1,2,2,3,2,1,0,1,0,0,0,0,0,55,55,55,0,0,0,0,,,,,,,382.39179922297444,None,0.930571005514534,383.88220314902355,None,"[87. 87. 93. 87. 87. 87. 93. 93. 87. 87. 87. 93. 87. 87. 93. 87. 93. 87.
 93. 93. 93. 93. 93. 93. 87. 87. 87. 93. 87. 93. 87. 93. 87. 93.]",384.8979976562241,None,l,1,0.7410309006936586,384.8979976562241,None,None,None,,,,,,,03__HAB,25,M,3,2021_Oct_28_1353,Partial repeat,2021.2.3,120.09760193740416,
2,4,0,1,1,2,2,3,2,1,0,1,0,0,0,0,0,55,55,55,1,0,1,0,,,,,,,,,0.8283622643058753,385.7056717572468,None,"[93. 93. 87. 93. 93. 93. 87. 93. 93. 93. 93. 87. 87. 93. 93. 87. 87. 93.
 87. 87. 87. 87. 93. 87. 87. 87. 93. 93. 93. 87. 87. 93. 87. 93.]",386.6132080796742,None,s,1,1.47378051375199,386.6132080796742,None,None,None,,,,,,,03__HAB,25,M,3,2021_Oct_28_1353,Partial repeat,2021.2.3,120.09760193740416,
2,4,0,1,1,2,2,3,2,1,0,1,0,0,0,0,0,55,55,55,,,,,,,,,,,,,,,,,,,,,,,,,,,,,,,,03__HAB,25,M,3,2021_Oct_28_1353,Partial repeat,2021.2.3,120.09760193740416,
7,5,0,1,1,2,2,3,3,0,0,1,1,1,0,0,0,56,56,56,0,0,0,0,,,,,,,388.1035885936253,None,0.7821069950872213,389.2109657779256,None,"[87. 93. 87. 87. 87. 87. 93. 93. 93. 87. 93. 93. 93. 93. 93. 93. 87. 93.
 87. 87. 87. 93. 87. 93. 93. 87. 87. 93. 87. 93. 93. 87. 93. 93.]",390.0769097056291,None,s,1,0.5861460785981762,390.0769097056291,None,None,None,,,,,,,03__HAB,25,M,3,2021_Oct_28_1353,Partial repeat,2021.2.3,120.09760193740416,
7,5,0,1,1,2,2,3,3,0,0,1,1,1,0,0,0,56,56,56,1,0,1,0,,,,,,,,,0.943955713286202,390.7263497716194,None,"[93. 93. 93. 93. 87. 87. 87. 87. 93. 87. 87. 87. 87. 87. 87. 87. 93. 87.
 87. 87. 87. 93. 87. 87. 93. 87. 87. 87. 87. 93. 87. 87. 87. 87.]",391.7587954122537,None,l,0,1.5762652109006012,391.7587954122537,None,393.35741839600814,None,,,,,,,03__HAB,25,M,3,2021_Oct_28_1353,Partial repeat,2021.2.3,120.09760193740416,
7,5,0,1,1,2,2,3,3,0,0,1,1,1,0,0,0,56,56,56,,,,,,,,,,,,,,,,,,,,,,,,,,,,,,,,03__HAB,25,M,3,2021_Oct_28_1353,Partial repeat,2021.2.3,120.09760193740416,
5,4,0,1,1,2,3,3,2,0,0,0,0,1,0,0,0,57,57,57,0,0,0,0,,,,,,,393.8569908846748,None,0.919600910406331,394.4898054743244,None,"[93. 93. 87. 87. 87. 93. 87. 87. 93. 87. 87. 93. 93. 93. 93. 93. 93. 93.
 87. 93. 87. 93. 93. 87. 87. 93. 93. 87. 87. 87. 93. 93. 93. 87.]",395.4972697644607,None,s,1,1.069838108798649,395.4972697644607,None,None,None,,,,,,,03__HAB,25,M,3,2021_Oct_28_1353,Partial repeat,2021.2.3,120.09760193740416,
5,4,0,1,1,2,3,3,2,0,0,0,0,1,0,0,0,57,57,57,1,0,1,0,,,,,,,,,0.9641680803541828,396.63796076132166,None,"[87. 93. 87. 87. 93. 93. 93. 93. 93. 87. 93. 93. 93. 93. 93. 87. 93. 93.
 87. 87. 93. 93. 93. 93. 87. 93. 87. 93. 93. 93. 93. 93. 87. 93.]",397.6870491968366,None,s,1,0.8961437502166518,397.6870491968366,None,None,None,,,,,,,03__HAB,25,M,3,2021_Oct_28_1353,Partial repeat,2021.2.3,120.09760193740416,
5,4,0,1,1,2,3,3,2,0,0,0,0,1,0,0,0,57,57,57,,,,,,,,,,,,,,,,,,,,,,,,,,,,,,,,03__HAB,25,M,3,2021_Oct_28_1353,Partial repeat,2021.2.3,120.09760193740416,
1,5,0,1,1,2,3,3,3,0,1,0,1,0,0,0,0,58,58,58,0,0,0,0,,,,,,,398.611272893344,None,0.8762691094284092,399.1274977982994,None,"[87. 93. 87. 87. 87. 87. 87. 87. 93. 87. 93. 87. 93. 87. 87. 87. 93. 87.
 87. 87. 87. 87. 87. 93. 93. 93. 93. 93. 87. 87. 87. 93. 87. 93.]",400.09334403661705,None,s,1,0.6178287413913495,400.09334403661705,None,None,None,,,,,,,03__HAB,25,M,3,2021_Oct_28_1353,Partial repeat,2021.2.3,120.09760193740416,
1,5,0,1,1,2,3,3,3,0,1,0,1,0,0,0,0,58,58,58,1,0,1,0,,,,,,,,,0.736868437536617,400.77607193736003,None,"[87. 87. 93. 93. 93. 87. 93. 87. 93. 93. 87. 87. 87. 87. 87. 93. 87. 93.
 93. 87. 87. 93. 93. 87. 87. 93. 87. 93. 93. 93. 93. 87. 93. 87.]",401.5920595783373,None,l,1,0.5262213693404192,401.5920595783373,None,None,None,,,,,,,03__HAB,25,M,3,2021_Oct_28_1353,Partial repeat,2021.2.3,120.09760193740416,
1,5,0,1,1,2,3,3,3,0,1,0,1,0,0,0,0,58,58,58,,,,,,,,,,,,,,,,,,,,,,,,,,,,,,,,03__HAB,25,M,3,2021_Oct_28_1353,Partial repeat,2021.2.3,120.09760193740416,
7,7,0,1,1,2,2,3,3,1,0,1,1,0,0,0,0,59,59,59,0,0,0,0,,,,,,,402.1415848258803,None,0.7949241213596674,402.58289454356964,None,"[93. 93. 87. 87. 93. 93. 93. 87. 93. 93. 93. 87. 87. 93. 93. 87. 93. 93.
 87. 93. 93. 93. 87. 93. 93. 87. 87. 87. 87. 87. 93. 87. 93. 87.]",403.46544053551406,None,l,1,0.5408132002503407,403.46544053551406,None,None,None,,,,,,,03__HAB,25,M,3,2021_Oct_28_1353,Partial repeat,2021.2.3,120.09760193740416,
7,7,0,1,1,2,2,3,3,1,0,1,1,0,0,0,0,59,59,59,1,0,1,0,,,,,,,,,0.8790136375079642,404.0732750575189,None,"[93. 87. 93. 87. 87. 87. 87. 93. 87. 93. 93. 87. 87. 93. 87. 87. 87. 93.
 87. 93. 93. 93. 93. 87. 93. 87. 93. 87. 87. 93. 93. 93. 87. 87.]",405.03078947520225,None,s,1,0.6554638500474539,405.03078947520225,None,None,None,,,,,,,03__HAB,25,M,3,2021_Oct_28_1353,Partial repeat,2021.2.3,120.09760193740416,
7,7,0,1,1,2,2,3,3,1,0,1,1,0,0,0,0,59,59,59,,,,,,,,,,,,,,,,,,,,,,,,,,,,,,,,03__HAB,25,M,3,2021_Oct_28_1353,Partial repeat,2021.2.3,120.09760193740416,
1,2,0,1,1,2,2,2,2,1,1,1,1,1,0,0,0,60,60,60,0,0,0,0,,,,,,,405.70519229029924,None,0.8982488851143092,406.0881901678167,None,"[87. 87. 93. 93. 93. 93. 87. 87. 93. 87. 93. 93. 87. 87. 93. 87. 87. 87.
 93. 87. 93. 87. 87. 87. 87. 87. 93. 93. 93. 93. 87. 87. 93. 87.]",407.0706945952679,None,l,1,0.6640544866204436,407.0706945952679,None,None,None,,,,,,,03__HAB,25,M,3,2021_Oct_28_1353,Partial repeat,2021.2.3,120.09760193740416,
1,2,0,1,1,2,2,2,2,1,1,1,1,1,0,0,0,60,60,60,1,0,1,0,,,,,,,,,0.8359558860566491,407.7950899377356,None,"[87. 93. 93. 87. 87. 93. 93. 93. 87. 87. 87. 87. 93. 93. 87. 93. 93. 93.
 87. 93. 87. 87. 93. 87. 93. 87. 87. 93. 87. 93. 87. 93. 87. 87.]",408.7109850207471,None,l,1,0.43188696888501,408.7109850207471,None,None,None,,,,,,,03__HAB,25,M,3,2021_Oct_28_1353,Partial repeat,2021.2.3,120.09760193740416,
1,2,0,1,1,2,2,2,2,1,1,1,1,1,0,0,0,60,60,60,,,,,,,,,,,,,,,,,,,,,,,,,,,,,,,,03__HAB,25,M,3,2021_Oct_28_1353,Partial repeat,2021.2.3,120.09760193740416,
8,7,0,1,1,3,2,3,2,1,1,0,0,1,0,0,0,61,61,61,0,0,0,0,,,,,,,409.1522463106703,None,0.8712658539970354,410.33458133715794,None,"[93. 87. 93. 87. 93. 87. 87. 87. 87. 87. 93. 87. 87. 87. 93. 87. 87. 87.
 93. 93. 87. 87. 87. 87. 93. 93. 87. 87. 93. 87. 93. 87. 93. 87.]",411.2837697070536,None,l,1,0.530774541422943,411.2837697070536,None,None,None,,,,,,,03__HAB,25,M,3,2021_Oct_28_1353,Partial repeat,2021.2.3,120.09760193740416,
8,7,0,1,1,3,2,3,2,1,1,0,0,1,0,0,0,61,61,61,1,0,1,0,,,,,,,,,0.9006530378910435,411.8749267971016,None,"[87. 93. 87. 87. 87. 93. 87. 93. 93. 93. 87. 87. 87. 87. 87. 87. 87. 93.
 87. 93. 87. 87. 87. 93. 93. 87. 93. 93. 93. 93. 93. 93. 93. 93.]",412.86574989592737,None,l,1,0.5966507343982812,412.86574989592737,None,None,None,,,,,,,03__HAB,25,M,3,2021_Oct_28_1353,Partial repeat,2021.2.3,120.09760193740416,
8,7,0,1,1,3,2,3,2,1,1,0,0,1,0,0,0,61,61,61,,,,,,,,,,,,,,,,,,,,,,,,,,,,,,,,03__HAB,25,M,3,2021_Oct_28_1353,Partial repeat,2021.2.3,120.09760193740416,
1,8,0,1,1,3,3,2,3,0,1,1,0,0,0,0,0,62,62,62,0,0,0,0,,,,,,,413.49022336424787,None,0.7854620706310449,414.3727860333038,None,"[87. 93. 87. 93. 87. 93. 93. 93. 87. 93. 93. 87. 93. 93. 93. 87. 93. 87.
 87. 87. 87. 93. 87. 93. 87. 93. 93. 93. 87. 87. 87. 87. 93. 87.]",415.24704799095343,None,s,1,0.7433756383925356,415.24704799095343,None,None,None,,,,,,,03__HAB,25,M,3,2021_Oct_28_1353,Partial repeat,2021.2.3,120.09760193740416,
1,8,0,1,1,3,3,2,3,0,1,1,0,0,0,0,0,62,62,62,1,0,1,0,,,,,,,,,0.910125526890289,416.05468328562165,None,"[93. 93. 87. 87. 87. 93. 87. 87. 93. 87. 93. 93. 87. 93. 87. 93. 87. 93.
 93. 87. 93. 93. 93. 93. 93. 87. 87. 87. 87. 87. 87. 93. 93. 87.]",417.05383114938013,None,l,1,0.5837134653520479,417.05383114938013,None,None,None,,,,,,,03__HAB,25,M,3,2021_Oct_28_1353,Partial repeat,2021.2.3,120.09760193740416,
1,8,0,1,1,3,3,2,3,0,1,1,0,0,0,0,0,62,62,62,,,,,,,,,,,,,,,,,,,,,,,,,,,,,,,,03__HAB,25,M,3,2021_Oct_28_1353,Partial repeat,2021.2.3,120.09760193740416,
4,3,0,1,1,3,3,3,2,0,1,1,0,0,0,0,0,63,63,63,0,0,0,0,,,,,,,417.66164322142686,None,0.845723040081188,418.6108181213476,None,"[93. 87. 93. 93. 87. 93. 93. 93. 87. 87. 87. 87. 87. 87. 93. 87. 93. 93.
 93. 87. 93. 93. 93. 93. 93. 87. 87. 93. 87. 93. 93. 87. 87. 93.]",419.53504502499163,None,s,1,0.8064481523961149,419.53504502499163,None,None,None,,,,,,,03__HAB,25,M,3,2021_Oct_28_1353,Partial repeat,2021.2.3,120.09760193740416,
4,3,0,1,1,3,3,3,2,0,1,1,0,0,0,0,0,63,63,63,1,0,1,0,,,,,,,,,0.8609591855967347,420.40097163415703,None,"[93. 87. 93. 87. 93. 87. 87. 87. 93. 87. 87. 87. 87. 93. 93. 93. 93. 93.
 93. 87. 93. 87. 87. 93. 93. 87. 87. 93. 87. 87. 87. 87. 87. 87.]",421.35015679691605,None,l,1,0.75138289678398,421.35015679691605,None,None,None,,,,,,,03__HAB,25,M,3,2021_Oct_28_1353,Partial repeat,2021.2.3,120.09760193740416,
4,3,0,1,1,3,3,3,2,0,1,1,0,0,0,0,0,63,63,63,,,,,,,,,,,,,,,,,,,,,,,,,,,,,,,,03__HAB,25,M,3,2021_Oct_28_1353,Partial repeat,2021.2.3,120.09760193740416,
3,3,0,1,1,3,3,3,3,0,1,1,1,0,1,0,0,64,64,64,0,0,0,0,,,,,,,423.18189821445776,None,0.7931073382013911,431.8744829293719,None,"[87. 87. 93. 93. 87. 93. 93. 93. 87. 93. 93. 93. 93. 93. 93. 87. 87. 93.
 87. 93. 87. 93. 87. 93. 87. 87. 93. 87. 93. 87. 87. 93. 93. 93.]",432.7487359070383,None,s,1,0.6004973742492439,432.7487359070383,None,None,None,,,,,,,03__HAB,25,M,3,2021_Oct_28_1353,Partial repeat,2021.2.3,120.09760193740416,
3,3,0,1,1,3,3,3,3,0,1,1,1,0,1,0,0,64,64,64,1,0,1,0,,,,,,,,,0.7505979096979818,433.4231640585149,None,"[93. 87. 93. 87. 87. 87. 87. 93. 87. 93. 87. 87. 93. 93. 93. 87. 93. 93.
 87. 87. 87. 87. 93. 93. 87. 87. 87. 87. 93. 93. 87. 87. 93. 93.]",434.2557919286628,None,l,1,1.2529585630836664,434.2557919286628,None,None,None,,,,,,,03__HAB,25,M,3,2021_Oct_28_1353,Partial repeat,2021.2.3,120.09760193740416,
3,3,0,1,1,3,3,3,3,0,1,1,1,0,1,0,0,64,64,64,,,,,,,,,,,,,,,,,,,,,,,,,,,,,,,,03__HAB,25,M,3,2021_Oct_28_1353,Partial repeat,2021.2.3,120.09760193740416,
3,3,0,1,1,3,3,3,3,0,0,1,1,1,1,0,0,65,65,65,0,0,0,0,,,,,,,435.5213707559142,None,0.9555022168759653,440.0008707376346,None,"[87. 87. 93. 87. 93. 93. 93. 87. 93. 87. 93. 93. 87. 87. 93. 87. 93. 87.
 93. 93. 87. 87. 93. 93. 93. 87. 93. 87. 93. 87. 87. 93. 87. 93.]",441.04163986034837,None,s,1,0.6919687637018797,441.04163986034837,None,None,None,,,,,,,03__HAB,25,M,3,2021_Oct_28_1353,Partial repeat,2021.2.3,120.09760193740416,
3,3,0,1,1,3,3,3,3,0,0,1,1,1,1,0,0,65,65,65,1,0,1,0,,,,,,,,,0.7074809474718288,441.79101142189575,None,"[87. 93. 87. 93. 93. 87. 87. 87. 93. 87. 93. 93. 93. 87. 93. 87. 93. 87.
 87. 87. 87. 93. 87. 87. 93. 87. 87. 87. 93. 93. 87. 93. 93. 93.]",442.5736820431757,None,s,1,0.9191719544178341,442.5736820431757,None,None,None,,,,,,,03__HAB,25,M,3,2021_Oct_28_1353,Partial repeat,2021.2.3,120.09760193740416,
3,3,0,1,1,3,3,3,3,0,0,1,1,1,1,0,0,65,65,65,,,,,,,,,,,,,,,,,,,,,,,,,,,,,,,,03__HAB,25,M,3,2021_Oct_28_1353,Partial repeat,2021.2.3,120.09760193740416,
3,3,0,1,1,2,3,2,2,1,1,0,1,1,1,0,0,66,66,66,0,0,0,0,,,,,,,443.5228585466666,None,0.9474936552391722,447.0614974891323,None,"[93. 87. 87. 87. 87. 93. 87. 93. 93. 93. 93. 93. 93. 87. 93. 87. 87. 87.
 93. 93. 87. 93. 87. 93. 93. 93. 93. 93. 93. 87. 87. 87. 87. 93.]",448.0856238169672,None,l,1,0.574412127270989,448.0856238169672,None,None,None,,,,,,,03__HAB,25,M,3,2021_Oct_28_1353,Partial repeat,2021.2.3,120.09760193740416,
3,3,0,1,1,2,3,2,2,1,1,0,1,1,1,0,0,66,66,66,1,0,1,0,,,,,,,,,0.7471308871859026,448.7184085802455,None,"[87. 93. 87. 93. 93. 93. 93. 93. 87. 87. 93. 87. 93. 87. 87. 87. 87. 87.
 87. 87. 93. 87. 93. 93. 87. 87. 93. 87. 87. 93. 87. 87. 87. 87.]",449.54271809973216,None,l,1,0.5892707919592794,449.54271809973216,None,None,None,,,,,,,03__HAB,25,M,3,2021_Oct_28_1353,Partial repeat,2021.2.3,120.09760193740416,
3,3,0,1,1,2,3,2,2,1,1,0,1,1,1,0,0,66,66,66,,,,,,,,,,,,,,,,,,,,,,,,,,,,,,,,03__HAB,25,M,3,2021_Oct_28_1353,Partial repeat,2021.2.3,120.09760193740416,
3,3,0,1,1,3,2,2,2,1,0,0,1,0,1,0,0,67,67,67,0,0,0,0,,,,,,,450.15052119179745,None,0.8845122286702369,450.65841876611194,None,"[87. 87. 93. 93. 93. 93. 93. 87. 87. 93. 87. 87. 93. 87. 87. 87. 87. 93.
 87. 87. 93. 93. 87. 93. 87. 87. 93. 87. 93. 93. 93. 87. 87. 87.]",451.6242640422879,None,l,1,0.47573462219224893,451.6242640422879,None,None,None,,,,,,,03__HAB,25,M,3,2021_Oct_28_1353,Partial repeat,2021.2.3,120.09760193740416,
3,3,0,1,1,3,2,2,2,1,0,0,1,0,1,0,0,67,67,67,1,0,1,0,,,,,,,,,0.8029986036401091,452.16546099704647,None,"[87. 93. 93. 87. 93. 87. 93. 93. 87. 87. 93. 87. 87. 93. 87. 93. 93. 93.
 93. 93. 93. 87. 87. 93. 93. 93. 87. 87. 93. 93. 93. 93. 87. 87.]",453.0563705602799,None,s,1,0.835666451292127,453.0563705602799,None,None,None,,,,,,,03__HAB,25,M,3,2021_Oct_28_1353,Partial repeat,2021.2.3,120.09760193740416,
3,3,0,1,1,3,2,2,2,1,0,0,1,0,1,0,0,67,67,67,,,,,,,,,,,,,,,,,,,,,,,,,,,,,,,,03__HAB,25,M,3,2021_Oct_28_1353,Partial repeat,2021.2.3,120.09760193740416,
3,3,0,1,1,3,2,3,2,1,0,0,0,0,1,0,0,68,68,68,0,0,0,0,,,,,,,453.91396182096105,None,0.9493734809158814,454.51345650449,None,"[87. 93. 87. 93. 93. 93. 87. 93. 87. 93. 87. 87. 93. 93. 87. 87. 87. 87.
 93. 87. 93. 93. 87. 93. 93. 93. 93. 93. 93. 87. 93. 87. 93. 87.]",455.53759117087975,None,l,1,0.4664643933374464,455.53759117087975,None,None,None,,,,,,,03__HAB,25,M,3,2021_Oct_28_1353,Partial repeat,2021.2.3,120.09760193740416,
3,3,0,1,1,3,2,3,2,1,0,0,0,0,1,0,0,68,68,68,1,0,1,0,,,,,,,,,0.9907655234419936,456.06212769150807,None,"[93. 93. 93. 93. 87. 93. 93. 87. 87. 93. 93. 87. 93. 93. 93. 87. 87. 87.
 87. 87. 93. 93. 93. 93. 93. 87. 93. 87. 93. 87. 87. 93. 87. 87.]",457.12789901111137,None,s,1,0.6521903255397774,457.12789901111137,None,None,None,,,,,,,03__HAB,25,M,3,2021_Oct_28_1353,Partial repeat,2021.2.3,120.09760193740416,
3,3,0,1,1,3,2,3,2,1,0,0,0,0,1,0,0,68,68,68,,,,,,,,,,,,,,,,,,,,,,,,,,,,,,,,03__HAB,25,M,3,2021_Oct_28_1353,Partial repeat,2021.2.3,120.09760193740416,
3,3,0,1,1,3,2,2,2,0,1,0,1,0,1,0,0,69,69,69,0,0,0,0,,,,,,,457.8106442303924,None,0.9119958430323418,458.8180982576905,None,"[87. 93. 93. 93. 87. 87. 87. 87. 93. 93. 87. 93. 87. 87. 93. 87. 87. 87.
 93. 87. 93. 87. 87. 93. 93. 87. 87. 93. 87. 93. 87. 87. 93. 93.]",459.80895214502925,None,s,1,0.5791965339140006,459.80895214502925,None,None,None,,,,,,,03__HAB,25,M,3,2021_Oct_28_1353,Partial repeat,2021.2.3,120.09760193740416,
3,3,0,1,1,3,2,2,2,0,1,0,1,0,1,0,0,69,69,69,1,0,1,0,,,,,,,,,0.8132203823437865,460.45836879891976,None,"[87. 87. 87. 87. 93. 93. 87. 87. 93. 87. 93. 93. 87. 87. 93. 87. 87. 93.
 87. 87. 87. 87. 93. 93. 87. 87. 93. 93. 93. 93. 87. 87. 87. 87.]",461.3576098620724,None,l,1,0.550546860367831,461.3576098620724,None,None,None,,,,,,,03__HAB,25,M,3,2021_Oct_28_1353,Partial repeat,2021.2.3,120.09760193740416,
3,3,0,1,1,3,2,2,2,0,1,0,1,0,1,0,0,69,69,69,,,,,,,,,,,,,,,,,,,,,,,,,,,,,,,,03__HAB,25,M,3,2021_Oct_28_1353,Partial repeat,2021.2.3,120.09760193740416,
3,3,0,1,1,3,2,3,3,1,1,0,1,1,1,0,0,70,70,70,0,0,0,0,,,,,,,461.93209657586704,None,0.7259690863030694,462.58155011183226,None,"[93. 87. 93. 87. 87. 87. 93. 93. 87. 87. 87. 87. 93. 93. 87. 93. 93. 93.
 93. 87. 93. 93. 87. 87. 93. 93. 93. 93. 87. 93. 87. 87. 87. 93.]",463.3891915000604,None,l,1,0.4380934199762123,463.3891915000604,None,None,None,,,,,,,03__HAB,25,M,3,2021_Oct_28_1353,Partial repeat,2021.2.3,120.09760193740416,
3,3,0,1,1,3,2,3,3,1,1,0,1,1,1,0,0,70,70,70,1,0,1,0,,,,,,,,,0.762503957240544,463.8970890743749,None,"[87. 87. 93. 87. 93. 87. 93. 93. 93. 87. 93. 93. 93. 87. 93. 87. 93. 87.
 87. 87. 93. 93. 93. 93. 87. 93. 93. 93. 93. 93. 87. 93. 87. 87.]",464.73805165157864,None,l,1,0.6101742680475581,464.73805165157864,None,None,None,,,,,,,03__HAB,25,M,3,2021_Oct_28_1353,Partial repeat,2021.2.3,120.09760193740416,
3,3,0,1,1,3,2,3,3,1,1,0,1,1,1,0,0,70,70,70,,,,,,,,,,,,,,,,,,,,,,,,,,,,,,,,03__HAB,25,M,3,2021_Oct_28_1353,Partial repeat,2021.2.3,120.09760193740416,
3,3,0,1,1,3,3,2,2,1,0,1,1,0,1,0,0,71,71,71,0,0,0,0,,,,,,,465.3791480305281,None,0.8271510725017897,465.9536716263956,None,"[93. 93. 87. 87. 87. 87. 93. 87. 87. 87. 93. 93. 87. 87. 87. 87. 87. 93.
 87. 87. 93. 93. 93. 93. 93. 93. 93. 93. 87. 87. 93. 87. 87. 87.]",466.8695583708504,None,l,1,0.46168351454252843,466.8695583708504,None,None,None,,,,,,,03__HAB,25,M,3,2021_Oct_28_1353,Partial repeat,2021.2.3,120.09760193740416,
3,3,0,1,1,3,3,2,2,1,0,1,1,0,1,0,0,71,71,71,1,0,1,0,,,,,,,,,0.7927414222160919,467.39411766215017,None,"[93. 87. 93. 93. 93. 93. 87. 87. 93. 93. 93. 93. 93. 87. 87. 93. 87. 87.
 93. 93. 87. 93. 87. 87. 87. 93. 93. 87. 93. 87. 87. 93. 87. 93.]",468.2683603769783,None,s,1,0.6639791189045354,468.2683603769783,None,None,None,,,,,,,03__HAB,25,M,3,2021_Oct_28_1353,Partial repeat,2021.2.3,120.09760193740416,
3,3,0,1,1,3,3,2,2,1,0,1,1,0,1,0,0,71,71,71,,,,,,,,,,,,,,,,,,,,,,,,,,,,,,,,03__HAB,25,M,3,2021_Oct_28_1353,Partial repeat,2021.2.3,120.09760193740416,
3,3,0,1,1,2,2,2,2,0,0,1,1,1,1,0,0,72,72,72,0,0,0,0,,,,,,,468.9427779449052,None,0.7478887332933996,469.44234947143195,None,"[87. 87. 93. 87. 93. 93. 93. 87. 93. 87. 93. 93. 93. 93. 93. 93. 93. 93.
 87. 87. 93. 93. 93. 93. 93. 87. 87. 87. 93. 93. 87. 87. 93. 93.]",470.26665321807195,None,s,1,0.5204055475078349,470.26665321807195,None,None,None,,,,,,,03__HAB,25,M,3,2021_Oct_28_1353,Partial repeat,2021.2.3,120.09760193740416,
3,3,0,1,1,2,2,2,2,0,0,1,1,1,1,0,0,72,72,72,1,0,1,0,,,,,,,,,0.8809150011153077,470.84948201533916,None,"[87. 93. 93. 87. 93. 93. 93. 87. 93. 87. 87. 87. 87. 93. 87. 93. 87. 87.
 93. 93. 93. 87. 93. 87. 93. 93. 93. 87. 93. 87. 93. 87. 93. 87.]",471.8070131101322,None,s,1,0.6923744665036793,471.8070131101322,None,None,None,,,,,,,03__HAB,25,M,3,2021_Oct_28_1353,Partial repeat,2021.2.3,120.09760193740416,
3,3,0,1,1,2,2,2,2,0,0,1,1,1,1,0,0,72,72,72,,,,,,,,,,,,,,,,,,,,,,,,,,,,,,,,03__HAB,25,M,3,2021_Oct_28_1353,Partial repeat,2021.2.3,120.09760193740416,
3,3,0,1,1,2,3,2,2,0,0,0,1,1,1,0,0,73,73,73,0,0,0,0,,,,,,,472.53136804267706,None,0.8809685970431128,473.44724837285867,None,"[87. 93. 93. 87. 87. 87. 93. 93. 93. 87. 93. 93. 93. 93. 87. 93. 93. 87.
 87. 93. 93. 93. 93. 93. 93. 93. 87. 93. 93. 93. 87. 87. 93. 93.]",474.4047631112553,None,s,1,0.6065944619767834,474.4047631112553,None,None,None,,,,,,,03__HAB,25,M,3,2021_Oct_28_1353,Partial repeat,2021.2.3,120.09760193740416,
3,3,0,1,1,2,3,2,2,0,0,0,1,1,1,0,0,73,73,73,1,0,1,0,,,,,,,,,0.8572536207118089,475.0792101848401,None,"[93. 87. 87. 87. 93. 87. 93. 93. 93. 87. 93. 87. 93. 93. 93. 93. 93. 93.
 87. 93. 93. 93. 87. 93. 93. 93. 87. 87. 93. 87. 87. 87. 87. 87.]",476.01174998701026,None,s,1,0.5511648756255454,476.01174998701026,None,None,None,,,,,,,03__HAB,25,M,3,2021_Oct_28_1353,Partial repeat,2021.2.3,120.09760193740416,
3,3,0,1,1,2,3,2,2,0,0,0,1,1,1,0,0,73,73,73,,,,,,,,,,,,,,,,,,,,,,,,,,,,,,,,03__HAB,25,M,3,2021_Oct_28_1353,Partial repeat,2021.2.3,120.09760193740416,
3,3,0,1,1,3,3,3,2,1,1,1,0,1,1,0,0,74,74,74,0,0,0,0,,,,,,,476.58625530219797,None,0.9642987180475644,477.3022970155016,None,"[87. 93. 93. 93. 93. 93. 87. 93. 87. 93. 87. 93. 93. 87. 87. 87. 87. 87.
 93. 93. 87. 93. 87. 87. 87. 93. 87. 87. 93. 87. 87. 87. 93. 87.]",478.343071911062,None,l,1,0.555455703919506,478.343071911062,None,None,None,,,,,,,03__HAB,25,M,3,2021_Oct_28_1353,Partial repeat,2021.2.3,120.09760193740416,
3,3,0,1,1,3,3,3,2,1,1,1,0,1,1,0,0,74,74,74,1,0,1,0,,,,,,,,,0.7871630860143575,478.96753575797084,None,"[87. 93. 87. 87. 93. 87. 93. 87. 93. 87. 87. 87. 93. 87. 93. 87. 93. 93.
 87. 87. 93. 93. 87. 93. 93. 93. 87. 93. 93. 93. 87. 93. 93. 93.]",479.8334636499894,None,l,1,0.8410198040000978,479.8334636499894,None,None,None,,,,,,,03__HAB,25,M,3,2021_Oct_28_1353,Partial repeat,2021.2.3,120.09760193740416,
3,3,0,1,1,3,3,3,2,1,1,1,0,1,1,0,0,74,74,74,,,,,,,,,,,,,,,,,,,,,,,,,,,,,,,,03__HAB,25,M,3,2021_Oct_28_1353,Partial repeat,2021.2.3,120.09760193740416,
3,3,0,1,1,2,2,2,3,0,0,1,0,1,1,0,0,75,75,75,0,0,0,0,,,,,,,480.68274265357104,None,0.7299528703638345,481.26557433725975,None,"[87. 87. 93. 93. 87. 87. 93. 87. 87. 87. 93. 87. 87. 87. 87. 93. 87. 87.
 93. 87. 87. 87. 93. 93. 87. 93. 93. 93. 93. 93. 93. 93. 87. 93.]",482.08155203611386,None,s,1,0.6089350303955143,482.08155203611386,None,None,None,,,,,,,03__HAB,25,M,3,2021_Oct_28_1353,Partial repeat,2021.2.3,120.09760193740416,
3,3,0,1,1,2,2,2,3,0,0,1,0,1,1,0,0,75,75,75,1,0,1,0,,,,,,,,,0.7842742746376823,482.7559615861974,None,"[87. 93. 87. 93. 87. 87. 93. 93. 93. 93. 87. 93. 87. 87. 87. 93. 87. 93.
 93. 87. 87. 93. 93. 87. 93. 93. 87. 87. 93. 93. 87. 93. 93. 93.]",483.62190262747754,None,s,1,0.5089547863590269,483.62190262747754,None,None,None,,,,,,,03__HAB,25,M,3,2021_Oct_28_1353,Partial repeat,2021.2.3,120.09760193740416,
3,3,0,1,1,2,2,2,3,0,0,1,0,1,1,0,0,75,75,75,,,,,,,,,,,,,,,,,,,,,,,,,,,,,,,,03__HAB,25,M,3,2021_Oct_28_1353,Partial repeat,2021.2.3,120.09760193740416,
3,3,0,1,1,3,2,3,3,0,1,0,1,0,1,0,0,76,76,76,0,0,0,0,,,,,,,484.15478187300505,None,0.7343246209026485,484.704305837693,None,"[87. 93. 87. 87. 93. 93. 87. 87. 87. 87. 93. 93. 87. 87. 93. 93. 93. 93.
 93. 87. 93. 87. 93. 87. 93. 93. 93. 93. 87. 93. 87. 87. 87. 93.]",485.52026750086407,None,s,1,0.48341122478268517,485.52026750086407,None,None,None,,,,,,,03__HAB,25,M,3,2021_Oct_28_1353,Partial repeat,2021.2.3,120.09760193740416,
3,3,0,1,1,3,2,3,3,0,1,0,1,0,1,0,0,76,76,76,1,0,1,0,,,,,,,,,0.9757459678559403,486.0614541927862,None,"[87. 87. 93. 93. 93. 93. 87. 87. 93. 87. 87. 93. 87. 87. 93. 93. 87. 87.
 93. 93. 87. 93. 93. 87. 93. 87. 93. 93. 93. 93. 93. 93. 93. 93.]",487.11891710385135,None,l,1,1.0116567990935437,487.11891710385135,None,None,None,,,,,,,03__HAB,25,M,3,2021_Oct_28_1353,Partial repeat,2021.2.3,120.09760193740416,
3,3,0,1,1,3,2,3,3,0,1,0,1,0,1,0,0,76,76,76,,,,,,,,,,,,,,,,,,,,,,,,,,,,,,,,03__HAB,25,M,3,2021_Oct_28_1353,Partial repeat,2021.2.3,120.09760193740416,
3,3,0,1,1,3,3,2,3,0,0,1,0,1,1,0,0,77,77,77,0,0,0,0,,,,,,,488.1513608202058,None,0.8243427297554292,489.15048302686955,None,"[93. 93. 93. 93. 93. 93. 87. 87. 93. 93. 87. 93. 87. 87. 93. 87. 87. 87.
 87. 87. 93. 87. 87. 87. 93. 87. 93. 93. 87. 93. 87. 93. 87. 93.]",490.04973082500874,None,s,1,0.5768883575765358,490.04973082500874,None,None,None,,,,,,,03__HAB,25,M,3,2021_Oct_28_1353,Partial repeat,2021.2.3,120.09760193740416,
3,3,0,1,1,3,3,2,3,0,0,1,0,1,1,0,0,77,77,77,1,0,1,0,,,,,,,,,0.8783457684715283,490.6991763431324,None,"[93. 93. 93. 93. 93. 87. 87. 87. 93. 93. 93. 87. 93. 87. 93. 87. 93. 93.
 93. 93. 87. 93. 87. 87. 87. 87. 93. 93. 93. 93. 87. 87. 93. 87.]",491.65668434654253,None,s,1,0.5374992658180417,491.65668434654253,None,None,None,,,,,,,03__HAB,25,M,3,2021_Oct_28_1353,Partial repeat,2021.2.3,120.09760193740416,
3,3,0,1,1,3,3,2,3,0,0,1,0,1,1,0,0,77,77,77,,,,,,,,,,,,,,,,,,,,,,,,,,,,,,,,03__HAB,25,M,3,2021_Oct_28_1353,Partial repeat,2021.2.3,120.09760193740416,
3,3,0,1,1,2,3,3,3,1,1,0,1,1,1,0,0,78,78,78,0,0,0,0,,,,,,,492.222876442489,None,0.9513801101740432,492.76405383371457,None,"[87. 93. 93. 87. 87. 87. 87. 93. 87. 87. 87. 87. 87. 87. 93. 87. 93. 87.
 87. 87. 93. 87. 87. 93. 93. 93. 93. 93. 93. 87. 93. 87. 93. 87.]",493.79652481073026,None,l,1,0.43014741789920663,493.79652481073026,None,None,None,,,,,,,03__HAB,25,M,3,2021_Oct_28_1353,Partial repeat,2021.2.3,120.09760193740416,
3,3,0,1,1,2,3,3,3,1,1,0,1,1,1,0,0,78,78,78,1,0,1,0,,,,,,,,,0.9199377961658629,494.296093771547,None,"[93. 87. 93. 93. 93. 87. 93. 93. 93. 93. 93. 93. 87. 87. 93. 93. 93. 93.
 87. 87. 93. 93. 93. 87. 87. 93. 87. 93. 93. 87. 87. 93. 87. 87.]",495.2952442010155,None,l,1,0.610475738903915,495.2952442010155,None,None,None,,,,,,,03__HAB,25,M,3,2021_Oct_28_1353,Partial repeat,2021.2.3,120.09760193740416,
3,3,0,1,1,2,3,3,3,1,1,0,1,1,1,0,0,78,78,78,,,,,,,,,,,,,,,,,,,,,,,,,,,,,,,,03__HAB,25,M,3,2021_Oct_28_1353,Partial repeat,2021.2.3,120.09760193740416,
3,3,0,1,1,2,2,2,3,0,1,1,0,0,1,0,0,79,79,79,0,0,0,0,,,,,,,495.9363684820546,None,0.8882765259625884,496.54416772555487,None,"[87. 93. 87. 93. 87. 93. 87. 93. 93. 93. 93. 93. 87. 93. 87. 87. 87. 87.
 93. 93. 87. 93. 87. 87. 93. 87. 93. 93. 93. 87. 93. 87. 87. 87.]",497.51833904951854,None,l,0,0.4513667969567905,497.51833904951854,None,497.99293499839223,None,,,,,,,03__HAB,25,M,3,2021_Oct_28_1353,Partial repeat,2021.2.3,120.09760193740416,
3,3,0,1,1,2,2,2,3,0,1,1,0,0,1,0,0,79,79,79,1,0,1,0,,,,,,,,,0.7423023208954155,498.53413804671254,None,"[87. 87. 93. 93. 87. 87. 93. 93. 87. 87. 93. 87. 87. 93. 87. 87. 93. 87.
 93. 87. 87. 87. 87. 93. 87. 87. 87. 93. 93. 93. 93. 87. 87. 93.]",499.3584533390458,None,l,1,0.5633292247075588,499.3584533390458,None,None,None,,,,,,,03__HAB,25,M,3,2021_Oct_28_1353,Partial repeat,2021.2.3,120.09760193740416,
3,3,0,1,1,2,2,2,3,0,1,1,0,0,1,0,0,79,79,79,,,,,,,,,,,,,,,,,,,,,,,,,,,,,,,,03__HAB,25,M,3,2021_Oct_28_1353,Partial repeat,2021.2.3,120.09760193740416,
3,3,0,1,1,3,2,3,3,1,0,0,1,0,1,0,0,80,80,80,0,0,0,0,,,,,,,499.941277004893,None,0.8432454642963984,500.35757554570955,None,"[93. 87. 93. 93. 93. 93. 93. 87. 87. 87. 93. 87. 87. 93. 93. 93. 93. 93.
 93. 87. 87. 87. 93. 87. 93. 87. 93. 87. 87. 93. 93. 87. 87. 93.]",501.2817748679772,None,l,1,0.5760195442235272,501.2817748679772,None,None,None,,,,,,,03__HAB,25,M,3,2021_Oct_28_1353,Partial repeat,2021.2.3,120.09760193740416,
3,3,0,1,1,3,2,3,3,1,0,0,1,0,1,0,0,80,80,80,1,0,1,0,,,,,,,,,0.9690062992409617,501.9312396289206,None,"[93. 87. 93. 87. 93. 87. 93. 87. 87. 93. 93. 93. 87. 93. 93. 93. 93. 93.
 93. 93. 93. 87. 93. 93. 87. 93. 87. 87. 93. 87. 93. 93. 93. 87.]",502.98033672370366,None,s,1,0.701439759319328,502.98033672370366,None,None,None,,,,,,,03__HAB,25,M,3,2021_Oct_28_1353,Partial repeat,2021.2.3,120.09760193740416,
3,3,0,1,1,3,2,3,3,1,0,0,1,0,1,0,0,80,80,80,,,,,,,,,,,,,,,,,,,,,,,,,,,,,,,,03__HAB,25,M,3,2021_Oct_28_1353,Partial repeat,2021.2.3,120.09760193740416,
3,3,0,1,1,3,2,2,3,1,1,0,0,1,1,0,0,81,81,81,0,0,0,0,,,,,,,503.71303277757943,None,0.8990654847879703,504.2459043259769,None,"[87. 87. 87. 87. 93. 87. 93. 87. 93. 87. 87. 87. 93. 93. 87. 87. 93. 87.
 87. 93. 93. 87. 87. 87. 87. 87. 87. 93. 87. 93. 93. 87. 87. 93.]",505.22840073558837,None,l,1,0.5655312448197947,505.22840073558837,None,None,None,,,,,,,03__HAB,25,M,3,2021_Oct_28_1353,Partial repeat,2021.2.3,120.09760193740416,
3,3,0,1,1,3,2,2,3,1,1,0,0,1,1,0,0,81,81,81,1,0,1,0,,,,,,,,,0.8185653456884586,505.8529181416816,None,"[87. 93. 93. 87. 87. 87. 87. 93. 87. 87. 87. 93. 93. 93. 87. 87. 87. 93.
 93. 93. 93. 87. 93. 93. 93. 87. 87. 87. 93. 93. 87. 93. 93. 87.]",506.7521178327697,None,l,1,0.5948422299679805,506.7521178327697,None,None,None,,,,,,,03__HAB,25,M,3,2021_Oct_28_1353,Partial repeat,2021.2.3,120.09760193740416,
3,3,0,1,1,3,2,2,3,1,1,0,0,1,1,0,0,81,81,81,,,,,,,,,,,,,,,,,,,,,,,,,,,,,,,,03__HAB,25,M,3,2021_Oct_28_1353,Partial repeat,2021.2.3,120.09760193740416,
3,3,0,1,1,2,2,2,2,1,0,1,1,0,1,0,0,82,82,82,0,0,0,0,,,,,,,507.3682562733193,None,0.7913405127195097,507.8927927939476,None,"[87. 93. 93. 87. 93. 87. 87. 93. 87. 87. 87. 87. 87. 87. 87. 87. 87. 87.
 87. 87. 87. 93. 93. 93. 87. 93. 87. 87. 87. 87. 87. 87. 93. 93.]",508.7587238931046,None,l,1,0.47515413043402077,508.7587238931046,None,None,None,,,,,,,03__HAB,25,M,3,2021_Oct_28_1353,Partial repeat,2021.2.3,120.09760193740416,
3,3,0,1,1,2,2,2,2,1,0,1,1,0,1,0,0,82,82,82,1,0,1,0,,,,,,,,,0.967643940334052,509.29991603715825,None,"[87. 87. 87. 87. 93. 87. 93. 93. 87. 87. 87. 93. 87. 87. 87. 93. 87. 93.
 93. 93. 87. 87. 93. 93. 93. 93. 87. 93. 93. 93. 87. 87. 87. 93.]",510.34903878903606,None,s,1,0.7879795345506864,510.34903878903606,None,None,None,,,,,,,03__HAB,25,M,3,2021_Oct_28_1353,Partial repeat,2021.2.3,120.09760193740416,
3,3,0,1,1,2,2,2,2,1,0,1,1,0,1,0,0,82,82,82,,,,,,,,,,,,,,,,,,,,,,,,,,,,,,,,03__HAB,25,M,3,2021_Oct_28_1353,Partial repeat,2021.2.3,120.09760193740416,
3,3,0,1,1,3,3,2,3,0,1,1,0,0,1,0,0,83,83,83,0,0,0,0,,,,,,,511.15668787439245,None,0.9052767108941905,511.7561565801134,None,"[87. 93. 93. 93. 93. 87. 93. 93. 87. 93. 87. 93. 93. 93. 87. 87. 87. 87.
 87. 93. 87. 87. 93. 87. 93. 93. 87. 87. 87. 87. 87. 93. 93. 93.]",512.7386536311515,None,s,1,0.4943206212428777,512.7386536311515,None,None,None,,,,,,,03__HAB,25,M,3,2021_Oct_28_1353,Partial repeat,2021.2.3,120.09760193740416,
3,3,0,1,1,3,3,2,3,0,1,1,0,0,1,0,0,83,83,83,1,0,1,0,,,,,,,,,0.9971485801113436,513.296515830747,None,"[87. 87. 87. 93. 93. 93. 93. 87. 93. 87. 87. 87. 93. 93. 87. 93. 87. 93.
 93. 93. 87. 87. 93. 93. 87. 87. 87. 87. 87. 93. 87. 87. 87. 87.]",514.3705997281631,None,l,1,0.5584043454728089,514.3705997281631,None,None,None,,,,,,,03__HAB,25,M,3,2021_Oct_28_1353,Partial repeat,2021.2.3,120.09760193740416,
3,3,0,1,1,3,3,2,3,0,1,1,0,0,1,0,0,83,83,83,,,,,,,,,,,,,,,,,,,,,,,,,,,,,,,,03__HAB,25,M,3,2021_Oct_28_1353,Partial repeat,2021.2.3,120.09760193740416,
3,3,0,1,1,3,2,3,2,0,0,0,0,1,1,0,0,84,84,84,0,0,0,0,,,,,,,514.9534112068905,None,0.9998026105377369,515.5279226156381,None,"[87. 93. 87. 93. 93. 87. 93. 93. 93. 93. 93. 93. 93. 87. 87. 87. 93. 93.
 93. 87. 93. 87. 87. 93. 87. 87. 93. 93. 87. 87. 87. 87. 93. 93.]",516.6020049094841,None,s,1,0.8390002699725301,516.6020049094841,None,None,None,,,,,,,03__HAB,25,M,3,2021_Oct_28_1353,Partial repeat,2021.2.3,120.09760193740416,
3,3,0,1,1,3,2,3,2,0,0,0,0,1,1,0,0,84,84,84,1,0,1,0,,,,,,,,,0.9822483503572363,517.5095691340011,None,"[93. 93. 87. 87. 93. 87. 93. 93. 93. 93. 93. 93. 87. 87. 93. 93. 93. 87.
 87. 87. 93. 87. 93. 93. 87. 93. 93. 87. 93. 93. 93. 87. 93. 87.]",518.566990031577,None,s,1,0.619708764972529,518.566990031577,None,None,None,,,,,,,03__HAB,25,M,3,2021_Oct_28_1353,Partial repeat,2021.2.3,120.09760193740416,
3,3,0,1,1,3,2,3,2,0,0,0,0,1,1,0,0,84,84,84,,,,,,,,,,,,,,,,,,,,,,,,,,,,,,,,03__HAB,25,M,3,2021_Oct_28_1353,Partial repeat,2021.2.3,120.09760193740416,
3,3,0,1,1,3,3,3,3,1,1,1,1,1,1,0,0,85,85,85,0,0,0,0,,,,,,,519.2081255375961,None,0.9130828073962973,519.8742218684383,None,"[93. 93. 87. 87. 93. 93. 87. 93. 87. 93. 93. 93. 87. 87. 87. 87. 87. 87.
 87. 87. 87. 87. 93. 87. 93. 93. 93. 93. 87. 93. 87. 87. 93. 93.]",520.8650375908492,None,l,1,0.49605921009060694,520.8650375908492,None,None,None,,,,,,,03__HAB,25,M,3,2021_Oct_28_1353,Partial repeat,2021.2.3,120.09760193740416,
3,3,0,1,1,3,3,3,3,1,1,1,1,1,1,0,0,85,85,85,1,0,1,0,,,,,,,,,0.9997178150573587,521.431208198981,None,"[93. 93. 87. 87. 93. 87. 87. 87. 87. 93. 93. 93. 87. 87. 93. 93. 93. 87.
 93. 87. 93. 87. 93. 93. 93. 93. 87. 87. 93. 93. 87. 93. 93. 93.]",522.5053113392169,None,l,1,0.5198333943080797,522.5053113392169,None,None,None,,,,,,,03__HAB,25,M,3,2021_Oct_28_1353,Partial repeat,2021.2.3,120.09760193740416,
3,3,0,1,1,3,3,3,3,1,1,1,1,1,1,0,0,85,85,85,,,,,,,,,,,,,,,,,,,,,,,,,,,,,,,,03__HAB,25,M,3,2021_Oct_28_1353,Partial repeat,2021.2.3,120.09760193740416,
3,3,0,1,1,2,2,3,3,0,0,1,1,1,1,0,0,86,86,86,0,0,0,0,,,,,,,523.0465038039838,None,0.9605018054459666,523.662644168815,None,"[93. 93. 93. 87. 87. 93. 87. 93. 93. 87. 93. 93. 87. 87. 87. 93. 87. 87.
 93. 87. 87. 87. 93. 87. 93. 87. 87. 87. 93. 87. 87. 87. 93. 87.]",524.7034274029302,None,s,1,0.5617397677233384,524.7034274029302,None,None,None,,,,,,,03__HAB,25,M,3,2021_Oct_28_1353,Partial repeat,2021.2.3,120.09760193740416,
3,3,0,1,1,2,2,3,3,0,0,1,1,1,1,0,0,86,86,86,1,0,1,0,,,,,,,,,0.9130634850274327,525.3195671263347,None,"[87. 93. 87. 87. 93. 87. 93. 87. 87. 93. 87. 93. 87. 87. 93. 87. 93. 87.
 93. 93. 87. 87. 93. 93. 87. 93. 93. 93. 87. 87. 87. 87. 87. 93.]",526.3103937530104,None,s,1,0.650458150965278,526.3103937530104,None,None,None,,,,,,,03__HAB,25,M,3,2021_Oct_28_1353,Partial repeat,2021.2.3,120.09760193740416,
3,3,0,1,1,2,2,3,3,0,0,1,1,1,1,0,0,86,86,86,,,,,,,,,,,,,,,,,,,,,,,,,,,,,,,,03__HAB,25,M,3,2021_Oct_28_1353,Partial repeat,2021.2.3,120.09760193740416,
3,3,0,1,1,2,3,2,3,1,0,0,0,0,1,0,0,87,87,87,0,0,0,0,,,,,,,526.9847911159741,None,0.9254411581318444,528.2503792439238,None,"[93. 93. 93. 87. 87. 87. 93. 93. 93. 93. 87. 93. 87. 87. 93. 93. 87. 87.
 87. 87. 93. 87. 87. 87. 87. 93. 93. 93. 93. 87. 93. 87. 93. 87.]",529.2661740718377,None,l,1,0.5271094255131175,529.2661740718377,None,None,None,,,,,,,03__HAB,25,M,3,2021_Oct_28_1353,Partial repeat,2021.2.3,120.09760193740416,
3,3,0,1,1,2,3,2,3,1,0,0,0,0,1,0,0,87,87,87,1,0,1,0,,,,,,,,,0.7859271876419633,529.857339179729,None,"[93. 93. 93. 87. 87. 87. 87. 87. 87. 87. 87. 87. 87. 93. 87. 93. 93. 93.
 93. 87. 87. 87. 93. 93. 93. 93. 87. 93. 93. 93. 87. 93. 87. 93.]",530.7316065895102,None,s,1,0.8380743695834099,530.7316065895102,None,None,None,,,,,,,03__HAB,25,M,3,2021_Oct_28_1353,Partial repeat,2021.2.3,120.09760193740416,
3,3,0,1,1,2,3,2,3,1,0,0,0,0,1,0,0,87,87,87,,,,,,,,,,,,,,,,,,,,,,,,,,,,,,,,03__HAB,25,M,3,2021_Oct_28_1353,Partial repeat,2021.2.3,120.09760193740416,
3,3,0,1,1,2,3,3,2,1,0,0,0,0,1,0,0,88,88,88,0,0,0,0,,,,,,,531.580874688827,None,0.930578270480549,532.2053292350392,None,"[87. 87. 93. 87. 93. 87. 87. 93. 87. 93. 87. 93. 93. 87. 93. 93. 93. 87.
 93. 93. 87. 93. 87. 93. 93. 87. 87. 93. 87. 87. 87. 87. 93. 87.]",533.2211240629549,None,l,1,0.5071924646999832,533.2211240629549,None,None,None,,,,,,,03__HAB,25,M,3,2021_Oct_28_1353,Partial repeat,2021.2.3,120.09760193740416,
3,3,0,1,1,2,3,3,2,1,0,0,0,0,1,0,0,88,88,88,1,0,1,0,,,,,,,,,0.9636575963192242,533.7956431688308,None,"[87. 93. 93. 87. 87. 87. 87. 93. 93. 87. 87. 87. 87. 93. 93. 87. 93. 87.
 93. 87. 93. 87. 93. 93. 87. 87. 87. 93. 87. 87. 87. 93. 87. 87.]",534.8447498850237,None,s,1,0.7875815288753074,534.8447498850237,None,None,None,,,,,,,03__HAB,25,M,3,2021_Oct_28_1353,Partial repeat,2021.2.3,120.09760193740416,
3,3,0,1,1,2,3,3,2,1,0,0,0,0,1,0,0,88,88,88,,,,,,,,,,,,,,,,,,,,,,,,,,,,,,,,03__HAB,25,M,3,2021_Oct_28_1353,Partial repeat,2021.2.3,120.09760193740416,
3,3,0,1,1,3,3,3,3,1,0,1,1,0,1,0,0,89,89,89,0,0,0,0,,,,,,,535.6440709983108,None,0.7888863422120471,536.2185638056653,None,"[93. 87. 87. 87. 87. 93. 93. 93. 87. 93. 93. 93. 87. 93. 87. 87. 93. 87.
 93. 87. 93. 87. 93. 93. 87. 93. 87. 93. 93. 93. 93. 93. 93. 93.]",537.0845077333688,None,l,1,0.4518080989782902,537.0845077333688,None,None,None,,,,,,,03__HAB,25,M,3,2021_Oct_28_1353,Partial repeat,2021.2.3,120.09760193740416,
3,3,0,1,1,3,3,3,3,1,0,1,1,0,1,0,0,89,89,89,1,0,1,0,,,,,,,,,0.9472429475439629,537.6090541961203,None,"[93. 87. 93. 87. 87. 93. 87. 93. 87. 87. 87. 93. 87. 87. 93. 87. 87. 93.
 93. 93. 87. 87. 87. 87. 93. 87. 93. 93. 93. 93. 93. 93. 87. 87.]",538.6415389638241,None,s,1,0.4948802666112897,538.6415389638241,None,None,None,,,,,,,03__HAB,25,M,3,2021_Oct_28_1353,Partial repeat,2021.2.3,120.09760193740416,
3,3,0,1,1,3,3,3,3,1,0,1,1,0,1,0,0,89,89,89,,,,,,,,,,,,,,,,,,,,,,,,,,,,,,,,03__HAB,25,M,3,2021_Oct_28_1353,Partial repeat,2021.2.3,120.09760193740416,
3,3,0,1,1,3,3,3,2,0,1,1,0,0,1,0,0,90,90,90,0,0,0,0,,,,,,,539.157706781747,None,0.9129858430163373,539.8404859966777,None,"[87. 87. 87. 87. 87. 87. 87. 87. 93. 93. 87. 87. 93. 87. 87. 93. 93. 87.
 87. 87. 87. 93. 87. 87. 93. 93. 93. 87. 87. 87. 87. 87. 87. 87.]",540.8396280875895,None,s,1,0.5678666818203055,540.8396280875895,None,None,None,,,,,,,03__HAB,25,M,3,2021_Oct_28_1353,Partial repeat,2021.2.3,120.09760193740416,
3,3,0,1,1,3,3,3,2,0,1,1,0,0,1,0,0,90,90,90,1,0,1,0,,,,,,,,,0.8482043398397279,541.4807372950872,None,"[87. 93. 87. 93. 93. 93. 87. 93. 87. 93. 93. 93. 93. 93. 93. 87. 93. 93.
 87. 93. 87. 93. 93. 87. 93. 93. 87. 93. 87. 87. 93. 93. 93. 87.]",542.4049520116114,None,l,1,0.7625257728032011,542.4049520116114,None,None,None,,,,,,,03__HAB,25,M,3,2021_Oct_28_1353,Partial repeat,2021.2.3,120.09760193740416,
3,3,0,1,1,3,3,3,2,0,1,1,0,0,1,0,0,90,90,90,,,,,,,,,,,,,,,,,,,,,,,,,,,,,,,,03__HAB,25,M,3,2021_Oct_28_1353,Partial repeat,2021.2.3,120.09760193740416,
3,3,0,1,1,3,3,2,2,0,1,1,1,0,1,0,0,91,91,91,0,0,0,0,,,,,,,543.1876149357631,None,0.8559888578030234,543.7704293009137,None,"[87. 87. 87. 87. 93. 87. 93. 87. 93. 93. 93. 93. 93. 87. 87. 87. 87. 87.
 93. 87. 87. 87. 93. 87. 87. 87. 87. 87. 93. 93. 93. 93. 87. 93.]",544.7113137522665,None,s,1,0.5361586826438725,544.7113137522665,None,None,None,,,,,,,03__HAB,25,M,3,2021_Oct_28_1353,Partial repeat,2021.2.3,120.09760193740416,
3,3,0,1,1,3,3,2,2,0,1,1,1,0,1,0,0,91,91,91,1,0,1,0,,,,,,,,,0.8215328985320581,545.319118127185,None,"[93. 87. 93. 93. 93. 93. 93. 87. 93. 87. 87. 87. 87. 87. 87. 87. 93. 93.
 93. 93. 87. 87. 87. 87. 87. 93. 87. 93. 93. 87. 93. 93. 87. 93.]",546.2266480353392,None,l,1,0.5408484787531052,546.2266480353392,None,None,None,,,,,,,03__HAB,25,M,3,2021_Oct_28_1353,Partial repeat,2021.2.3,120.09760193740416,
3,3,0,1,1,3,3,2,2,0,1,1,1,0,1,0,0,91,91,91,,,,,,,,,,,,,,,,,,,,,,,,,,,,,,,,03__HAB,25,M,3,2021_Oct_28_1353,Partial repeat,2021.2.3,120.09760193740416,
3,3,0,1,1,2,2,3,2,0,1,1,0,0,1,0,0,92,92,92,0,0,0,0,,,,,,,546.7762249177849,None,0.7454326264479685,547.2424579367962,None,"[87. 87. 87. 93. 87. 93. 93. 93. 87. 93. 87. 87. 87. 93. 93. 93. 93. 87.
 93. 87. 87. 93. 93. 93. 87. 87. 93. 87. 93. 87. 87. 87. 93. 93.]",548.0751028047689,None,s,1,1.2524511940446246,548.0751028047689,None,None,None,,,,,,,03__HAB,25,M,3,2021_Oct_28_1353,Partial repeat,2021.2.3,120.09760193740416,
3,3,0,1,1,2,2,3,2,0,1,1,0,0,1,0,0,92,92,92,1,0,1,0,,,,,,,,,0.913733224474276,549.3906305423334,None,"[93. 87. 87. 93. 87. 87. 93. 93. 87. 87. 93. 93. 87. 87. 93. 87. 93. 93.
 87. 93. 87. 93. 93. 93. 87. 87. 87. 87. 87. 87. 93. 87. 87. 93.]",550.3814427368925,None,l,1,0.7861392794657149,550.3814427368925,None,None,None,,,,,,,03__HAB,25,M,3,2021_Oct_28_1353,Partial repeat,2021.2.3,120.09760193740416,
3,3,0,1,1,2,2,3,2,0,1,1,0,0,1,0,0,92,92,92,,,,,,,,,,,,,,,,,,,,,,,,,,,,,,,,03__HAB,25,M,3,2021_Oct_28_1353,Partial repeat,2021.2.3,120.09760193740416,
3,3,0,1,1,2,3,2,2,0,1,0,1,0,1,0,0,93,93,93,0,0,0,0,,,,,,,551.1890818801257,None,0.9098949902620083,551.8551878323797,None,"[87. 87. 87. 93. 93. 93. 93. 93. 87. 87. 87. 87. 93. 87. 93. 87. 93. 87.
 87. 93. 93. 87. 87. 93. 93. 87. 87. 93. 93. 93. 87. 93. 93. 87.]",552.8543523732478,None,s,1,1.2732687188654381,552.8543523732478,None,None,None,,,,,,,03__HAB,25,M,3,2021_Oct_28_1353,Partial repeat,2021.2.3,120.09760193740416,
3,3,0,1,1,2,3,2,2,0,1,0,1,0,1,0,0,93,93,93,1,0,1,0,,,,,,,,,0.7527302741240515,554.1865273956828,None,"[87. 87. 87. 87. 93. 93. 93. 87. 87. 87. 93. 87. 87. 93. 93. 87. 87. 87.
 93. 93. 93. 87. 87. 93. 93. 87. 87. 93. 87. 87. 93. 87. 93. 93.]",555.0274880486049,None,l,1,0.7481632521739812,555.0274880486049,None,None,None,,,,,,,03__HAB,25,M,3,2021_Oct_28_1353,Partial repeat,2021.2.3,120.09760193740416,
3,3,0,1,1,2,3,2,2,0,1,0,1,0,1,0,0,93,93,93,,,,,,,,,,,,,,,,,,,,,,,,,,,,,,,,03__HAB,25,M,3,2021_Oct_28_1353,Partial repeat,2021.2.3,120.09760193740416,
3,3,0,1,1,3,3,2,3,1,0,1,0,0,1,0,0,94,94,94,0,0,0,0,,,,,,,555.7934870107747,None,0.7873238063023502,556.3097112743035,None,"[87. 87. 87. 87. 87. 87. 93. 93. 87. 87. 93. 93. 93. 87. 87. 93. 93. 93.
 87. 87. 93. 93. 87. 87. 93. 93. 87. 87. 93. 87. 87. 93. 87. 87.]",557.1756346763323,None,l,1,0.5520394618251885,557.1756346763323,None,None,None,,,,,,,03__HAB,25,M,3,2021_Oct_28_1353,Partial repeat,2021.2.3,120.09760193740416,
3,3,0,1,1,3,3,2,3,1,0,1,0,0,1,0,0,94,94,94,1,0,1,0,,,,,,,,,0.7341529701893907,557.8000969196728,None,"[87. 87. 87. 87. 93. 93. 87. 93. 87. 93. 87. 87. 87. 87. 87. 93. 93. 87.
 87. 87. 93. 93. 93. 93. 87. 87. 93. 93. 93. 93. 93. 93. 87. 87.]",558.6244131741478,None,s,1,1.1183200747473165,558.6244131741478,None,None,None,,,,,,,03__HAB,25,M,3,2021_Oct_28_1353,Partial repeat,2021.2.3,120.09760193740416,
3,3,0,1,1,3,3,2,3,1,0,1,0,0,1,0,0,94,94,94,,,,,,,,,,,,,,,,,,,,,,,,,,,,,,,,03__HAB,25,M,3,2021_Oct_28_1353,Partial repeat,2021.2.3,120.09760193740416,
3,3,0,1,1,2,3,2,2,1,0,0,1,0,1,0,0,95,95,95,0,0,0,0,,,,,,,559.773440802348,None,0.7717608665682242,561.2804878439892,None,"[87. 93. 87. 93. 93. 87. 87. 87. 93. 87. 93. 93. 87. 93. 93. 93. 93. 93.
 87. 93. 93. 87. 93. 87. 87. 93. 93. 93. 93. 93. 87. 93. 87. 93.]",562.1380656346955,None,l,1,0.772688227109029,562.1380656346955,None,None,None,,,,,,,03__HAB,25,M,3,2021_Oct_28_1353,Partial repeat,2021.2.3,120.09760193740416,
3,3,0,1,1,2,3,2,2,1,0,0,1,0,1,0,0,95,95,95,1,0,1,0,,,,,,,,,0.9252943113857367,562.9706736205935,None,"[87. 93. 93. 93. 87. 93. 93. 87. 87. 87. 93. 87. 87. 93. 93. 93. 93. 87.
 87. 93. 93. 93. 87. 87. 93. 87. 93. 87. 93. 93. 87. 87. 87. 93.]",563.9864979541671,None,s,1,0.6852077986623044,563.9864979541671,None,None,None,,,,,,,03__HAB,25,M,3,2021_Oct_28_1353,Partial repeat,2021.2.3,120.09760193740416,
3,3,0,1,1,2,3,2,2,1,0,0,1,0,1,0,0,95,95,95,,,,,,,,,,,,,,,,,,,,,,,,,,,,,,,,03__HAB,25,M,3,2021_Oct_28_1353,Partial repeat,2021.2.3,120.09760193740416,
3,3,0,1,1,2,2,2,2,1,1,1,1,1,1,0,0,96,96,96,0,0,0,0,,,,,,,564.694211053973,None,0.9106186573360605,565.3936228009461,None,"[87. 87. 93. 93. 93. 87. 87. 87. 93. 87. 93. 87. 93. 93. 93. 93. 87. 87.
 93. 87. 93. 87. 87. 87. 93. 93. 87. 87. 93. 87. 87. 93. 93. 87.]",566.3927478940332,None,l,1,0.5660774202133325,566.3927478940332,None,None,None,,,,,,,03__HAB,25,M,3,2021_Oct_28_1353,Partial repeat,2021.2.3,120.09760193740416,
3,3,0,1,1,2,2,2,2,1,1,1,1,1,1,0,0,96,96,96,1,0,1,0,,,,,,,,,0.919774383366569,567.0255634458244,None,"[87. 87. 93. 87. 87. 87. 93. 87. 87. 87. 93. 87. 93. 87. 93. 87. 87. 87.
 87. 87. 93. 87. 93. 87. 93. 93. 87. 87. 93. 87. 87. 93. 87. 93.]",568.0330149074125,None,l,1,0.6538615645149548,568.0330149074125,None,None,None,,,,,,,03__HAB,25,M,3,2021_Oct_28_1353,Partial repeat,2021.2.3,120.09760193740416,
3,3,0,1,1,2,2,2,2,1,1,1,1,1,1,0,0,96,96,96,,,,,,,,,,,,,,,,,,,,,,,,,,,,,,,,03__HAB,25,M,3,2021_Oct_28_1353,Partial repeat,2021.2.3,120.09760193740416,
3,3,0,1,1,3,3,3,2,0,0,1,0,1,1,0,0,97,97,97,0,0,0,0,,,,,,,568.7157562781304,None,0.9033686704475068,569.3236129293782,None,"[93. 87. 93. 87. 93. 93. 93. 93. 93. 87. 87. 87. 93. 87. 87. 93. 87. 93.
 87. 93. 87. 93. 87. 93. 93. 87. 93. 87. 93. 93. 87. 93. 87. 87.]",570.306080154045,None,s,1,0.7647358107569744,570.306080154045,None,None,None,,,,,,,03__HAB,25,M,3,2021_Oct_28_1353,Partial repeat,2021.2.3,120.09760193740416,
3,3,0,1,1,3,3,3,2,0,0,1,0,1,1,0,0,97,97,97,1,0,1,0,,,,,,,,,0.9812382078496469,571.1303790899801,None,"[87. 87. 93. 93. 87. 93. 93. 93. 87. 93. 87. 93. 87. 93. 93. 93. 87. 93.
 93. 93. 87. 93. 87. 93. 87. 87. 87. 93. 87. 93. 87. 87. 93. 93.]",572.1961356567535,None,s,1,0.841907860174615,572.1961356567535,None,None,None,,,,,,,03__HAB,25,M,3,2021_Oct_28_1353,Partial repeat,2021.2.3,120.09760193740416,
3,3,0,1,1,3,3,3,2,0,0,1,0,1,1,0,0,97,97,97,,,,,,,,,,,,,,,,,,,,,,,,,,,,,,,,03__HAB,25,M,3,2021_Oct_28_1353,Partial repeat,2021.2.3,120.09760193740416,
3,3,0,1,1,2,3,3,2,0,1,0,0,0,1,0,0,98,98,98,0,0,0,0,,,,,,,573.0620532859357,None,0.8986866466613652,573.6865190571261,None,"[93. 93. 87. 87. 93. 93. 87. 87. 87. 87. 87. 93. 93. 93. 87. 93. 87. 93.
 87. 87. 87. 87. 87. 87. 93. 93. 93. 93. 87. 87. 93. 87. 93. 93.]",574.6606993610731,None,s,1,0.6340690406068461,574.6606993610731,None,None,None,,,,,,,03__HAB,25,M,3,2021_Oct_28_1353,Partial repeat,2021.2.3,120.09760193740416,
3,3,0,1,1,2,3,3,2,0,1,0,0,0,1,0,0,98,98,98,1,0,1,0,,,,,,,,,0.8444077027678659,575.3684143851624,None,"[93. 93. 93. 93. 87. 87. 93. 93. 93. 93. 87. 93. 87. 93. 87. 93. 87. 87.
 87. 87. 93. 87. 87. 93. 87. 93. 87. 87. 93. 93. 93. 87. 87. 87.]",576.2926162731401,None,l,1,0.6175724911645375,576.2926162731401,None,None,None,,,,,,,03__HAB,25,M,3,2021_Oct_28_1353,Partial repeat,2021.2.3,120.09760193740416,
3,3,0,1,1,2,3,3,2,0,1,0,0,0,1,0,0,98,98,98,,,,,,,,,,,,,,,,,,,,,,,,,,,,,,,,03__HAB,25,M,3,2021_Oct_28_1353,Partial repeat,2021.2.3,120.09760193740416,
3,3,0,1,1,2,2,3,2,1,1,1,0,1,1,0,0,99,99,99,0,0,0,0,,,,,,,576.9337630041373,None,0.9829351362302929,577.5248825706858,None,"[87. 87. 93. 93. 93. 93. 87. 93. 87. 93. 87. 87. 93. 93. 93. 87. 87. 87.
 93. 87. 93. 87. 87. 93. 93. 93. 93. 87. 87. 87. 93. 93. 87. 87.]",578.5823384260511,None,l,1,0.807690276469657,578.5823384260511,None,None,None,,,,,,,03__HAB,25,M,3,2021_Oct_28_1353,Partial repeat,2021.2.3,120.09760193740416,
3,3,0,1,1,2,2,3,2,1,1,1,0,1,1,0,0,99,99,99,1,0,1,0,,,,,,,,,0.8718396025273408,579.4565772923161,None,"[93. 87. 93. 87. 87. 87. 93. 93. 87. 93. 93. 87. 93. 87. 87. 87. 93. 87.
 93. 87. 87. 93. 87. 87. 93. 93. 87. 93. 93. 93. 93. 93. 87. 93.]",580.4057833014649,None,l,1,0.5522639614009677,580.4057833014649,None,None,None,,,,,,,03__HAB,25,M,3,2021_Oct_28_1353,Partial repeat,2021.2.3,120.09760193740416,
3,3,0,1,1,2,2,3,2,1,1,1,0,1,1,0,0,99,99,99,,,,,,,,,,,,,,,,,,,,,,,,,,,,,,,,03__HAB,25,M,3,2021_Oct_28_1353,Partial repeat,2021.2.3,120.09760193740416,
3,3,0,1,1,2,3,2,3,1,1,0,0,1,1,0,0,100,100,100,0,0,0,0,,,,,,,580.980284126661,None,0.7994432216086554,581.5880795215962,None,"[93. 93. 87. 93. 93. 93. 93. 93. 93. 87. 93. 87. 87. 93. 93. 87. 93. 93.
 93. 93. 87. 93. 93. 87. 87. 87. 93. 87. 93. 87. 87. 93. 93. 87.]",582.4623494970874,None,l,1,0.4957311199977994,582.4623494970874,None,None,None,,,,,,,03__HAB,25,M,3,2021_Oct_28_1353,Partial repeat,2021.2.3,120.09760193740416,
3,3,0,1,1,2,3,2,3,1,1,0,0,1,1,0,0,100,100,100,1,0,1,0,,,,,,,,,0.7392305735770581,583.0285236330692,None,"[87. 87. 87. 93. 87. 93. 87. 93. 87. 87. 87. 93. 87. 87. 93. 87. 93. 93.
 87. 87. 93. 93. 93. 87. 87. 87. 87. 87. 93. 87. 93. 87. 87. 87.]",583.8445035769182,None,l,1,0.7296205494676542,583.8445035769182,None,None,None,,,,,,,03__HAB,25,M,3,2021_Oct_28_1353,Partial repeat,2021.2.3,120.09760193740416,
