prime_tar_pos,probe_tar_pos,dimension,tar_color,tar_shape,prime_dist_color,probe_dist_color,prime_dist_shape,probe_dist_shape,prime_tar_ori,probe_tar_ori,col_rep,shape_rep,resp_rep,pos_fixed,sparse,MainLoop.thisRepN,MainLoop.thisTrialN,MainLoop.thisN,MainLoop.thisIndex,PrimeProbe.thisRepN,PrimeProbe.thisTrialN,PrimeProbe.thisN,PrimeProbe.thisIndex,Instruction.started,Instruction.stopped,instruction_key.keys,instruction_key.rt,instruction_key.started,instruction_key.stopped,PairStartText.started,PairStartText.stopped,fixdur,FixCross.started,FixCross.stopped,dist_ori,SearchFixCross.started,SearchFixCross.stopped,key_resp.keys,key_resp.corr,key_resp.rt,key_resp.started,key_resp.stopped,feedback_text.started,feedback_text.stopped,text_finish.started,text_finish.stopped,finish_key.keys,finish_key.rt,finish_key.started,finish_key.stopped,participant,age,gender,group,date,expName,psychopyVersion,frameRate,
,,,,,,,,,,,,,,,,,,,,,,,,27.36588587852748,None,space,2.9814434917680046,27.36588587852748,None,,,,,,,,,,,,,,,,,,,,,,04,23,F,4,2021_Oct_28_1717,Partial repeat,2021.2.3,120.10222790790904,
5,5,0,1,1,2,3,3,2,1,0,0,0,0,1,0,0,0,0,0,0,0,0,0,,,,,,,195.5476833888897,None,0.8446076375161253,211.98300345793177,None,"[93. 87. 93. 93. 87. 93. 93. 87. 93. 87. 87. 87. 87. 93. 87. 93. 93. 87.
 87. 93. 93. 87. 93. 93. 87. 87. 87. 93. 93. 93. 87. 93. 87. 93.]",212.91553460083378,None,l,1,2.080196364560834,212.91553460083378,None,None,None,,,,,,,04,23,F,4,2021_Oct_28_1717,Partial repeat,2021.2.3,120.10222790790904,
5,5,0,1,1,2,3,3,2,1,0,0,0,0,1,0,0,0,0,0,1,0,1,0,,,,,,,,,0.7779194052613654,215.0720207463237,None,"[93. 87. 93. 87. 87. 93. 87. 93. 87. 87. 87. 87. 93. 87. 93. 93. 87. 93.
 87. 87. 87. 93. 93. 87. 87. 87. 93. 87. 87. 93. 87. 93. 87. 93.]",215.93795473190403,None,s,1,1.4246502308596973,215.93795473190403,None,None,None,,,,,,,04,23,F,4,2021_Oct_28_1717,Partial repeat,2021.2.3,120.10222790790904,
5,5,0,1,1,2,3,3,2,1,0,0,0,0,1,0,0,0,0,0,,,,,,,,,,,,,,,,,,,,,,,,,,,,,,,,04,23,F,4,2021_Oct_28_1717,Partial repeat,2021.2.3,120.10222790790904,
5,5,0,1,1,2,2,2,2,1,1,1,1,1,1,0,0,1,1,1,0,0,0,0,,,,,,,217.3867232875964,None,0.7728880306575117,218.51074839819557,None,"[87. 93. 93. 93. 87. 87. 93. 87. 93. 93. 93. 87. 87. 93. 93. 87. 87. 87.
 93. 87. 93. 93. 93. 93. 87. 87. 87. 87. 93. 93. 93. 93. 87. 93.]",219.3683415831547,None,l,1,0.9218946589389816,219.3683415831547,None,None,None,,,,,,,04,23,F,4,2021_Oct_28_1717,Partial repeat,2021.2.3,120.10222790790904,
5,5,0,1,1,2,2,2,2,1,1,1,1,1,1,0,0,1,1,1,1,0,1,0,,,,,,,,,0.8610502050890003,220.35917205839723,None,"[87. 87. 93. 87. 87. 93. 87. 93. 87. 87. 93. 87. 87. 87. 93. 87. 93. 93.
 93. 93. 87. 87. 87. 93. 93. 87. 93. 87. 93. 87. 87. 93. 87. 93.]",221.30835208973804,None,l,1,1.2379871732919128,221.30835208973804,None,None,None,,,,,,,04,23,F,4,2021_Oct_28_1717,Partial repeat,2021.2.3,120.10222790790904,
5,5,0,1,1,2,2,2,2,1,1,1,1,1,1,0,0,1,1,1,,,,,,,,,,,,,,,,,,,,,,,,,,,,,,,,04,23,F,4,2021_Oct_28_1717,Partial repeat,2021.2.3,120.10222790790904,
5,5,0,1,1,3,2,3,2,0,0,0,0,1,1,0,0,2,2,2,0,0,0,0,,,,,,,222.5572772178457,None,0.9983082082894117,223.29830605449388,None,"[87. 87. 87. 93. 93. 93. 87. 93. 93. 87. 87. 93. 87. 93. 87. 93. 87. 93.
 87. 93. 93. 93. 87. 87. 87. 93. 93. 93. 93. 87. 87. 87. 93. 93.]",224.37240566687979,None,s,1,1.0870804836522439,224.37240566687979,None,None,None,,,,,,,04,23,F,4,2021_Oct_28_1717,Partial repeat,2021.2.3,120.10222790790904,
5,5,0,1,1,3,2,3,2,0,0,0,0,1,1,0,0,2,2,2,1,0,1,0,,,,,,,,,0.8350017469524601,225.52141950439182,None,"[93. 93. 93. 87. 93. 93. 87. 87. 93. 87. 87. 93. 87. 87. 87. 93. 87. 93.
 87. 93. 93. 93. 87. 93. 93. 87. 87. 87. 87. 93. 87. 93. 93. 87.]",226.44562363736623,None,s,1,1.2367691027429828,226.44562363736623,None,None,None,,,,,,,04,23,F,4,2021_Oct_28_1717,Partial repeat,2021.2.3,120.10222790790904,
5,5,0,1,1,3,2,3,2,0,0,0,0,1,1,0,0,2,2,2,,,,,,,,,,,,,,,,,,,,,,,,,,,,,,,,04,23,F,4,2021_Oct_28_1717,Partial repeat,2021.2.3,120.10222790790904,
5,5,0,1,1,2,2,2,3,1,1,1,0,1,1,0,0,3,3,3,0,0,0,0,,,,,,,227.70288892466488,None,0.8472521832981309,229.1016941379312,None,"[87. 93. 87. 93. 87. 93. 93. 87. 87. 93. 93. 93. 93. 87. 87. 93. 93. 93.
 93. 93. 87. 87. 87. 93. 87. 87. 87. 93. 87. 87. 87. 93. 87. 87.]",230.0342339400995,None,l,1,1.1041482241562335,230.0342339400995,None,None,None,,,,,,,04,23,F,4,2021_Oct_28_1717,Partial repeat,2021.2.3,120.10222790790904,
5,5,0,1,1,2,2,2,3,1,1,1,0,1,1,0,0,3,3,3,1,0,1,0,,,,,,,,,0.8853130062345522,231.20821565813822,None,"[93. 87. 93. 93. 93. 93. 87. 87. 93. 87. 87. 87. 87. 87. 93. 87. 87. 87.
 93. 93. 87. 93. 87. 93. 93. 93. 93. 93. 93. 93. 87. 93. 93. 93.]",232.1823869821019,None,s,0,2.539136675255577,232.1823869821019,None,234.73852470425118,None,,,,,,,04,23,F,4,2021_Oct_28_1717,Partial repeat,2021.2.3,120.10222790790904,
5,5,0,1,1,2,2,2,3,1,1,1,0,1,1,0,0,3,3,3,,,,,,,,,,,,,,,,,,,,,,,,,,,,,,,,04,23,F,4,2021_Oct_28_1717,Partial repeat,2021.2.3,120.10222790790904,
5,5,0,1,1,2,3,2,2,0,1,0,1,0,1,0,0,4,4,4,0,0,0,0,,,,,,,235.23811162503625,None,0.8730192069690851,235.7792893369733,None,"[93. 93. 93. 87. 87. 87. 93. 87. 93. 93. 87. 93. 87. 87. 87. 93. 87. 87.
 93. 93. 93. 93. 93. 93. 87. 93. 87. 93. 93. 87. 87. 87. 93. 93.]",236.736832618888,None,s,1,1.3607275048962038,236.736832618888,None,None,None,,,,,,,04,23,F,4,2021_Oct_28_1717,Partial repeat,2021.2.3,120.10222790790904,
5,5,0,1,1,2,3,2,2,0,1,0,1,0,1,0,0,4,4,4,1,0,1,0,,,,,,,,,0.9247541290457438,238.16894683400824,None,"[93. 87. 93. 93. 87. 87. 93. 93. 93. 93. 93. 87. 93. 87. 93. 93. 93. 87.
 93. 87. 93. 87. 93. 87. 87. 93. 87. 87. 87. 93. 93. 87. 93. 87.]",239.16809662204832,None,l,1,0.7534911139009637,239.16809662204832,None,None,None,,,,,,,04,23,F,4,2021_Oct_28_1717,Partial repeat,2021.2.3,120.10222790790904,
5,5,0,1,1,2,3,2,2,0,1,0,1,0,1,0,0,4,4,4,,,,,,,,,,,,,,,,,,,,,,,,,,,,,,,,04,23,F,4,2021_Oct_28_1717,Partial repeat,2021.2.3,120.10222790790904,
5,5,0,1,1,3,2,2,3,0,0,0,0,1,1,0,0,5,5,5,0,0,0,0,,,,,,,239.93410328134996,None,0.7363093183854812,240.57521569598248,None,"[87. 93. 93. 87. 87. 93. 93. 93. 93. 87. 87. 93. 87. 93. 93. 87. 93. 93.
 87. 93. 93. 93. 93. 87. 87. 87. 93. 93. 93. 93. 87. 93. 93. 87.]",241.3911959605466,None,s,1,1.0264611085694924,241.3911959605466,None,None,None,,,,,,,04,23,F,4,2021_Oct_28_1717,Partial repeat,2021.2.3,120.10222790790904,
5,5,0,1,1,3,2,2,3,0,0,0,0,1,1,0,0,5,5,5,1,0,1,0,,,,,,,,,0.9269186048534767,242.49024421063586,None,"[87. 93. 93. 93. 93. 87. 93. 93. 87. 87. 87. 93. 93. 87. 87. 93. 93. 93.
 93. 87. 93. 93. 93. 87. 87. 93. 87. 93. 93. 93. 93. 87. 93. 87.]",243.50603134142148,None,s,1,0.7356247963398346,243.50603134142148,None,None,None,,,,,,,04,23,F,4,2021_Oct_28_1717,Partial repeat,2021.2.3,120.10222790790904,
5,5,0,1,1,3,2,2,3,0,0,0,0,1,1,0,0,5,5,5,,,,,,,,,,,,,,,,,,,,,,,,,,,,,,,,04,23,F,4,2021_Oct_28_1717,Partial repeat,2021.2.3,120.10222790790904,
5,5,0,1,1,2,3,3,2,0,0,0,0,1,1,0,0,6,6,6,0,0,0,0,,,,,,,244.2637186879183,None,0.9721100488118777,244.94649245071923,None,"[93. 93. 87. 93. 93. 87. 87. 87. 87. 93. 93. 93. 87. 87. 93. 87. 93. 87.
 93. 87. 93. 87. 87. 87. 93. 93. 87. 87. 87. 93. 93. 93. 93. 87.]",245.99557383053252,None,s,1,1.1892204135983775,245.99557383053252,None,None,None,,,,,,,04,23,F,4,2021_Oct_28_1717,Partial repeat,2021.2.3,120.10222790790904,
5,5,0,1,1,2,3,3,2,0,0,0,0,1,1,0,0,6,6,6,1,0,1,0,,,,,,,,,0.8520659441824805,247.25284007997107,None,"[93. 87. 93. 93. 93. 93. 93. 87. 87. 87. 87. 93. 93. 93. 87. 87. 87. 93.
 87. 93. 87. 87. 87. 87. 93. 93. 93. 93. 93. 93. 93. 93. 87. 87.]",248.19369470495076,None,s,1,0.799052019672672,248.19369470495076,None,None,None,,,,,,,04,23,F,4,2021_Oct_28_1717,Partial repeat,2021.2.3,120.10222790790904,
5,5,0,1,1,2,3,3,2,0,0,0,0,1,1,0,0,6,6,6,,,,,,,,,,,,,,,,,,,,,,,,,,,,,,,,04,23,F,4,2021_Oct_28_1717,Partial repeat,2021.2.3,120.10222790790904,
5,5,0,1,1,3,2,2,3,1,1,0,0,1,1,0,0,7,7,7,0,0,0,0,,,,,,,249.00134475245068,None,0.7769313372665994,249.67576841393384,None,"[93. 87. 87. 93. 93. 93. 93. 93. 93. 87. 93. 87. 93. 93. 87. 93. 93. 93.
 87. 87. 87. 87. 87. 93. 87. 87. 93. 93. 87. 93. 93. 87. 93. 87.]",250.5416911745342,None,l,1,0.9151282417660696,250.5416911745342,None,None,None,,,,,,,04,23,F,4,2021_Oct_28_1717,Partial repeat,2021.2.3,120.10222790790904,
5,5,0,1,1,3,2,2,3,1,1,0,0,1,1,0,0,7,7,7,1,0,1,0,,,,,,,,,0.8828960636678908,251.5241872634324,None,"[93. 93. 87. 93. 87. 87. 93. 87. 93. 93. 87. 93. 87. 87. 93. 93. 87. 87.
 87. 87. 87. 87. 87. 87. 93. 93. 93. 93. 87. 93. 87. 87. 93. 87.]",252.4900376710284,None,l,1,0.9187872641159629,252.4900376710284,None,None,None,,,,,,,04,23,F,4,2021_Oct_28_1717,Partial repeat,2021.2.3,120.10222790790904,
5,5,0,1,1,3,2,2,3,1,1,0,0,1,1,0,0,7,7,7,,,,,,,,,,,,,,,,,,,,,,,,,,,,,,,,04,23,F,4,2021_Oct_28_1717,Partial repeat,2021.2.3,120.10222790790904,
5,5,0,1,1,3,3,2,2,0,1,1,1,0,1,0,0,8,8,8,0,0,0,0,,,,,,,253.42257234178032,None,0.9203328686846226,254.13029153514435,None,"[87. 93. 93. 93. 87. 93. 93. 93. 93. 93. 93. 87. 93. 93. 93. 93. 87. 87.
 87. 87. 93. 93. 93. 87. 93. 93. 93. 93. 93. 93. 87. 93. 87. 87.]",255.13775871170583,None,s,1,1.263091357130179,255.13775871170583,None,None,None,,,,,,,04,23,F,4,2021_Oct_28_1717,Partial repeat,2021.2.3,120.10222790790904,
5,5,0,1,1,3,3,2,2,0,1,1,1,0,1,0,0,8,8,8,1,0,1,0,,,,,,,,,0.7754874814336888,256.4699642019368,None,"[93. 87. 93. 87. 93. 87. 87. 87. 87. 87. 93. 93. 93. 93. 87. 93. 87. 87.
 93. 93. 93. 93. 87. 93. 87. 87. 93. 87. 87. 87. 87. 93. 93. 93.]",257.33587317185084,None,l,1,1.0501583215045684,257.33587317185084,None,None,None,,,,,,,04,23,F,4,2021_Oct_28_1717,Partial repeat,2021.2.3,120.10222790790904,
5,5,0,1,1,3,3,2,2,0,1,1,1,0,1,0,0,8,8,8,,,,,,,,,,,,,,,,,,,,,,,,,,,,,,,,04,23,F,4,2021_Oct_28_1717,Partial repeat,2021.2.3,120.10222790790904,
5,5,0,1,1,2,3,2,3,0,1,0,0,0,1,0,0,9,9,9,0,0,0,0,,,,,,,258.4016448121656,None,0.8473203531580652,259.0427613960783,None,"[93. 93. 93. 93. 87. 93. 87. 93. 87. 87. 93. 87. 87. 87. 87. 93. 87. 93.
 93. 87. 87. 87. 93. 87. 87. 87. 87. 93. 87. 93. 87. 93. 93. 87.]",259.9752973496834,None,s,1,1.5456308065149642,259.9752973496834,None,None,None,,,,,,,04,23,F,4,2021_Oct_28_1717,Partial repeat,2021.2.3,120.10222790790904,
5,5,0,1,1,2,3,2,3,0,1,0,0,0,1,0,0,9,9,9,1,0,1,0,,,,,,,,,0.8274926577924799,261.59059487896957,None,"[93. 93. 93. 87. 87. 93. 93. 87. 87. 93. 93. 87. 87. 87. 93. 87. 93. 93.
 87. 87. 87. 87. 93. 87. 87. 93. 87. 93. 87. 87. 93. 93. 93. 93.]",262.506483547706,None,l,1,1.2225531482617953,262.506483547706,None,None,None,,,,,,,04,23,F,4,2021_Oct_28_1717,Partial repeat,2021.2.3,120.10222790790904,
5,5,0,1,1,2,3,2,3,0,1,0,0,0,1,0,0,9,9,9,,,,,,,,,,,,,,,,,,,,,,,,,,,,,,,,04,23,F,4,2021_Oct_28_1717,Partial repeat,2021.2.3,120.10222790790904,
5,5,0,1,1,3,3,3,3,1,0,1,1,0,1,0,0,10,10,10,0,0,0,0,,,,,,,263.74707012019644,None,0.9837351119598035,264.413166771752,None,"[87. 93. 87. 93. 87. 87. 93. 93. 93. 93. 87. 87. 87. 87. 87. 87. 87. 87.
 93. 93. 93. 87. 93. 93. 93. 87. 87. 93. 87. 87. 93. 93. 87. 93.]",265.48725740415466,None,l,1,0.7527502653028932,265.48725740415466,None,None,None,,,,,,,04,23,F,4,2021_Oct_28_1717,Partial repeat,2021.2.3,120.10222790790904,
5,5,0,1,1,3,3,3,3,1,0,1,1,0,1,0,0,10,10,10,1,0,1,0,,,,,,,,,0.9365335467620723,266.30321040805575,None,"[93. 93. 87. 87. 93. 87. 87. 87. 93. 87. 87. 93. 87. 87. 93. 93. 93. 93.
 93. 93. 93. 87. 93. 87. 87. 93. 87. 87. 87. 93. 93. 93. 87. 93.]",267.3273508472921,None,s,1,0.9446842521647341,267.3273508472921,None,None,None,,,,,,,04,23,F,4,2021_Oct_28_1717,Partial repeat,2021.2.3,120.10222790790904,
5,5,0,1,1,3,3,3,3,1,0,1,1,0,1,0,0,10,10,10,,,,,,,,,,,,,,,,,,,,,,,,,,,,,,,,04,23,F,4,2021_Oct_28_1717,Partial repeat,2021.2.3,120.10222790790904,
5,5,0,1,1,3,2,2,2,1,0,0,1,0,1,0,0,11,11,11,0,0,0,0,,,,,,,268.2848742449569,None,0.8940224766963278,269.1008333424179,None,"[87. 93. 87. 93. 93. 93. 93. 87. 87. 87. 87. 93. 87. 93. 93. 87. 87. 87.
 93. 93. 93. 87. 87. 87. 87. 87. 93. 87. 87. 87. 93. 87. 87. 93.]",270.08332654489277,None,l,1,0.8607675941057096,270.08332654489277,None,None,None,,,,,,,04,23,F,4,2021_Oct_28_1717,Partial repeat,2021.2.3,120.10222790790904,
5,5,0,1,1,3,2,2,2,1,0,0,1,0,1,0,0,11,11,11,1,0,1,0,,,,,,,,,0.8156002571959193,271.0158474249547,None,"[87. 93. 87. 93. 93. 93. 93. 93. 93. 93. 93. 93. 93. 93. 87. 87. 93. 93.
 87. 93. 87. 87. 87. 87. 87. 93. 93. 87. 87. 87. 87. 93. 87. 93.]",271.9150756595627,None,s,1,1.1570438517373987,271.9150756595627,None,None,None,,,,,,,04,23,F,4,2021_Oct_28_1717,Partial repeat,2021.2.3,120.10222790790904,
5,5,0,1,1,3,2,2,2,1,0,0,1,0,1,0,0,11,11,11,,,,,,,,,,,,,,,,,,,,,,,,,,,,,,,,04,23,F,4,2021_Oct_28_1717,Partial repeat,2021.2.3,120.10222790790904,
5,5,0,1,1,3,3,2,2,1,0,1,1,0,1,0,0,12,12,12,0,0,0,0,,,,,,,273.08906764043786,None,0.7471619698998725,274.14651387439153,None,"[87. 93. 87. 93. 93. 87. 87. 93. 87. 87. 87. 93. 93. 87. 93. 87. 93. 93.
 93. 87. 87. 87. 87. 87. 93. 87. 93. 87. 93. 93. 93. 93. 87. 87.]",274.97081762103335,None,l,1,0.7418180981694604,274.97081762103335,None,None,None,,,,,,,04,23,F,4,2021_Oct_28_1717,Partial repeat,2021.2.3,120.10222790790904,
5,5,0,1,1,3,3,2,2,1,0,1,1,0,1,0,0,12,12,12,1,0,1,0,,,,,,,,,0.997994810890789,275.7867840949075,None,"[87. 93. 87. 93. 87. 87. 93. 93. 87. 87. 93. 87. 93. 93. 93. 93. 93. 87.
 87. 93. 93. 87. 93. 93. 93. 93. 93. 93. 93. 93. 87. 93. 93. 93.]",276.8691760801448,None,s,1,1.450181284602877,276.8691760801448,None,None,None,,,,,,,04,23,F,4,2021_Oct_28_1717,Partial repeat,2021.2.3,120.10222790790904,
5,5,0,1,1,3,3,2,2,1,0,1,1,0,1,0,0,12,12,12,,,,,,,,,,,,,,,,,,,,,,,,,,,,,,,,04,23,F,4,2021_Oct_28_1717,Partial repeat,2021.2.3,120.10222790790904,
5,5,0,1,1,3,2,3,2,1,1,0,0,1,1,0,0,13,13,13,0,0,0,0,,,,,,,278.3429487570065,None,0.8153061896446767,279.3587224178191,None,"[87. 87. 87. 87. 93. 93. 93. 87. 93. 87. 93. 93. 87. 93. 93. 93. 93. 87.
 87. 93. 87. 93. 93. 87. 87. 93. 87. 93. 87. 93. 87. 93. 87. 87.]",280.25796187740343,None,l,1,0.7973682728625135,280.25796187740343,None,None,None,,,,,,,04,23,F,4,2021_Oct_28_1717,Partial repeat,2021.2.3,120.10222790790904,
5,5,0,1,1,3,2,3,2,1,1,0,0,1,1,0,0,13,13,13,1,0,1,0,,,,,,,,,0.9173863637731938,281.1155544209396,None,"[93. 87. 87. 93. 93. 87. 93. 87. 93. 87. 93. 87. 93. 87. 93. 93. 93. 87.
 87. 93. 87. 93. 93. 87. 87. 87. 87. 93. 87. 87. 87. 87. 87. 93.]",282.12302737034406,None,l,1,2.660245215665782,282.12302737034406,None,None,None,,,,,,,04,23,F,4,2021_Oct_28_1717,Partial repeat,2021.2.3,120.10222790790904,
5,5,0,1,1,3,2,3,2,1,1,0,0,1,1,0,0,13,13,13,,,,,,,,,,,,,,,,,,,,,,,,,,,,,,,,04,23,F,4,2021_Oct_28_1717,Partial repeat,2021.2.3,120.10222790790904,
5,5,0,1,1,3,3,3,3,1,1,1,1,1,1,0,0,14,14,14,0,0,0,0,,,,,,,284.812398213493,None,0.9990304810858603,285.353590036837,None,"[87. 87. 93. 93. 93. 93. 87. 87. 93. 93. 93. 87. 87. 87. 87. 93. 87. 87.
 87. 87. 87. 87. 87. 93. 87. 87. 87. 93. 87. 93. 87. 87. 87. 87.]",286.43601473486706,None,s,0,2.235378488236165,286.43601473486706,None,288.6840995931416,None,,,,,,,04,23,F,4,2021_Oct_28_1717,Partial repeat,2021.2.3,120.10222790790904,
5,5,0,1,1,3,3,3,3,1,1,1,1,1,1,0,0,14,14,14,1,0,1,0,,,,,,,,,0.7900490892388377,289.23360174929985,None,"[87. 87. 87. 93. 87. 87. 93. 93. 87. 87. 87. 87. 87. 87. 87. 93. 93. 93.
 93. 93. 93. 93. 87. 87. 93. 87. 93. 93. 87. 87. 93. 87. 93. 87.]",290.09954535629004,None,l,1,0.9558627274054743,290.09954535629004,None,None,None,,,,,,,04,23,F,4,2021_Oct_28_1717,Partial repeat,2021.2.3,120.10222790790904,
5,5,0,1,1,3,3,3,3,1,1,1,1,1,1,0,0,14,14,14,,,,,,,,,,,,,,,,,,,,,,,,,,,,,,,,04,23,F,4,2021_Oct_28_1717,Partial repeat,2021.2.3,120.10222790790904,
5,5,0,1,1,2,2,3,3,0,1,1,1,0,1,0,0,15,15,15,0,0,0,0,,,,,,,291.07370577598704,None,0.8284552880513094,291.67322194733424,None,"[87. 87. 87. 93. 93. 87. 93. 87. 93. 93. 87. 87. 93. 87. 87. 93. 93. 87.
 93. 93. 87. 87. 93. 93. 87. 93. 87. 93. 93. 93. 87. 87. 93. 93.]",292.5890920146776,None,s,1,1.1054448695504107,292.5890920146776,None,None,None,,,,,,,04,23,F,4,2021_Oct_28_1717,Partial repeat,2021.2.3,120.10222790790904,
5,5,0,1,1,2,2,3,3,0,1,1,1,0,1,0,0,15,15,15,1,0,1,0,,,,,,,,,0.9808920580226346,293.7630811091294,None,"[87. 93. 93. 93. 93. 87. 93. 93. 93. 87. 93. 93. 87. 87. 87. 87. 93. 87.
 93. 87. 93. 87. 87. 87. 87. 87. 87. 87. 87. 93. 87. 87. 87. 87.]",294.8288335066245,None,l,1,0.7376693460355455,294.8288335066245,None,None,None,,,,,,,04,23,F,4,2021_Oct_28_1717,Partial repeat,2021.2.3,120.10222790790904,
5,5,0,1,1,2,2,3,3,0,1,1,1,0,1,0,0,15,15,15,,,,,,,,,,,,,,,,,,,,,,,,,,,,,,,,04,23,F,4,2021_Oct_28_1717,Partial repeat,2021.2.3,120.10222790790904,
5,5,0,1,1,2,3,2,3,1,1,0,0,1,1,0,0,16,16,16,0,0,0,0,,,,,,,295.58650032744845,None,0.890502848666303,296.15269915838144,None,"[93. 93. 87. 87. 87. 93. 87. 93. 87. 93. 87. 93. 87. 87. 93. 87. 93. 87.
 87. 87. 87. 87. 93. 93. 93. 87. 93. 87. 87. 93. 93. 87. 87. 93.]",297.12687304805513,None,l,1,1.0636417659407016,297.12687304805513,None,None,None,,,,,,,04,23,F,4,2021_Oct_28_1717,Partial repeat,2021.2.3,120.10222790790904,
5,5,0,1,1,2,3,2,3,1,1,0,0,1,1,0,0,16,16,16,1,0,1,0,,,,,,,,,0.7569885109489847,298.2592293378584,None,"[87. 87. 87. 87. 87. 93. 87. 93. 93. 93. 87. 93. 87. 87. 87. 93. 87. 87.
 87. 93. 93. 93. 93. 87. 87. 87. 87. 87. 87. 93. 87. 87. 93. 87.]",299.10019897076563,None,l,1,2.4024238108504505,299.10019897076563,None,None,None,,,,,,,04,23,F,4,2021_Oct_28_1717,Partial repeat,2021.2.3,120.10222790790904,
5,5,0,1,1,2,3,2,3,1,1,0,0,1,1,0,0,16,16,16,,,,,,,,,,,,,,,,,,,,,,,,,,,,,,,,04,23,F,4,2021_Oct_28_1717,Partial repeat,2021.2.3,120.10222790790904,
5,5,0,1,1,2,2,3,3,0,0,1,1,1,1,0,0,17,17,17,0,0,0,0,,,,,,,301.5231026097754,None,0.8066406089240401,302.57220804311146,None,"[87. 93. 87. 93. 93. 93. 93. 87. 87. 87. 93. 87. 87. 93. 87. 93. 87. 93.
 93. 87. 93. 93. 87. 93. 93. 93. 87. 87. 87. 93. 93. 93. 87. 93.]",303.46310862636165,None,s,1,2.167791929219675,303.46310862636165,None,None,None,,,,,,,04,23,F,4,2021_Oct_28_1717,Partial repeat,2021.2.3,120.10222790790904,
5,5,0,1,1,2,2,3,3,0,0,1,1,1,1,0,0,17,17,17,1,0,1,0,,,,,,,,,0.7632224381988674,305.67788576563544,None,"[93. 93. 87. 93. 87. 93. 93. 87. 87. 87. 93. 93. 87. 93. 87. 93. 93. 93.
 87. 87. 93. 93. 87. 87. 93. 87. 93. 93. 87. 93. 93. 93. 93. 93.]",306.52714841281704,None,s,1,0.9749631511949701,306.52714841281704,None,None,None,,,,,,,04,23,F,4,2021_Oct_28_1717,Partial repeat,2021.2.3,120.10222790790904,
5,5,0,1,1,2,2,3,3,0,0,1,1,1,1,0,0,17,17,17,,,,,,,,,,,,,,,,,,,,,,,,,,,,,,,,04,23,F,4,2021_Oct_28_1717,Partial repeat,2021.2.3,120.10222790790904,
5,5,0,1,1,2,2,2,3,0,1,1,0,0,1,0,0,18,18,18,0,0,0,0,,,,,,,307.534617192945,None,0.9616267295355622,308.40055310280513,None,"[93. 87. 93. 93. 87. 93. 93. 93. 93. 93. 87. 87. 87. 93. 93. 93. 93. 93.
 93. 87. 87. 87. 93. 93. 87. 87. 93. 87. 93. 87. 87. 93. 93. 93.]",309.44965725329166,None,s,1,1.2055367219509208,309.44965725329166,None,None,None,,,,,,,04,23,F,4,2021_Oct_28_1717,Partial repeat,2021.2.3,120.10222790790904,
5,5,0,1,1,2,2,2,3,0,1,1,0,0,1,0,0,18,18,18,1,0,1,0,,,,,,,,,0.9920774045506702,310.7152524369412,None,"[93. 87. 93. 93. 93. 93. 87. 93. 93. 87. 93. 87. 87. 93. 93. 93. 87. 87.
 87. 87. 87. 93. 93. 87. 93. 93. 87. 93. 87. 87. 93. 87. 93. 87.]",311.7976495535986,None,l,1,1.4333043687402096,311.7976495535986,None,None,None,,,,,,,04,23,F,4,2021_Oct_28_1717,Partial repeat,2021.2.3,120.10222790790904,
5,5,0,1,1,2,2,2,3,0,1,1,0,0,1,0,0,18,18,18,,,,,,,,,,,,,,,,,,,,,,,,,,,,,,,,04,23,F,4,2021_Oct_28_1717,Partial repeat,2021.2.3,120.10222790790904,
5,5,0,1,1,2,2,2,2,1,0,1,1,0,1,0,0,19,19,19,0,0,0,0,,,,,,,313.2464437663839,None,0.95614823284499,313.92916364928533,None,"[87. 93. 93. 87. 87. 87. 93. 93. 87. 87. 93. 87. 87. 93. 93. 87. 87. 93.
 87. 93. 93. 93. 87. 87. 93. 87. 87. 87. 87. 87. 87. 93. 87. 87.]",314.9699388655572,None,l,1,1.0918693802886992,314.9699388655572,None,None,None,,,,,,,04,23,F,4,2021_Oct_28_1717,Partial repeat,2021.2.3,120.10222790790904,
5,5,0,1,1,2,2,2,2,1,0,1,1,0,1,0,0,19,19,19,1,0,1,0,,,,,,,,,0.7012109224421325,316.1272886929801,None,"[87. 93. 93. 87. 93. 93. 87. 93. 93. 87. 93. 93. 93. 87. 87. 93. 93. 87.
 93. 93. 93. 93. 87. 93. 87. 87. 93. 87. 93. 87. 93. 93. 93. 93.]",316.9182792684878,None,s,1,1.271559801789408,316.9182792684878,None,None,None,,,,,,,04,23,F,4,2021_Oct_28_1717,Partial repeat,2021.2.3,120.10222790790904,
5,5,0,1,1,2,2,2,2,1,0,1,1,0,1,0,0,19,19,19,,,,,,,,,,,,,,,,,,,,,,,,,,,,,,,,04,23,F,4,2021_Oct_28_1717,Partial repeat,2021.2.3,120.10222790790904,
5,5,0,1,1,2,2,3,2,0,1,1,0,0,1,0,0,20,20,20,0,0,0,0,,,,,,,318.20883527696424,None,0.7971724703160288,319.35784783161944,None,"[93. 87. 93. 87. 87. 87. 87. 93. 87. 93. 93. 87. 87. 93. 93. 93. 87. 87.
 87. 93. 87. 87. 93. 87. 93. 87. 87. 87. 93. 87. 87. 87. 87. 93.]",320.23211844854086,None,s,1,1.1737713150250784,320.23211844854086,None,None,None,,,,,,,04,23,F,4,2021_Oct_28_1717,Partial repeat,2021.2.3,120.10222790790904,
5,5,0,1,1,2,2,3,2,0,1,1,0,0,1,0,0,20,20,20,1,0,1,0,,,,,,,,,0.8271834611449307,321.4727149631508,None,"[87. 93. 93. 87. 87. 87. 93. 87. 87. 93. 93. 87. 93. 93. 93. 93. 93. 87.
 93. 93. 93. 93. 93. 93. 93. 87. 93. 93. 93. 87. 93. 93. 87. 87.]",322.388635703257,None,l,1,1.0484591804415686,322.388635703257,None,None,None,,,,,,,04,23,F,4,2021_Oct_28_1717,Partial repeat,2021.2.3,120.10222790790904,
5,5,0,1,1,2,2,3,2,0,1,1,0,0,1,0,0,20,20,20,,,,,,,,,,,,,,,,,,,,,,,,,,,,,,,,04,23,F,4,2021_Oct_28_1717,Partial repeat,2021.2.3,120.10222790790904,
5,5,0,1,1,3,2,3,3,1,0,0,1,0,1,0,0,21,21,21,0,0,0,0,,,,,,,323.45435538795573,None,0.7321318217811981,324.170404156961,None,"[87. 87. 87. 87. 93. 93. 87. 87. 93. 93. 87. 87. 93. 87. 87. 93. 87. 87.
 93. 87. 93. 93. 93. 87. 87. 87. 87. 93. 93. 93. 87. 87. 93. 93.]",324.98635042587557,None,l,1,2.626630252965697,324.98635042587557,None,None,None,,,,,,,04,23,F,4,2021_Oct_28_1717,Partial repeat,2021.2.3,120.10222790790904,
5,5,0,1,1,3,2,3,3,1,0,0,1,0,1,0,0,21,21,21,1,0,1,0,,,,,,,,,0.968142963160388,327.6757360218544,None,"[87. 87. 87. 93. 87. 93. 87. 93. 87. 93. 93. 93. 93. 93. 87. 87. 87. 87.
 93. 87. 87. 87. 93. 87. 87. 93. 93. 93. 93. 93. 93. 93. 93. 93.]",328.7331912357913,None,s,1,0.9923641132081684,328.7331912357913,None,None,None,,,,,,,04,23,F,4,2021_Oct_28_1717,Partial repeat,2021.2.3,120.10222790790904,
5,5,0,1,1,3,2,3,3,1,0,0,1,0,1,0,0,21,21,21,,,,,,,,,,,,,,,,,,,,,,,,,,,,,,,,04,23,F,4,2021_Oct_28_1717,Partial repeat,2021.2.3,120.10222790790904,
5,5,0,1,1,2,2,2,3,1,0,1,0,0,1,0,0,22,22,22,0,0,0,0,,,,,,,329.74895944447053,None,0.7880725452858309,330.68150854733904,None,"[93. 87. 87. 87. 87. 93. 93. 93. 93. 87. 93. 93. 87. 93. 87. 87. 93. 87.
 93. 93. 93. 87. 93. 87. 87. 93. 93. 93. 87. 93. 87. 93. 87. 87.]",331.5558121977665,None,l,1,1.3852617805277987,331.5558121977665,None,None,None,,,,,,,04,23,F,4,2021_Oct_28_1717,Partial repeat,2021.2.3,120.10222790790904,
5,5,0,1,1,2,2,2,3,1,0,1,0,0,1,0,0,22,22,22,1,0,1,0,,,,,,,,,0.8385886292968648,333.0128554870571,None,"[93. 93. 87. 87. 93. 93. 87. 87. 93. 93. 93. 93. 93. 93. 93. 93. 87. 93.
 93. 87. 87. 93. 93. 93. 93. 93. 87. 87. 93. 93. 93. 93. 93. 87.]",333.93704775362494,None,s,1,1.0040531646191084,333.93704775362494,None,None,None,,,,,,,04,23,F,4,2021_Oct_28_1717,Partial repeat,2021.2.3,120.10222790790904,
5,5,0,1,1,2,2,2,3,1,0,1,0,0,1,0,0,22,22,22,,,,,,,,,,,,,,,,,,,,,,,,,,,,,,,,04,23,F,4,2021_Oct_28_1717,Partial repeat,2021.2.3,120.10222790790904,
5,5,0,1,1,2,2,3,2,0,0,1,0,1,1,0,0,23,23,23,0,0,0,0,,,,,,,334.96118209930137,None,0.7511108381023266,335.86873958883007,None,"[87. 87. 93. 93. 87. 93. 87. 93. 93. 93. 87. 87. 87. 87. 87. 87. 87. 87.
 93. 93. 93. 87. 87. 87. 93. 87. 87. 87. 93. 87. 87. 93. 93. 87.]",336.7096922239107,None,s,1,1.975464105958963,336.7096922239107,None,None,None,,,,,,,04,23,F,4,2021_Oct_28_1717,Partial repeat,2021.2.3,120.10222790790904,
5,5,0,1,1,2,2,3,2,0,0,1,0,1,1,0,0,23,23,23,1,0,1,0,,,,,,,,,0.778909931735519,338.74961786965287,None,"[87. 87. 87. 93. 87. 93. 87. 87. 93. 93. 93. 87. 93. 93. 93. 87. 87. 93.
 93. 87. 87. 87. 87. 93. 87. 93. 93. 87. 87. 87. 93. 87. 87. 87.]",339.61554800666636,None,s,1,1.1807458753755782,339.61554800666636,None,None,None,,,,,,,04,23,F,4,2021_Oct_28_1717,Partial repeat,2021.2.3,120.10222790790904,
5,5,0,1,1,2,2,3,2,0,0,1,0,1,1,0,0,23,23,23,,,,,,,,,,,,,,,,,,,,,,,,,,,,,,,,04,23,F,4,2021_Oct_28_1717,Partial repeat,2021.2.3,120.10222790790904,
5,5,0,1,1,2,3,2,2,1,1,0,1,1,1,0,0,24,24,24,0,0,0,0,,,,,,,340.81450979234796,None,0.7743360823079192,342.263272895907,None,"[93. 87. 87. 93. 87. 87. 93. 93. 93. 93. 93. 87. 93. 87. 93. 87. 93. 87.
 93. 93. 87. 87. 87. 87. 93. 93. 87. 87. 87. 87. 93. 93. 93. 87.]",343.120875060853,None,l,1,1.6433875426228042,343.120875060853,None,None,None,,,,,,,04,23,F,4,2021_Oct_28_1717,Partial repeat,2021.2.3,120.10222790790904,
5,5,0,1,1,2,3,2,2,1,1,0,1,1,1,0,0,24,24,24,1,0,1,0,,,,,,,,,0.9297810498217711,344.82774628725747,None,"[87. 87. 87. 87. 93. 87. 93. 87. 93. 87. 93. 93. 87. 87. 87. 93. 93. 93.
 87. 93. 93. 93. 87. 93. 93. 87. 93. 93. 87. 87. 93. 93. 93. 93.]",345.8435440015928,None,l,1,1.3047661752680142,345.8435440015928,None,None,None,,,,,,,04,23,F,4,2021_Oct_28_1717,Partial repeat,2021.2.3,120.10222790790904,
5,5,0,1,1,2,3,2,2,1,1,0,1,1,1,0,0,24,24,24,,,,,,,,,,,,,,,,,,,,,,,,,,,,,,,,04,23,F,4,2021_Oct_28_1717,Partial repeat,2021.2.3,120.10222790790904,
5,5,0,1,1,3,3,3,2,1,1,1,0,1,1,0,0,25,25,25,0,0,0,0,,,,,,,347.1674118983465,None,0.9721980172471774,348.0250381168189,None,"[87. 93. 93. 87. 87. 87. 87. 87. 93. 93. 93. 87. 93. 87. 93. 93. 87. 87.
 93. 93. 87. 87. 87. 87. 87. 93. 93. 87. 93. 87. 87. 87. 87. 87.]",349.07412815590214,None,l,1,1.722233076012344,349.07412815590214,None,None,None,,,,,,,04,23,F,4,2021_Oct_28_1717,Partial repeat,2021.2.3,120.10222790790904,
5,5,0,1,1,3,3,3,2,1,1,1,0,1,1,0,0,25,25,25,1,0,1,0,,,,,,,,,0.848191065377132,350.864246390207,None,"[87. 93. 93. 87. 87. 93. 87. 93. 87. 93. 87. 93. 87. 93. 87. 87. 93. 93.
 87. 87. 87. 93. 87. 93. 93. 93. 87. 93. 93. 87. 87. 87. 93. 93.]",351.7884748974175,None,l,1,1.1039266110019526,351.7884748974175,None,None,None,,,,,,,04,23,F,4,2021_Oct_28_1717,Partial repeat,2021.2.3,120.10222790790904,
5,5,0,1,1,3,3,3,2,1,1,1,0,1,1,0,0,25,25,25,,,,,,,,,,,,,,,,,,,,,,,,,,,,,,,,04,23,F,4,2021_Oct_28_1717,Partial repeat,2021.2.3,120.10222790790904,
5,5,0,1,1,2,3,3,2,0,1,0,0,0,1,0,0,26,26,26,0,0,0,0,,,,,,,352.92082733865755,None,0.7778223442814057,354.98573080704955,None,"[93. 93. 93. 93. 87. 87. 87. 87. 87. 87. 93. 87. 93. 87. 87. 93. 93. 87.
 87. 93. 93. 87. 87. 87. 93. 93. 93. 87. 87. 93. 93. 93. 93. 93.]",355.85166415119966,None,s,1,0.9449382573984622,355.85166415119966,None,None,None,,,,,,,04,23,F,4,2021_Oct_28_1717,Partial repeat,2021.2.3,120.10222790790904,
5,5,0,1,1,2,3,3,2,0,1,0,0,0,1,0,0,26,26,26,1,0,1,0,,,,,,,,,0.7376503033154961,356.859149287724,None,"[87. 93. 87. 87. 87. 93. 87. 93. 87. 93. 87. 87. 93. 93. 87. 87. 93. 93.
 93. 93. 93. 87. 87. 87. 93. 87. 93. 93. 87. 87. 87. 87. 93. 93.]",357.6750843316586,None,l,1,0.9444116455415497,357.6750843316586,None,None,None,,,,,,,04,23,F,4,2021_Oct_28_1717,Partial repeat,2021.2.3,120.10222790790904,
5,5,0,1,1,2,3,3,2,0,1,0,0,0,1,0,0,26,26,26,,,,,,,,,,,,,,,,,,,,,,,,,,,,,,,,04,23,F,4,2021_Oct_28_1717,Partial repeat,2021.2.3,120.10222790790904,
5,5,0,1,1,3,3,3,3,0,1,1,1,0,1,0,0,27,27,27,0,0,0,0,,,,,,,358.6409344185413,None,0.7860305435961559,359.3070339565202,None,"[93. 93. 93. 93. 93. 87. 93. 87. 93. 87. 87. 87. 87. 87. 87. 87. 87. 93.
 93. 87. 87. 87. 93. 87. 93. 93. 87. 87. 87. 87. 87. 87. 93. 93.]",360.1812923863181,None,s,1,1.0306319899500522,360.1812923863181,None,None,None,,,,,,,04,23,F,4,2021_Oct_28_1717,Partial repeat,2021.2.3,120.10222790790904,
5,5,0,1,1,3,3,3,3,0,1,1,1,0,1,0,0,27,27,27,1,0,1,0,,,,,,,,,0.762666326626575,361.28033646713084,None,"[87. 87. 93. 87. 93. 87. 87. 87. 87. 93. 93. 93. 87. 87. 87. 87. 93. 87.
 93. 87. 87. 93. 87. 93. 87. 87. 93. 93. 93. 93. 93. 87. 93. 87.]",362.1296103392924,None,l,1,1.0675105350383092,362.1296103392924,None,None,None,,,,,,,04,23,F,4,2021_Oct_28_1717,Partial repeat,2021.2.3,120.10222790790904,
5,5,0,1,1,3,3,3,3,0,1,1,1,0,1,0,0,27,27,27,,,,,,,,,,,,,,,,,,,,,,,,,,,,,,,,04,23,F,4,2021_Oct_28_1717,Partial repeat,2021.2.3,120.10222790790904,
5,5,0,1,1,2,3,3,3,0,0,0,1,1,1,0,0,28,28,28,0,0,0,0,,,,,,,363.21203375447294,None,0.7902026565448886,364.8106612282172,None,"[87. 93. 93. 93. 93. 87. 93. 87. 87. 87. 87. 87. 87. 87. 93. 93. 93. 87.
 87. 87. 93. 93. 87. 93. 87. 87. 87. 87. 93. 87. 93. 87. 87. 93.]",365.68492158229856,None,s,1,1.0466898030790617,365.68492158229856,None,None,None,,,,,,,04,23,F,4,2021_Oct_28_1717,Partial repeat,2021.2.3,120.10222790790904,
5,5,0,1,1,2,3,3,3,0,0,0,1,1,1,0,0,28,28,28,1,0,1,0,,,,,,,,,0.8404391762243082,366.79232859296826,None,"[93. 87. 93. 93. 93. 93. 93. 87. 93. 93. 87. 87. 87. 87. 87. 87. 93. 93.
 93. 87. 87. 93. 87. 93. 93. 87. 93. 93. 87. 87. 93. 93. 93. 87.]",367.716513483123,None,s,1,0.9991212296845333,367.716513483123,None,None,None,,,,,,,04,23,F,4,2021_Oct_28_1717,Partial repeat,2021.2.3,120.10222790790904,
5,5,0,1,1,2,3,3,3,0,0,0,1,1,1,0,0,28,28,28,,,,,,,,,,,,,,,,,,,,,,,,,,,,,,,,04,23,F,4,2021_Oct_28_1717,Partial repeat,2021.2.3,120.10222790790904,
5,5,0,1,1,2,2,3,2,1,0,1,0,0,1,0,0,29,29,29,0,0,0,0,,,,,,,368.74062088884966,None,0.9918636064153676,369.3567753650823,None,"[87. 93. 93. 93. 87. 87. 87. 93. 87. 87. 93. 93. 93. 87. 93. 93. 93. 87.
 87. 93. 87. 93. 87. 93. 87. 87. 87. 87. 93. 93. 93. 93. 93. 87.]",370.4391821031495,None,l,1,1.6036155187321128,370.4391821031495,None,None,None,,,,,,,04,23,F,4,2021_Oct_28_1717,Partial repeat,2021.2.3,120.10222790790904,
5,5,0,1,1,2,2,3,2,1,0,1,0,0,1,0,0,29,29,29,1,0,1,0,,,,,,,,,0.9612017830685703,372.1044397677251,None,"[93. 93. 87. 93. 87. 87. 87. 93. 93. 93. 93. 93. 93. 87. 87. 87. 93. 87.
 93. 87. 93. 87. 87. 93. 93. 93. 93. 93. 93. 93. 93. 93. 87. 93.]",373.1535221096783,None,s,1,1.129202697371511,373.1535221096783,None,None,None,,,,,,,04,23,F,4,2021_Oct_28_1717,Partial repeat,2021.2.3,120.10222790790904,
5,5,0,1,1,2,2,3,2,1,0,1,0,0,1,0,0,29,29,29,,,,,,,,,,,,,,,,,,,,,,,,,,,,,,,,04,23,F,4,2021_Oct_28_1717,Partial repeat,2021.2.3,120.10222790790904,
5,5,0,1,1,3,2,2,3,1,0,0,0,0,1,0,0,30,30,30,0,0,0,0,,,,,,,374.3108722578145,None,0.8620018326757549,375.35998667113745,None,"[87. 87. 87. 93. 87. 93. 93. 93. 87. 93. 93. 93. 93. 93. 93. 93. 87. 87.
 87. 93. 87. 87. 93. 93. 93. 87. 87. 87. 93. 87. 93. 93. 87. 87.]",376.30915259107496,None,l,1,1.4296370078336622,376.30915259107496,None,None,None,,,,,,,04,23,F,4,2021_Oct_28_1717,Partial repeat,2021.2.3,120.10222790790904,
5,5,0,1,1,3,2,2,3,1,0,0,0,0,1,0,0,30,30,30,1,0,1,0,,,,,,,,,0.9500201438609327,377.8078889791868,None,"[93. 93. 87. 93. 93. 87. 93. 87. 87. 87. 93. 87. 93. 87. 87. 87. 87. 93.
 93. 93. 87. 93. 93. 93. 93. 93. 87. 87. 87. 93. 87. 93. 87. 87.]",378.8403230741278,None,s,1,1.8903338673408143,378.8403230741278,None,None,None,,,,,,,04,23,F,4,2021_Oct_28_1717,Partial repeat,2021.2.3,120.10222790790904,
5,5,0,1,1,3,2,2,3,1,0,0,0,0,1,0,0,30,30,30,,,,,,,,,,,,,,,,,,,,,,,,,,,,,,,,04,23,F,4,2021_Oct_28_1717,Partial repeat,2021.2.3,120.10222790790904,
5,5,0,1,1,3,2,2,2,0,0,0,1,1,1,0,0,31,31,31,0,0,0,0,,,,,,,380.7387030210557,None,0.7009746147897005,381.33819032817337,None,"[93. 93. 93. 93. 93. 87. 93. 87. 87. 93. 93. 93. 87. 93. 93. 87. 87. 87.
 87. 93. 87. 87. 87. 93. 93. 87. 93. 87. 87. 87. 93. 87. 93. 87.]",382.1292036743507,None,s,1,1.8656860590672295,382.1292036743507,None,None,None,,,,,,,04,23,F,4,2021_Oct_28_1717,Partial repeat,2021.2.3,120.10222790790904,
5,5,0,1,1,3,2,2,2,0,0,0,1,1,1,0,0,31,31,31,1,0,1,0,,,,,,,,,0.8146536380634781,384.0608810774429,None,"[87. 87. 93. 87. 93. 87. 87. 93. 93. 87. 93. 87. 87. 87. 93. 87. 93. 87.
 87. 93. 93. 87. 87. 93. 93. 87. 93. 87. 87. 93. 87. 87. 93. 87.]",384.96010033206403,None,s,1,1.0828178781594033,384.96010033206403,None,None,None,,,,,,,04,23,F,4,2021_Oct_28_1717,Partial repeat,2021.2.3,120.10222790790904,
5,5,0,1,1,3,2,2,2,0,0,0,1,1,1,0,0,31,31,31,,,,,,,,,,,,,,,,,,,,,,,,,,,,,,,,04,23,F,4,2021_Oct_28_1717,Partial repeat,2021.2.3,120.10222790790904,
5,5,0,1,1,3,2,3,3,1,1,0,1,1,1,0,0,32,32,32,0,0,0,0,,,,,,,386.05916044855985,None,0.9937260692861454,386.72525742083235,None,"[87. 87. 93. 93. 87. 87. 87. 87. 93. 87. 93. 93. 93. 87. 87. 87. 93. 87.
 93. 93. 87. 93. 87. 87. 93. 87. 93. 87. 87. 87. 93. 87. 93. 93.]",387.80767987386935,None,l,1,1.0505781357096566,387.80767987386935,None,None,None,,,,,,,04,23,F,4,2021_Oct_28_1717,Partial repeat,2021.2.3,120.10222790790904,
5,5,0,1,1,3,2,3,3,1,1,0,1,1,1,0,0,32,32,32,1,0,1,0,,,,,,,,,0.9744358353402873,388.9317226237181,None,"[93. 93. 93. 93. 87. 87. 87. 87. 87. 93. 87. 93. 87. 93. 93. 93. 93. 87.
 87. 93. 87. 93. 93. 93. 87. 93. 93. 93. 93. 93. 87. 93. 93. 87.]",389.98912491989904,None,l,1,1.0288760825642385,389.98912491989904,None,None,None,,,,,,,04,23,F,4,2021_Oct_28_1717,Partial repeat,2021.2.3,120.10222790790904,
5,5,0,1,1,3,2,3,3,1,1,0,1,1,1,0,0,32,32,32,,,,,,,,,,,,,,,,,,,,,,,,,,,,,,,,04,23,F,4,2021_Oct_28_1717,Partial repeat,2021.2.3,120.10222790790904,
5,5,0,1,1,2,3,3,3,1,1,0,1,1,1,0,0,33,33,33,0,0,0,0,,,,,,,391.0382361260854,None,0.8086006655141863,391.6877056977319,None,"[87. 93. 93. 87. 93. 93. 93. 87. 87. 93. 87. 87. 93. 93. 87. 93. 93. 87.
 93. 87. 87. 93. 87. 93. 87. 93. 87. 87. 93. 87. 93. 87. 87. 93.]",392.5785892831591,None,l,1,1.4634572272916557,392.5785892831591,None,None,None,,,,,,,04,23,F,4,2021_Oct_28_1717,Partial repeat,2021.2.3,120.10222790790904,
5,5,0,1,1,2,3,3,3,1,1,0,1,1,1,0,0,33,33,33,1,0,1,0,,,,,,,,,0.8648315015710282,394.10228938251385,None,"[93. 93. 93. 87. 93. 87. 93. 93. 93. 87. 93. 93. 87. 87. 93. 93. 87. 93.
 93. 93. 87. 93. 87. 93. 93. 93. 93. 93. 87. 87. 93. 93. 93. 87.]",395.0514703759982,None,l,1,1.5506172627756314,395.0514703759982,None,None,None,,,,,,,04,23,F,4,2021_Oct_28_1717,Partial repeat,2021.2.3,120.10222790790904,
5,5,0,1,1,2,3,3,3,1,1,0,1,1,1,0,0,33,33,33,,,,,,,,,,,,,,,,,,,,,,,,,,,,,,,,04,23,F,4,2021_Oct_28_1717,Partial repeat,2021.2.3,120.10222790790904,
5,5,0,1,1,2,3,3,3,1,0,0,1,0,1,0,0,34,34,34,0,0,0,0,,,,,,,396.61681707068783,None,0.9993337340814467,397.5160180446328,None,"[87. 93. 87. 93. 87. 93. 93. 87. 93. 93. 87. 87. 87. 93. 93. 87. 93. 93.
 93. 87. 93. 93. 87. 93. 93. 87. 93. 87. 93. 93. 87. 87. 87. 93.]",398.6234343560027,None,l,1,1.050704817607766,398.6234343560027,None,None,None,,,,,,,04,23,F,4,2021_Oct_28_1717,Partial repeat,2021.2.3,120.10222790790904,
5,5,0,1,1,2,3,3,3,1,0,0,1,0,1,0,0,34,34,34,1,0,1,0,,,,,,,,,0.9876531952577747,399.74745786303174,None,"[87. 87. 87. 93. 93. 93. 87. 87. 87. 87. 93. 87. 93. 87. 93. 93. 87. 93.
 87. 93. 93. 93. 93. 87. 93. 93. 93. 87. 93. 87. 93. 87. 93. 93.]",400.8132218062201,None,s,1,1.3251982022484299,400.8132218062201,None,None,None,,,,,,,04,23,F,4,2021_Oct_28_1717,Partial repeat,2021.2.3,120.10222790790904,
5,5,0,1,1,2,3,3,3,1,0,0,1,0,1,0,0,34,34,34,,,,,,,,,,,,,,,,,,,,,,,,,,,,,,,,04,23,F,4,2021_Oct_28_1717,Partial repeat,2021.2.3,120.10222790790904,
5,5,0,1,1,2,2,2,2,0,1,1,1,0,1,0,0,35,35,35,0,0,0,0,,,,,,,402.1620460378035,None,0.7132793193681657,402.8864394559896,None,"[93. 87. 87. 93. 87. 87. 87. 93. 87. 87. 87. 87. 93. 93. 93. 87. 87. 93.
 93. 87. 93. 93. 87. 87. 87. 87. 93. 87. 93. 93. 87. 87. 87. 87.]",403.6774191272343,None,s,1,1.0518112798017683,403.6774191272343,None,None,None,,,,,,,04,23,F,4,2021_Oct_28_1717,Partial repeat,2021.2.3,120.10222790790904,
5,5,0,1,1,2,2,2,2,0,1,1,1,0,1,0,0,35,35,35,1,0,1,0,,,,,,,,,0.8509609400889234,404.8014743849162,None,"[93. 87. 87. 93. 93. 87. 93. 93. 87. 87. 87. 87. 87. 87. 87. 87. 87. 93.
 93. 93. 93. 93. 93. 87. 87. 93. 87. 93. 93. 87. 93. 93. 93. 87.]",405.74232644418953,None,l,1,1.7709356929699425,405.74232644418953,None,None,None,,,,,,,04,23,F,4,2021_Oct_28_1717,Partial repeat,2021.2.3,120.10222790790904,
5,5,0,1,1,2,2,2,2,0,1,1,1,0,1,0,0,35,35,35,,,,,,,,,,,,,,,,,,,,,,,,,,,,,,,,04,23,F,4,2021_Oct_28_1717,Partial repeat,2021.2.3,120.10222790790904,
5,5,0,1,1,2,3,2,2,1,0,0,1,0,1,0,0,36,36,36,0,0,0,0,,,,,,,407.54079381766496,None,0.9718824284634757,408.1486078139933,None,"[87. 93. 93. 87. 87. 93. 87. 93. 87. 93. 87. 87. 87. 93. 87. 93. 87. 87.
 93. 93. 93. 93. 87. 93. 93. 93. 93. 87. 93. 87. 93. 93. 87. 93.]",409.20602999442417,None,l,1,1.5872873439730029,409.20602999442417,None,None,None,,,,,,,04,23,F,4,2021_Oct_28_1717,Partial repeat,2021.2.3,120.10222790790904,
5,5,0,1,1,2,3,2,2,1,0,0,1,0,1,0,0,36,36,36,1,0,1,0,,,,,,,,,0.8490694214318483,410.8629680254853,None,"[87. 93. 93. 87. 93. 93. 87. 87. 93. 87. 87. 93. 87. 93. 93. 93. 93. 93.
 93. 93. 93. 87. 87. 93. 93. 87. 87. 87. 87. 87. 93. 87. 93. 87.]",411.78716061276646,None,s,1,1.8221985672207666,411.78716061276646,None,None,None,,,,,,,04,23,F,4,2021_Oct_28_1717,Partial repeat,2021.2.3,120.10222790790904,
5,5,0,1,1,2,3,2,2,1,0,0,1,0,1,0,0,36,36,36,,,,,,,,,,,,,,,,,,,,,,,,,,,,,,,,04,23,F,4,2021_Oct_28_1717,Partial repeat,2021.2.3,120.10222790790904,
5,5,0,1,1,3,2,3,3,0,0,0,1,1,1,0,0,37,37,37,0,0,0,0,,,,,,,413.63558234868833,None,0.9297325279446487,414.86786275763734,None,"[87. 93. 87. 93. 87. 93. 87. 93. 93. 93. 93. 87. 87. 93. 87. 87. 93. 93.
 87. 87. 93. 87. 93. 87. 93. 87. 87. 87. 87. 93. 93. 87. 93. 87.]",415.88366945195594,None,s,1,1.3748873344811727,415.88366945195594,None,None,None,,,,,,,04,23,F,4,2021_Oct_28_1717,Partial repeat,2021.2.3,120.10222790790904,
5,5,0,1,1,3,2,3,3,0,0,0,1,1,1,0,0,37,37,37,1,0,1,0,,,,,,,,,0.7788885372439811,417.3157689142463,None,"[87. 87. 87. 93. 93. 87. 93. 87. 93. 87. 93. 87. 87. 87. 87. 93. 93. 87.
 87. 93. 87. 93. 93. 93. 87. 93. 93. 87. 93. 87. 93. 93. 93. 87.]",418.1817038619665,None,s,1,1.2028170699632028,418.1817038619665,None,None,None,,,,,,,04,23,F,4,2021_Oct_28_1717,Partial repeat,2021.2.3,120.10222790790904,
5,5,0,1,1,3,2,3,3,0,0,0,1,1,1,0,0,37,37,37,,,,,,,,,,,,,,,,,,,,,,,,,,,,,,,,04,23,F,4,2021_Oct_28_1717,Partial repeat,2021.2.3,120.10222790790904,
5,5,0,1,1,2,3,2,2,0,0,0,1,1,1,0,0,38,38,38,0,0,0,0,,,,,,,419.4056662409712,None,0.8046601883014515,421.9701300109082,None,"[93. 87. 87. 93. 93. 87. 93. 87. 93. 93. 93. 93. 87. 87. 87. 87. 93. 87.
 93. 87. 93. 87. 93. 93. 93. 93. 87. 93. 87. 87. 87. 93. 87. 87.]",422.86103091487166,None,s,1,1.7555042336534825,422.86103091487166,None,None,None,,,,,,,04,23,F,4,2021_Oct_28_1717,Partial repeat,2021.2.3,120.10222790790904,
5,5,0,1,1,2,3,2,2,0,0,0,1,1,1,0,0,38,38,38,1,0,1,0,,,,,,,,,0.7811053000465419,424.67615134606604,None,"[87. 93. 87. 93. 93. 87. 93. 87. 87. 93. 87. 93. 93. 87. 87. 87. 87. 87.
 93. 87. 87. 93. 87. 93. 93. 93. 93. 87. 87. 93. 87. 87. 93. 93.]",425.5420753895196,None,s,1,1.0424884539024788,425.5420753895196,None,None,None,,,,,,,04,23,F,4,2021_Oct_28_1717,Partial repeat,2021.2.3,120.10222790790904,
5,5,0,1,1,2,3,2,2,0,0,0,1,1,1,0,0,38,38,38,,,,,,,,,,,,,,,,,,,,,,,,,,,,,,,,04,23,F,4,2021_Oct_28_1717,Partial repeat,2021.2.3,120.10222790790904,
5,5,0,1,1,3,3,2,3,1,0,1,0,0,1,0,0,39,39,39,0,0,0,0,,,,,,,426.6078088649083,None,0.9339814968934195,427.157354638126,None,"[87. 93. 87. 93. 87. 87. 93. 93. 93. 93. 93. 87. 93. 93. 87. 87. 87. 93.
 93. 93. 93. 93. 93. 93. 87. 93. 87. 93. 93. 93. 93. 87. 93. 87.]",428.181481286676,None,l,1,0.9951196851288842,428.181481286676,None,None,None,,,,,,,04,23,F,4,2021_Oct_28_1717,Partial repeat,2021.2.3,120.10222790790904,
5,5,0,1,1,3,3,2,3,1,0,1,0,0,1,0,0,39,39,39,1,0,1,0,,,,,,,,,0.8120851793523992,429.2305671564791,None,"[87. 93. 93. 87. 87. 93. 93. 87. 87. 87. 93. 93. 87. 93. 87. 93. 87. 93.
 93. 87. 93. 93. 93. 87. 87. 93. 93. 93. 93. 93. 87. 93. 93. 87.]",430.12148185113256,None,s,1,2.495554572873516,430.12148185113256,None,None,None,,,,,,,04,23,F,4,2021_Oct_28_1717,Partial repeat,2021.2.3,120.10222790790904,
5,5,0,1,1,3,3,2,3,1,0,1,0,0,1,0,0,39,39,39,,,,,,,,,,,,,,,,,,,,,,,,,,,,,,,,04,23,F,4,2021_Oct_28_1717,Partial repeat,2021.2.3,120.10222790790904,
5,5,0,1,1,2,2,3,3,1,1,1,1,1,1,0,0,40,40,40,0,0,0,0,,,,,,,432.64435547134053,None,0.9850166502563298,433.1772077769201,None,"[93. 87. 93. 93. 87. 93. 93. 93. 87. 87. 87. 87. 93. 93. 87. 93. 87. 87.
 93. 93. 87. 87. 93. 87. 87. 93. 93. 87. 87. 87. 93. 87. 87. 93.]",434.2512971264696,None,s,0,1.084481420009979,434.2512971264696,None,435.35036846794173,None,,,,,,,04,23,F,4,2021_Oct_28_1717,Partial repeat,2021.2.3,120.10222790790904,
5,5,0,1,1,2,2,3,3,1,1,1,1,1,1,0,0,40,40,40,1,0,1,0,,,,,,,,,0.7887811770079989,435.89987832123006,None,"[87. 93. 87. 87. 87. 87. 87. 87. 87. 93. 87. 93. 93. 93. 93. 87. 87. 93.
 93. 93. 87. 87. 87. 93. 87. 93. 93. 93. 93. 87. 93. 93. 87. 93.]",436.7741261674746,None,l,1,1.3136249284725636,436.7741261674746,None,None,None,,,,,,,04,23,F,4,2021_Oct_28_1717,Partial repeat,2021.2.3,120.10222790790904,
5,5,0,1,1,2,2,3,3,1,1,1,1,1,1,0,0,40,40,40,,,,,,,,,,,,,,,,,,,,,,,,,,,,,,,,04,23,F,4,2021_Oct_28_1717,Partial repeat,2021.2.3,120.10222790790904,
5,5,0,1,1,3,3,2,3,0,1,1,0,0,1,0,0,41,41,41,0,0,0,0,,,,,,,438.1063271677194,None,0.7968876012080457,439.0971451351252,None,"[87. 93. 93. 87. 93. 87. 93. 93. 93. 87. 93. 87. 93. 93. 93. 93. 87. 87.
 87. 87. 93. 87. 87. 87. 87. 93. 93. 93. 87. 87. 93. 87. 87. 87.]",439.9797183877308,None,s,1,1.740097469290049,439.9797183877308,None,None,None,,,,,,,04,23,F,4,2021_Oct_28_1717,Partial repeat,2021.2.3,120.10222790790904,
5,5,0,1,1,3,3,2,3,0,1,1,0,0,1,0,0,41,41,41,1,0,1,0,,,,,,,,,0.9165587025726408,441.76984688487573,None,"[93. 93. 93. 87. 93. 93. 87. 87. 87. 93. 93. 93. 93. 93. 87. 93. 87. 93.
 93. 93. 87. 93. 93. 93. 93. 87. 87. 93. 93. 87. 87. 87. 93. 87.]",442.7690143121654,None,l,1,1.6388385398204264,442.7690143121654,None,None,None,,,,,,,04,23,F,4,2021_Oct_28_1717,Partial repeat,2021.2.3,120.10222790790904,
5,5,0,1,1,3,3,2,3,0,1,1,0,0,1,0,0,41,41,41,,,,,,,,,,,,,,,,,,,,,,,,,,,,,,,,04,23,F,4,2021_Oct_28_1717,Partial repeat,2021.2.3,120.10222790790904,
5,5,0,1,1,2,2,2,3,0,0,1,0,1,1,0,0,42,42,42,0,0,0,0,,,,,,,444.42592764827714,None,0.917464339299851,445.14198700083216,None,"[93. 87. 93. 87. 87. 93. 87. 93. 87. 87. 93. 87. 93. 87. 93. 93. 87. 93.
 93. 87. 93. 87. 93. 87. 93. 93. 87. 93. 87. 93. 87. 93. 93. 87.]",446.1494570638133,None,s,1,0.8842595502865152,446.1494570638133,None,None,None,,,,,,,04,23,F,4,2021_Oct_28_1717,Partial repeat,2021.2.3,120.10222790790904,
5,5,0,1,1,2,2,2,3,0,0,1,0,1,1,0,0,42,42,42,1,0,1,0,,,,,,,,,0.8228973173820471,447.09031649949975,None,"[87. 93. 93. 87. 87. 87. 93. 93. 93. 93. 87. 93. 93. 93. 93. 87. 87. 87.
 87. 93. 93. 87. 93. 93. 87. 87. 87. 93. 93. 93. 93. 87. 87. 93.]",447.9978576326321,None,s,1,1.0491891247693275,447.9978576326321,None,None,None,,,,,,,04,23,F,4,2021_Oct_28_1717,Partial repeat,2021.2.3,120.10222790790904,
5,5,0,1,1,2,2,2,3,0,0,1,0,1,1,0,0,42,42,42,,,,,,,,,,,,,,,,,,,,,,,,,,,,,,,,04,23,F,4,2021_Oct_28_1717,Partial repeat,2021.2.3,120.10222790790904,
5,5,0,1,1,3,3,2,2,0,0,1,1,1,1,0,0,43,43,43,0,0,0,0,,,,,,,449.0636565336099,None,0.7396553895840577,449.7213941038681,None,"[87. 87. 93. 93. 93. 93. 87. 87. 87. 93. 93. 87. 93. 87. 87. 93. 87. 93.
 87. 87. 93. 87. 93. 87. 93. 93. 93. 87. 87. 93. 87. 87. 93. 87.]",450.5373673127324,None,s,1,0.8296028838994971,450.5373673127324,None,None,None,,,,,,,04,23,F,4,2021_Oct_28_1717,Partial repeat,2021.2.3,120.10222790790904,
5,5,0,1,1,3,3,2,2,0,0,1,1,1,1,0,0,43,43,43,1,0,1,0,,,,,,,,,0.7417785146331448,451.43659009520707,None,"[93. 87. 93. 87. 93. 93. 93. 87. 87. 87. 93. 87. 93. 93. 93. 93. 87. 87.
 87. 93. 93. 87. 87. 93. 93. 87. 93. 87. 93. 87. 87. 87. 93. 87.]",452.2608842204354,None,s,1,1.1061026533061522,452.2608842204354,None,None,None,,,,,,,04,23,F,4,2021_Oct_28_1717,Partial repeat,2021.2.3,120.10222790790904,
5,5,0,1,1,3,3,2,2,0,0,1,1,1,1,0,0,43,43,43,,,,,,,,,,,,,,,,,,,,,,,,,,,,,,,,04,23,F,4,2021_Oct_28_1717,Partial repeat,2021.2.3,120.10222790790904,
5,5,0,1,1,3,2,2,2,0,1,0,1,0,1,0,0,44,44,44,0,0,0,0,,,,,,,453.3849138210244,None,0.9079567742403494,454.5006443137754,None,"[93. 87. 93. 87. 93. 87. 87. 93. 87. 87. 93. 93. 93. 93. 93. 93. 87. 87.
 93. 93. 93. 87. 93. 87. 93. 87. 93. 93. 93. 93. 93. 87. 93. 93.]",455.4914629226114,None,s,1,0.9635768534935778,455.4914629226114,None,None,None,,,,,,,04,23,F,4,2021_Oct_28_1717,Partial repeat,2021.2.3,120.10222790790904,
5,5,0,1,1,3,2,2,2,0,1,0,1,0,1,0,0,44,44,44,1,0,1,0,,,,,,,,,0.9536943583007791,456.5155786668947,None,"[87. 93. 87. 87. 87. 87. 87. 87. 87. 87. 87. 87. 93. 87. 93. 93. 93. 87.
 87. 87. 87. 93. 93. 87. 93. 93. 93. 93. 87. 87. 93. 87. 87. 87.]",457.5563692774231,None,l,1,1.0918257632292807,457.5563692774231,None,None,None,,,,,,,04,23,F,4,2021_Oct_28_1717,Partial repeat,2021.2.3,120.10222790790904,
5,5,0,1,1,3,2,2,2,0,1,0,1,0,1,0,0,44,44,44,,,,,,,,,,,,,,,,,,,,,,,,,,,,,,,,04,23,F,4,2021_Oct_28_1717,Partial repeat,2021.2.3,120.10222790790904,
5,5,0,1,1,2,3,2,3,1,0,0,0,0,1,0,0,45,45,45,0,0,0,0,,,,,,,458.6637740430997,None,0.9218075283582553,462.21072299767184,None,"[93. 93. 93. 93. 93. 87. 87. 87. 87. 87. 93. 93. 93. 87. 87. 93. 87. 93.
 87. 93. 93. 93. 87. 93. 93. 87. 87. 93. 93. 87. 93. 87. 93. 87.]",463.209869257862,None,l,1,1.069293703087169,463.209869257862,None,None,None,,,,,,,04,23,F,4,2021_Oct_28_1717,Partial repeat,2021.2.3,120.10222790790904,
5,5,0,1,1,2,3,2,3,1,0,0,0,0,1,0,0,45,45,45,1,0,1,0,,,,,,,,,0.7500016786775143,464.3422043805622,None,"[87. 87. 93. 87. 93. 87. 93. 87. 87. 87. 87. 87. 87. 93. 87. 93. 87. 93.
 93. 87. 87. 93. 93. 93. 93. 93. 93. 93. 87. 93. 87. 87. 93. 93.]",465.17488516846424,None,s,1,1.6313540447226842,465.17488516846424,None,None,None,,,,,,,04,23,F,4,2021_Oct_28_1717,Partial repeat,2021.2.3,120.10222790790904,
5,5,0,1,1,2,3,2,3,1,0,0,0,0,1,0,0,45,45,45,,,,,,,,,,,,,,,,,,,,,,,,,,,,,,,,04,23,F,4,2021_Oct_28_1717,Partial repeat,2021.2.3,120.10222790790904,
5,5,0,1,1,2,3,3,2,1,1,0,0,1,1,0,0,46,46,46,0,0,0,0,,,,,,,466.8234397439919,None,0.7494027484750374,468.02241948964,None,"[93. 87. 93. 87. 87. 87. 87. 93. 87. 93. 93. 93. 93. 93. 87. 87. 93. 87.
 93. 87. 87. 87. 93. 87. 87. 87. 93. 93. 93. 93. 87. 87. 87. 87.]",468.8550444733628,None,l,1,0.9601067315015825,468.8550444733628,None,None,None,,,,,,,04,23,F,4,2021_Oct_28_1717,Partial repeat,2021.2.3,120.10222790790904,
5,5,0,1,1,2,3,3,2,1,1,0,0,1,1,0,0,46,46,46,1,0,1,0,,,,,,,,,0.7033596064313744,469.87914803052627,None,"[87. 87. 87. 87. 93. 93. 87. 93. 87. 93. 93. 87. 87. 87. 93. 87. 87. 93.
 87. 87. 93. 93. 93. 87. 93. 93. 87. 93. 93. 87. 87. 87. 87. 87.]",470.67014053031744,None,l,1,0.904141232593247,470.67014053031744,None,None,None,,,,,,,04,23,F,4,2021_Oct_28_1717,Partial repeat,2021.2.3,120.10222790790904,
5,5,0,1,1,2,3,3,2,1,1,0,0,1,1,0,0,46,46,46,,,,,,,,,,,,,,,,,,,,,,,,,,,,,,,,04,23,F,4,2021_Oct_28_1717,Partial repeat,2021.2.3,120.10222790790904,
5,5,0,1,1,3,3,2,3,1,1,1,0,1,1,0,0,47,47,47,0,0,0,0,,,,,,,471.60269380246245,None,0.7263636933381595,472.24380236853176,None,"[93. 87. 87. 87. 87. 93. 93. 87. 93. 87. 87. 87. 87. 87. 87. 93. 93. 93.
 93. 87. 87. 93. 93. 87. 87. 93. 93. 93. 87. 87. 93. 87. 87. 93.]",473.05977557739607,None,l,1,0.7709023387506022,473.05977557739607,None,None,None,,,,,,,04,23,F,4,2021_Oct_28_1717,Partial repeat,2021.2.3,120.10222790790904,
5,5,0,1,1,3,3,2,3,1,1,1,0,1,1,0,0,47,47,47,1,0,1,0,,,,,,,,,0.8291829413030269,473.9007201946333,None,"[93. 87. 87. 93. 93. 93. 93. 93. 87. 87. 93. 93. 93. 87. 87. 93. 87. 87.
 87. 93. 87. 87. 93. 87. 87. 87. 87. 87. 93. 93. 93. 93. 87. 87.]",474.8166120705064,None,l,1,0.6937190643511713,474.8166120705064,None,None,None,,,,,,,04,23,F,4,2021_Oct_28_1717,Partial repeat,2021.2.3,120.10222790790904,
5,5,0,1,1,3,3,2,3,1,1,1,0,1,1,0,0,47,47,47,,,,,,,,,,,,,,,,,,,,,,,,,,,,,,,,04,23,F,4,2021_Oct_28_1717,Partial repeat,2021.2.3,120.10222790790904,
5,5,0,1,1,3,3,3,2,1,0,1,0,0,1,0,0,48,48,48,0,0,0,0,,,,,,,475.52431811461065,None,0.8525840615501347,476.2570834426406,None,"[93. 93. 87. 87. 87. 93. 87. 87. 87. 93. 93. 87. 87. 93. 93. 93. 93. 87.
 87. 93. 87. 87. 93. 87. 87. 93. 93. 87. 87. 87. 87. 93. 93. 93.]",477.19788996057105,None,l,1,1.8965172270509356,477.19788996057105,None,None,None,,,,,,,04,23,F,4,2021_Oct_28_1717,Partial repeat,2021.2.3,120.10222790790904,
5,5,0,1,1,3,3,3,2,1,0,1,0,0,1,0,0,48,48,48,1,0,1,0,,,,,,,,,0.7804444650413771,479.15455063844274,None,"[93. 93. 87. 87. 93. 87. 93. 93. 93. 93. 87. 93. 93. 87. 87. 87. 93. 87.
 87. 87. 87. 93. 93. 93. 87. 87. 87. 93. 87. 93. 93. 93. 93. 87.]",480.02049681114295,None,s,1,0.929036631830968,480.02049681114295,None,None,None,,,,,,,04,23,F,4,2021_Oct_28_1717,Partial repeat,2021.2.3,120.10222790790904,
5,5,0,1,1,3,3,3,2,1,0,1,0,0,1,0,0,48,48,48,,,,,,,,,,,,,,,,,,,,,,,,,,,,,,,,04,23,F,4,2021_Oct_28_1717,Partial repeat,2021.2.3,120.10222790790904,
5,5,0,1,1,3,2,2,2,1,1,0,1,1,1,0,0,49,49,49,0,0,0,0,,,,,,,480.9696537510972,None,0.9739319418713608,482.1353398891479,None,"[93. 93. 87. 93. 87. 87. 87. 87. 87. 93. 87. 93. 93. 93. 93. 87. 93. 93.
 93. 87. 93. 93. 87. 87. 87. 93. 87. 93. 93. 93. 87. 93. 93. 87.]",483.1844469260541,None,l,1,0.7100244684443169,483.1844469260541,None,None,None,,,,,,,04,23,F,4,2021_Oct_28_1717,Partial repeat,2021.2.3,120.10222790790904,
5,5,0,1,1,3,2,2,2,1,1,0,1,1,1,0,0,49,49,49,1,0,1,0,,,,,,,,,0.8521862517303646,483.96711337805755,None,"[87. 87. 93. 87. 87. 87. 93. 93. 87. 87. 93. 93. 93. 87. 93. 93. 87. 93.
 93. 87. 93. 87. 93. 87. 93. 87. 93. 93. 93. 93. 87. 87. 93. 93.]",484.9079667201804,None,l,1,0.8735823505267035,484.9079667201804,None,None,None,,,,,,,04,23,F,4,2021_Oct_28_1717,Partial repeat,2021.2.3,120.10222790790904,
5,5,0,1,1,3,2,2,2,1,1,0,1,1,1,0,0,49,49,49,,,,,,,,,,,,,,,,,,,,,,,,,,,,,,,,04,23,F,4,2021_Oct_28_1717,Partial repeat,2021.2.3,120.10222790790904,
5,5,0,1,1,3,3,3,3,0,0,1,1,1,1,0,0,50,50,50,0,0,0,0,,,,,,,485.7988487020375,None,0.7725612663328285,486.43167227167214,None,"[93. 87. 93. 93. 87. 93. 87. 87. 87. 87. 87. 93. 87. 93. 93. 87. 93. 93.
 87. 87. 93. 93. 93. 87. 87. 87. 87. 93. 93. 87. 87. 87. 87. 87.]",487.28929303801124,None,s,1,2.2522813819086878,487.28929303801124,None,None,None,,,,,,,04,23,F,4,2021_Oct_28_1717,Partial repeat,2021.2.3,120.10222790790904,
5,5,0,1,1,3,3,3,3,0,0,1,1,1,1,0,0,50,50,50,1,0,1,0,,,,,,,,,0.8172573695518572,489.612299497825,None,"[87. 93. 93. 93. 93. 87. 87. 87. 87. 87. 93. 93. 87. 87. 93. 93. 87. 87.
 93. 87. 87. 93. 93. 87. 93. 93. 87. 87. 93. 87. 93. 93. 93. 93.]",490.51983902739084,None,s,1,0.9898028937750496,490.51983902739084,None,None,None,,,,,,,04,23,F,4,2021_Oct_28_1717,Partial repeat,2021.2.3,120.10222790790904,
5,5,0,1,1,3,3,3,3,0,0,1,1,1,1,0,0,50,50,50,,,,,,,,,,,,,,,,,,,,,,,,,,,,,,,,04,23,F,4,2021_Oct_28_1717,Partial repeat,2021.2.3,120.10222790790904,
5,5,0,1,1,2,2,2,2,0,0,1,1,1,1,0,0,51,51,51,0,0,0,0,,,,,,,491.5273132596485,None,0.8066236838183957,492.2267169887782,None,"[93. 87. 87. 87. 87. 87. 87. 87. 93. 87. 93. 87. 93. 87. 93. 93. 87. 93.
 87. 87. 93. 93. 87. 87. 93. 93. 87. 87. 87. 87. 87. 93. 93. 93.]",493.11760891275844,None,s,1,0.8240327287458058,493.11760891275844,None,None,None,,,,,,,04,23,F,4,2021_Oct_28_1717,Partial repeat,2021.2.3,120.10222790790904,
5,5,0,1,1,2,2,2,2,0,0,1,1,1,1,0,0,51,51,51,1,0,1,0,,,,,,,,,0.834003581659232,493.98353263550234,None,"[87. 93. 87. 93. 87. 87. 93. 87. 87. 87. 87. 93. 87. 93. 87. 87. 93. 87.
 93. 93. 93. 93. 87. 87. 87. 87. 93. 93. 93. 93. 93. 93. 87. 93.]",494.9077659534196,None,s,1,1.5130090940692753,494.9077659534196,None,None,None,,,,,,,04,23,F,4,2021_Oct_28_1717,Partial repeat,2021.2.3,120.10222790790904,
5,5,0,1,1,2,2,2,2,0,0,1,1,1,1,0,0,51,51,51,,,,,,,,,,,,,,,,,,,,,,,,,,,,,,,,04,23,F,4,2021_Oct_28_1717,Partial repeat,2021.2.3,120.10222790790904,
5,5,0,1,1,2,2,3,2,1,1,1,0,1,1,0,0,52,52,52,0,0,0,0,,,,,,,496.4397805548724,None,0.8298201844529977,497.2640756422443,None,"[93. 87. 93. 93. 93. 87. 93. 93. 93. 87. 87. 87. 93. 87. 87. 87. 93. 93.
 87. 87. 87. 87. 87. 93. 93. 93. 93. 87. 87. 87. 87. 93. 93. 93.]",498.17994891672424,None,l,1,0.801771671656752,498.17994891672424,None,None,None,,,,,,,04,23,F,4,2021_Oct_28_1717,Partial repeat,2021.2.3,120.10222790790904,
5,5,0,1,1,2,2,3,2,1,1,1,0,1,1,0,0,52,52,52,1,0,1,0,,,,,,,,,0.9546881453665279,499.05421921292873,None,"[87. 87. 93. 87. 93. 93. 93. 93. 93. 87. 87. 93. 87. 87. 93. 93. 93. 87.
 93. 87. 87. 93. 93. 87. 93. 93. 93. 93. 87. 93. 87. 93. 87. 87.]",500.09500020204723,None,l,1,1.1577612882356334,500.09500020204723,None,None,None,,,,,,,04,23,F,4,2021_Oct_28_1717,Partial repeat,2021.2.3,120.10222790790904,
5,5,0,1,1,2,2,3,2,1,1,1,0,1,1,0,0,52,52,52,,,,,,,,,,,,,,,,,,,,,,,,,,,,,,,,04,23,F,4,2021_Oct_28_1717,Partial repeat,2021.2.3,120.10222790790904,
5,5,0,1,1,3,2,3,2,1,0,0,0,0,1,0,0,53,53,53,0,0,0,0,,,,,,,501.27730860930023,None,0.9717422904063762,501.9101007489917,None,"[87. 93. 87. 87. 93. 93. 87. 87. 93. 93. 93. 87. 87. 93. 87. 93. 93. 87.
 93. 93. 93. 93. 87. 87. 93. 93. 93. 93. 87. 87. 87. 87. 87. 93.]",502.96752709869907,None,l,1,1.3412880867472268,502.96752709869907,None,None,None,,,,,,,04,23,F,4,2021_Oct_28_1717,Partial repeat,2021.2.3,120.10222790790904,
5,5,0,1,1,3,2,3,2,1,0,0,0,0,1,0,0,53,53,53,1,0,1,0,,,,,,,,,0.788979648894562,504.37465258690645,None,"[93. 93. 87. 87. 93. 87. 93. 87. 93. 87. 93. 93. 93. 87. 87. 87. 87. 93.
 93. 93. 87. 93. 93. 87. 93. 87. 93. 87. 87. 87. 93. 93. 87. 87.]",505.24059908031995,None,s,1,0.9416105322779913,505.24059908031995,None,None,None,,,,,,,04,23,F,4,2021_Oct_28_1717,Partial repeat,2021.2.3,120.10222790790904,
5,5,0,1,1,3,2,3,2,1,0,0,0,0,1,0,0,53,53,53,,,,,,,,,,,,,,,,,,,,,,,,,,,,,,,,04,23,F,4,2021_Oct_28_1717,Partial repeat,2021.2.3,120.10222790790904,
5,5,0,1,1,2,3,2,3,0,0,0,0,1,1,0,0,54,54,54,0,0,0,0,,,,,,,506.1981147808583,None,0.8490417553438278,506.86420084886413,None,"[87. 93. 93. 87. 93. 87. 93. 93. 93. 87. 87. 87. 93. 87. 87. 93. 87. 93.
 87. 93. 93. 87. 87. 93. 87. 87. 93. 93. 87. 87. 93. 87. 87. 87.]",507.7967332746193,None,s,1,0.9281607627744961,507.7967332746193,None,None,None,,,,,,,04,23,F,4,2021_Oct_28_1717,Partial repeat,2021.2.3,120.10222790790904,
5,5,0,1,1,2,3,2,3,0,0,0,0,1,1,0,0,54,54,54,1,0,1,0,,,,,,,,,0.7226119541641178,508.8042065447371,None,"[93. 93. 87. 87. 93. 93. 93. 87. 87. 87. 87. 87. 93. 87. 93. 87. 87. 87.
 93. 93. 87. 87. 93. 93. 87. 93. 87. 87. 93. 93. 87. 87. 87. 87.]",509.6118373494137,None,s,1,1.640210232220852,509.6118373494137,None,None,None,,,,,,,04,23,F,4,2021_Oct_28_1717,Partial repeat,2021.2.3,120.10222790790904,
5,5,0,1,1,2,3,2,3,0,0,0,0,1,1,0,0,54,54,54,,,,,,,,,,,,,,,,,,,,,,,,,,,,,,,,04,23,F,4,2021_Oct_28_1717,Partial repeat,2021.2.3,120.10222790790904,
5,5,0,1,1,3,2,3,2,0,1,0,0,0,1,0,0,55,55,55,0,0,0,0,,,,,,,511.26875966550506,None,0.711147574588738,512.1097212805689,None,"[87. 87. 87. 93. 93. 87. 87. 87. 93. 87. 87. 93. 93. 87. 87. 87. 93. 87.
 93. 93. 93. 93. 87. 93. 93. 87. 87. 93. 93. 93. 93. 93. 87. 93.]",512.9007166667834,None,s,1,0.8152624925132841,512.9007166667834,None,None,None,,,,,,,04,23,F,4,2021_Oct_28_1717,Partial repeat,2021.2.3,120.10222790790904,
5,5,0,1,1,3,2,3,2,0,1,0,0,0,1,0,0,55,55,55,1,0,1,0,,,,,,,,,0.8204528675155903,513.7749706065879,None,"[93. 87. 93. 87. 93. 93. 87. 87. 87. 93. 93. 87. 87. 87. 87. 87. 93. 87.
 93. 87. 87. 93. 93. 93. 87. 87. 93. 87. 87. 93. 93. 93. 87. 93.]",514.6741956340593,None,s,0,1.8580691092211055,514.6741956340593,None,516.5558981490321,None,,,,,,,04,23,F,4,2021_Oct_28_1717,Partial repeat,2021.2.3,120.10222790790904,
5,5,0,1,1,3,2,3,2,0,1,0,0,0,1,0,0,55,55,55,,,,,,,,,,,,,,,,,,,,,,,,,,,,,,,,04,23,F,4,2021_Oct_28_1717,Partial repeat,2021.2.3,120.10222790790904,
5,5,0,1,1,3,3,3,2,0,0,1,0,1,1,0,0,56,56,56,0,0,0,0,,,,,,,517.055492125517,None,0.7390718948349454,517.671624472503,None,"[87. 87. 87. 87. 87. 87. 93. 93. 93. 87. 93. 93. 93. 87. 93. 93. 87. 87.
 87. 87. 87. 87. 93. 93. 87. 87. 93. 87. 93. 93. 87. 87. 93. 93.]",518.4959102591783,None,s,1,1.0281576839261106,518.4959102591783,None,None,None,,,,,,,04,23,F,4,2021_Oct_28_1717,Partial repeat,2021.2.3,120.10222790790904,
5,5,0,1,1,3,3,3,2,0,0,1,0,1,1,0,0,56,56,56,1,0,1,0,,,,,,,,,0.8129964188987462,519.5866539493,None,"[87. 93. 93. 87. 93. 87. 87. 93. 93. 93. 93. 87. 93. 87. 93. 93. 93. 93.
 87. 93. 93. 93. 93. 87. 93. 93. 87. 93. 87. 87. 87. 93. 93. 93.]",520.4775474768467,None,s,1,1.1905395089524973,520.4775474768467,None,None,None,,,,,,,04,23,F,4,2021_Oct_28_1717,Partial repeat,2021.2.3,120.10222790790904,
5,5,0,1,1,3,3,3,2,0,0,1,0,1,1,0,0,56,56,56,,,,,,,,,,,,,,,,,,,,,,,,,,,,,,,,04,23,F,4,2021_Oct_28_1717,Partial repeat,2021.2.3,120.10222790790904,
5,5,0,1,1,3,3,2,2,1,1,1,1,1,1,0,0,57,57,57,0,0,0,0,,,,,,,521.6765384474747,None,0.7989936532542239,523.491657275099,None,"[93. 87. 87. 87. 87. 93. 87. 93. 93. 93. 93. 93. 87. 93. 87. 87. 93. 87.
 93. 93. 87. 87. 87. 93. 93. 93. 87. 93. 93. 87. 87. 93. 87. 87.]",524.3742183405884,None,l,1,0.861933709038567,524.3742183405884,None,None,None,,,,,,,04,23,F,4,2021_Oct_28_1717,Partial repeat,2021.2.3,120.10222790790904,
5,5,0,1,1,3,3,2,2,1,1,1,1,1,1,0,0,57,57,57,1,0,1,0,,,,,,,,,0.9292747257030063,525.2984285671191,None,"[93. 93. 87. 93. 93. 93. 87. 93. 93. 93. 93. 87. 93. 87. 93. 87. 93. 87.
 93. 93. 93. 93. 93. 93. 87. 87. 87. 87. 87. 87. 87. 93. 93. 93.]",526.3059181936369,None,l,1,1.282113847493747,526.3059181936369,None,None,None,,,,,,,04,23,F,4,2021_Oct_28_1717,Partial repeat,2021.2.3,120.10222790790904,
5,5,0,1,1,3,3,2,2,1,1,1,1,1,1,0,0,57,57,57,,,,,,,,,,,,,,,,,,,,,,,,,,,,,,,,04,23,F,4,2021_Oct_28_1717,Partial repeat,2021.2.3,120.10222790790904,
5,5,0,1,1,3,3,3,2,0,1,1,0,0,1,0,0,58,58,58,0,0,0,0,,,,,,,527.613112827712,None,0.9640574696186581,528.2875422620418,None,"[87. 93. 87. 93. 93. 87. 93. 93. 87. 87. 93. 87. 93. 87. 87. 93. 93. 87.
 87. 93. 93. 93. 87. 87. 87. 93. 87. 93. 93. 87. 93. 93. 93. 87.]",529.328331589717,None,s,1,1.0108943080813333,529.328331589717,None,None,None,,,,,,,04,23,F,4,2021_Oct_28_1717,Partial repeat,2021.2.3,120.10222790790904,
5,5,0,1,1,3,3,3,2,0,1,1,0,0,1,0,0,58,58,58,1,0,1,0,,,,,,,,,0.949559298874807,530.4024183735564,None,"[87. 93. 87. 93. 93. 87. 93. 87. 87. 93. 87. 87. 93. 87. 87. 87. 87. 87.
 93. 87. 87. 87. 87. 93. 93. 87. 93. 93. 87. 93. 93. 93. 93. 93.]",531.4265363628365,None,l,1,0.9609152506818646,531.4265363628365,None,None,None,,,,,,,04,23,F,4,2021_Oct_28_1717,Partial repeat,2021.2.3,120.10222790790904,
5,5,0,1,1,3,3,3,2,0,1,1,0,0,1,0,0,58,58,58,,,,,,,,,,,,,,,,,,,,,,,,,,,,,,,,04,23,F,4,2021_Oct_28_1717,Partial repeat,2021.2.3,120.10222790790904,
5,5,0,1,1,2,3,3,3,0,1,0,1,0,1,0,0,59,59,59,0,0,0,0,,,,,,,532.4090286031678,None,0.7157923394309277,533.0251583844474,None,"[93. 87. 93. 87. 87. 87. 93. 93. 87. 87. 87. 87. 87. 93. 87. 93. 93. 93.
 87. 93. 93. 87. 93. 87. 87. 93. 93. 87. 93. 93. 87. 93. 87. 87.]",533.8244660277596,None,s,1,1.586839948395209,533.8244660277596,None,None,None,,,,,,,04,23,F,4,2021_Oct_28_1717,Partial repeat,2021.2.3,120.10222790790904,
5,5,0,1,1,2,3,3,3,0,1,0,1,0,1,0,0,59,59,59,1,0,1,0,,,,,,,,,0.9676735529822134,535.4730770488932,None,"[93. 93. 93. 93. 87. 87. 87. 93. 93. 93. 87. 93. 87. 93. 93. 87. 93. 93.
 87. 87. 87. 93. 93. 87. 87. 93. 93. 87. 93. 93. 93. 93. 93. 87.]",536.5304982671805,None,l,1,0.8335996177520428,536.5304982671805,None,None,None,,,,,,,04,23,F,4,2021_Oct_28_1717,Partial repeat,2021.2.3,120.10222790790904,
5,5,0,1,1,2,3,3,3,0,1,0,1,0,1,0,0,59,59,59,,,,,,,,,,,,,,,,,,,,,,,,,,,,,,,,04,23,F,4,2021_Oct_28_1717,Partial repeat,2021.2.3,120.10222790790904,
5,5,0,1,1,3,3,2,3,0,0,1,0,1,1,0,0,60,60,60,0,0,0,0,,,,,,,537.3797721393457,None,0.8731627899432961,537.9376276039511,None,"[87. 87. 93. 87. 87. 87. 93. 87. 87. 93. 87. 87. 87. 93. 93. 93. 87. 87.
 87. 87. 93. 87. 93. 87. 87. 93. 87. 93. 87. 93. 87. 87. 93. 87.]",538.8868063524387,None,s,1,0.9565779189069872,538.8868063524387,None,None,None,,,,,,,04,23,F,4,2021_Oct_28_1717,Partial repeat,2021.2.3,120.10222790790904,
5,5,0,1,1,3,3,2,3,0,0,1,0,1,1,0,0,60,60,60,1,0,1,0,,,,,,,,,0.713981023257491,539.9026140089009,None,"[87. 93. 87. 87. 87. 87. 87. 87. 87. 87. 87. 93. 87. 93. 93. 87. 87. 93.
 93. 93. 93. 87. 87. 87. 93. 93. 93. 87. 87. 87. 87. 87. 93. 93.]",540.6936055465485,None,s,1,1.5978259954245004,540.6936055465485,None,None,None,,,,,,,04,23,F,4,2021_Oct_28_1717,Partial repeat,2021.2.3,120.10222790790904,
5,5,0,1,1,3,3,2,3,0,0,1,0,1,1,0,0,60,60,60,,,,,,,,,,,,,,,,,,,,,,,,,,,,,,,,04,23,F,4,2021_Oct_28_1717,Partial repeat,2021.2.3,120.10222790790904,
5,5,0,1,1,2,2,3,3,1,0,1,1,0,1,0,0,61,61,61,0,0,0,0,,,,,,,542.3172291236224,None,0.8189885803359205,543.4412529513647,None,"[93. 87. 87. 93. 87. 87. 93. 93. 93. 87. 87. 93. 93. 87. 87. 93. 93. 93.
 93. 93. 87. 87. 93. 87. 87. 87. 87. 93. 93. 87. 87. 93. 93. 93.]",544.3404940145192,None,l,1,0.9739756737799325,544.3404940145192,None,None,None,,,,,,,04,23,F,4,2021_Oct_28_1717,Partial repeat,2021.2.3,120.10222790790904,
5,5,0,1,1,2,2,3,3,1,0,1,1,0,1,0,0,61,61,61,1,0,1,0,,,,,,,,,0.7158648883616806,545.3729419001502,None,"[93. 87. 93. 87. 87. 93. 87. 87. 93. 93. 87. 93. 87. 87. 87. 87. 87. 93.
 93. 87. 87. 93. 87. 93. 93. 87. 87. 93. 93. 87. 93. 87. 87. 93.]",546.172261409869,None,s,1,0.9022336276393617,546.172261409869,None,None,None,,,,,,,04,23,F,4,2021_Oct_28_1717,Partial repeat,2021.2.3,120.10222790790904,
5,5,0,1,1,2,2,3,3,1,0,1,1,0,1,0,0,61,61,61,,,,,,,,,,,,,,,,,,,,,,,,,,,,,,,,04,23,F,4,2021_Oct_28_1717,Partial repeat,2021.2.3,120.10222790790904,
5,5,0,1,1,3,2,3,3,0,1,0,1,0,1,0,0,62,62,62,0,0,0,0,,,,,,,547.0881542478819,None,0.8177989401917152,547.7292759632146,None,"[87. 93. 93. 87. 93. 93. 93. 93. 87. 87. 87. 93. 87. 93. 93. 93. 93. 87.
 93. 87. 87. 87. 93. 87. 87. 93. 93. 93. 87. 87. 93. 93. 87. 93.]",548.6284904071326,None,s,1,1.0540630105315358,548.6284904071326,None,None,None,,,,,,,04,23,F,4,2021_Oct_28_1717,Partial repeat,2021.2.3,120.10222790790904,
5,5,0,1,1,3,2,3,3,0,1,0,1,0,1,0,0,62,62,62,1,0,1,0,,,,,,,,,0.8943171205834242,549.7442170513168,None,"[93. 87. 93. 87. 93. 93. 87. 87. 93. 93. 87. 87. 87. 93. 93. 87. 93. 93.
 87. 93. 93. 93. 87. 93. 87. 93. 87. 93. 87. 93. 93. 87. 87. 87.]",550.718355983201,None,l,1,0.9005502015461389,550.718355983201,None,None,None,,,,,,,04,23,F,4,2021_Oct_28_1717,Partial repeat,2021.2.3,120.10222790790904,
5,5,0,1,1,3,2,3,3,0,1,0,1,0,1,0,0,62,62,62,,,,,,,,,,,,,,,,,,,,,,,,,,,,,,,,04,23,F,4,2021_Oct_28_1717,Partial repeat,2021.2.3,120.10222790790904,
5,5,0,1,1,3,2,2,3,0,1,0,0,0,1,0,0,63,63,63,0,0,0,0,,,,,,,551.6509095760593,None,0.748129119628287,552.2503933553235,None,"[93. 93. 87. 93. 87. 93. 87. 87. 93. 87. 93. 87. 87. 93. 93. 93. 93. 93.
 93. 87. 87. 87. 93. 93. 93. 87. 93. 87. 87. 87. 93. 87. 93. 93.]",553.0746913291187,None,s,1,1.5679178414065973,553.0746913291187,None,None,None,,,,,,,04,23,F,4,2021_Oct_28_1717,Partial repeat,2021.2.3,120.10222790790904,
5,5,0,1,1,3,2,2,3,0,1,0,0,0,1,0,0,63,63,63,1,0,1,0,,,,,,,,,0.7098224822991215,554.7149461553781,None,"[87. 93. 93. 93. 93. 93. 87. 93. 93. 93. 87. 93. 87. 93. 93. 93. 87. 93.
 87. 93. 93. 87. 93. 93. 93. 93. 87. 87. 93. 93. 93. 87. 93. 87.]",555.5142659858102,None,l,1,2.072376402957161,555.5142659858102,None,None,None,,,,,,,04,23,F,4,2021_Oct_28_1717,Partial repeat,2021.2.3,120.10222790790904,
5,5,0,1,1,3,2,2,3,0,1,0,0,0,1,0,0,63,63,63,,,,,,,,,,,,,,,,,,,,,,,,,,,,,,,,04,23,F,4,2021_Oct_28_1717,Partial repeat,2021.2.3,120.10222790790904,
7,6,0,1,1,3,3,2,3,0,0,1,0,1,0,0,0,64,64,64,0,0,0,0,,,,,,,561.1677547412692,None,0.9850190115363855,565.8221151965045,None,"[87. 87. 93. 87. 87. 93. 93. 93. 93. 87. 87. 93. 93. 87. 87. 87. 93. 93.
 87. 87. 93. 93. 87. 93. 93. 87. 93. 87. 87. 93. 87. 93. 93. 87.]",566.8961686261173,None,s,1,2.5936875061270257,566.8961686261173,None,None,None,,,,,,,04,23,F,4,2021_Oct_28_1717,Partial repeat,2021.2.3,120.10222790790904,
7,6,0,1,1,3,3,2,3,0,0,1,0,1,0,0,0,64,64,64,1,0,1,0,,,,,,,,,0.9070633503796593,569.5522509930888,None,"[93. 87. 87. 87. 93. 87. 87. 93. 87. 93. 87. 87. 93. 93. 93. 87. 87. 87.
 87. 93. 87. 87. 87. 87. 93. 93. 87. 87. 93. 93. 93. 93. 93. 87.]",570.5347429127069,None,s,1,1.147162663324707,570.5347429127069,None,None,None,,,,,,,04,23,F,4,2021_Oct_28_1717,Partial repeat,2021.2.3,120.10222790790904,
7,6,0,1,1,3,3,2,3,0,0,1,0,1,0,0,0,64,64,64,,,,,,,,,,,,,,,,,,,,,,,,,,,,,,,,04,23,F,4,2021_Oct_28_1717,Partial repeat,2021.2.3,120.10222790790904,
1,4,0,1,1,2,2,3,3,0,1,1,1,0,0,0,0,65,65,65,0,0,0,0,,,,,,,571.708757022825,None,0.9065806122200212,573.4406047890225,None,"[87. 87. 93. 93. 93. 87. 87. 93. 93. 93. 93. 87. 87. 87. 87. 93. 87. 93.
 87. 87. 87. 87. 87. 93. 87. 87. 87. 87. 93. 93. 93. 87. 93. 93.]",574.4314429613914,None,s,1,2.433517964047496,574.4314429613914,None,None,None,,,,,,,04,23,F,4,2021_Oct_28_1717,Partial repeat,2021.2.3,120.10222790790904,
1,4,0,1,1,2,2,3,3,0,1,1,1,0,0,0,0,65,65,65,1,0,1,0,,,,,,,,,0.8802211957697925,576.9292970661736,None,"[93. 87. 93. 87. 87. 93. 93. 87. 87. 93. 87. 87. 87. 87. 93. 87. 93. 93.
 93. 93. 93. 87. 93. 93. 87. 93. 87. 87. 87. 87. 87. 87. 93. 87.]",577.8867922410354,None,l,1,1.0902164219951374,577.8867922410354,None,None,None,,,,,,,04,23,F,4,2021_Oct_28_1717,Partial repeat,2021.2.3,120.10222790790904,
1,4,0,1,1,2,2,3,3,0,1,1,1,0,0,0,0,65,65,65,,,,,,,,,,,,,,,,,,,,,,,,,,,,,,,,04,23,F,4,2021_Oct_28_1717,Partial repeat,2021.2.3,120.10222790790904,
2,4,0,1,1,2,2,3,3,1,0,1,1,0,0,0,0,66,66,66,0,0,0,0,,,,,,,578.9941819331689,None,0.7532038339832301,579.9683583885526,None,"[93. 93. 87. 93. 93. 87. 93. 93. 87. 87. 87. 93. 93. 87. 87. 93. 87. 87.
 93. 87. 87. 93. 93. 93. 93. 87. 93. 87. 87. 87. 87. 87. 93. 93.]",580.8092904979567,None,l,1,0.9837442916905275,580.8092904979567,None,None,None,,,,,,,04,23,F,4,2021_Oct_28_1717,Partial repeat,2021.2.3,120.10222790790904,
2,4,0,1,1,2,2,3,3,1,0,1,1,0,0,0,0,66,66,66,1,0,1,0,,,,,,,,,0.8042592847641241,581.8667508433136,None,"[87. 87. 93. 93. 87. 87. 87. 87. 93. 87. 87. 87. 87. 87. 87. 93. 87. 87.
 93. 87. 93. 87. 93. 87. 87. 87. 93. 87. 87. 93. 93. 93. 87. 93.]",582.7493138330865,None,s,1,1.651777412436786,582.7493138330865,None,None,None,,,,,,,04,23,F,4,2021_Oct_28_1717,Partial repeat,2021.2.3,120.10222790790904,
2,4,0,1,1,2,2,3,3,1,0,1,1,0,0,0,0,66,66,66,,,,,,,,,,,,,,,,,,,,,,,,,,,,,,,,04,23,F,4,2021_Oct_28_1717,Partial repeat,2021.2.3,120.10222790790904,
5,5,0,1,1,2,3,2,3,0,0,0,0,1,0,0,0,67,67,67,0,0,0,0,,,,,,,584.4145541791222,None,0.8975639467872574,586.6043278386496,None,"[87. 93. 87. 87. 93. 93. 87. 87. 93. 87. 87. 93. 87. 93. 87. 87. 93. 87.
 87. 93. 93. 87. 93. 87. 93. 87. 93. 93. 87. 87. 93. 87. 87. 93.]",587.5868537539209,None,s,1,0.8312728400196647,587.5868537539209,None,None,None,,,,,,,04,23,F,4,2021_Oct_28_1717,Partial repeat,2021.2.3,120.10222790790904,
5,5,0,1,1,2,3,2,3,0,0,0,0,1,0,0,0,67,67,67,1,0,1,0,,,,,,,,,0.838193021048989,588.4777405464811,None,"[87. 93. 87. 87. 93. 93. 93. 87. 87. 93. 93. 93. 93. 93. 87. 93. 93. 93.
 93. 93. 87. 87. 93. 93. 87. 87. 87. 93. 93. 87. 93. 87. 93. 87.]",589.3936314602142,None,l,0,1.5026519665625528,589.3936314602142,None,590.9173196931661,None,,,,,,,04,23,F,4,2021_Oct_28_1717,Partial repeat,2021.2.3,120.10222790790904,
5,5,0,1,1,2,3,2,3,0,0,0,0,1,0,0,0,67,67,67,,,,,,,,,,,,,,,,,,,,,,,,,,,,,,,,04,23,F,4,2021_Oct_28_1717,Partial repeat,2021.2.3,120.10222790790904,
2,7,0,1,1,3,3,3,2,1,0,1,0,0,0,0,0,68,68,68,0,0,0,0,,,,,,,591.4169258567672,None,0.8877906974809333,591.9497704652204,None,"[93. 93. 93. 93. 93. 93. 87. 93. 87. 93. 93. 87. 93. 87. 93. 93. 93. 87.
 93. 87. 87. 93. 93. 93. 87. 93. 87. 93. 93. 93. 87. 87. 93. 93.]",592.9156125342597,None,l,1,1.3085945344391803,592.9156125342597,None,None,None,,,,,,,04,23,F,4,2021_Oct_28_1717,Partial repeat,2021.2.3,120.10222790790904,
2,7,0,1,1,3,3,3,2,1,0,1,0,0,0,0,0,68,68,68,1,0,1,0,,,,,,,,,0.8765602353575725,594.2977688590836,None,"[93. 93. 87. 93. 93. 93. 93. 87. 93. 93. 93. 87. 87. 93. 93. 93. 93. 93.
 93. 87. 87. 87. 87. 93. 87. 87. 87. 93. 93. 93. 93. 93. 87. 87.]",595.2552656375155,None,s,1,1.0170167321884946,595.2552656375155,None,None,None,,,,,,,04,23,F,4,2021_Oct_28_1717,Partial repeat,2021.2.3,120.10222790790904,
2,7,0,1,1,3,3,3,2,1,0,1,0,0,0,0,0,68,68,68,,,,,,,,,,,,,,,,,,,,,,,,,,,,,,,,04,23,F,4,2021_Oct_28_1717,Partial repeat,2021.2.3,120.10222790790904,
4,3,0,1,1,3,2,2,3,0,0,0,0,1,0,0,0,69,69,69,0,0,0,0,,,,,,,596.2877334073964,None,0.8511823210124011,596.9871162901363,None,"[87. 93. 93. 93. 93. 87. 87. 87. 93. 87. 87. 87. 93. 93. 87. 87. 93. 93.
 87. 93. 93. 87. 87. 93. 93. 93. 87. 93. 87. 93. 87. 87. 93. 93.]",597.919672769418,None,s,1,1.8086573943182884,597.919672769418,None,None,None,,,,,,,04,23,F,4,2021_Oct_28_1717,Partial repeat,2021.2.3,120.10222790790904,
4,3,0,1,1,3,2,2,3,0,0,0,0,1,0,0,0,69,69,69,1,0,1,0,,,,,,,,,0.7277824897565918,599.793069120853,None,"[87. 93. 87. 93. 87. 93. 87. 87. 93. 93. 87. 87. 93. 93. 93. 93. 93. 93.
 87. 93. 87. 87. 93. 93. 87. 93. 93. 93. 93. 93. 93. 87. 93. 87.]",600.6007130747894,None,s,1,1.6716587740302202,600.6007130747894,None,None,None,,,,,,,04,23,F,4,2021_Oct_28_1717,Partial repeat,2021.2.3,120.10222790790904,
4,3,0,1,1,3,2,2,3,0,0,0,0,1,0,0,0,69,69,69,,,,,,,,,,,,,,,,,,,,,,,,,,,,,,,,04,23,F,4,2021_Oct_28_1717,Partial repeat,2021.2.3,120.10222790790904,
5,1,0,1,1,3,2,2,3,0,1,0,0,0,0,0,0,70,70,70,0,0,0,0,,,,,,,602.2909257913416,None,0.7161076577913926,602.8487835009473,None,"[87. 93. 93. 87. 93. 93. 93. 87. 93. 93. 93. 87. 87. 93. 93. 87. 93. 87.
 93. 93. 87. 93. 93. 93. 93. 87. 87. 87. 87. 93. 93. 93. 87. 87.]",603.6397743971684,None,s,1,1.447768234891555,603.6397743971684,None,None,None,,,,,,,04,23,F,4,2021_Oct_28_1717,Partial repeat,2021.2.3,120.10222790790904,
5,1,0,1,1,3,2,2,3,0,1,0,0,0,0,0,0,70,70,70,1,0,1,0,,,,,,,,,0.8216689281625283,605.1468224009514,None,"[93. 87. 93. 87. 87. 87. 87. 87. 93. 87. 87. 93. 93. 93. 93. 93. 87. 87.
 87. 87. 87. 93. 87. 93. 87. 87. 87. 87. 93. 87. 87. 87. 87. 87.]",606.054368986217,None,l,1,1.0650958817568608,606.054368986217,None,None,None,,,,,,,04,23,F,4,2021_Oct_28_1717,Partial repeat,2021.2.3,120.10222790790904,
5,1,0,1,1,3,2,2,3,0,1,0,0,0,0,0,0,70,70,70,,,,,,,,,,,,,,,,,,,,,,,,,,,,,,,,04,23,F,4,2021_Oct_28_1717,Partial repeat,2021.2.3,120.10222790790904,
6,2,0,1,1,2,2,2,2,0,0,1,1,1,0,0,0,71,71,71,0,0,0,0,,,,,,,607.1284410172266,None,0.9915648217712529,608.9935411472434,None,"[93. 87. 93. 87. 93. 87. 93. 87. 87. 87. 93. 87. 93. 93. 87. 93. 93. 87.
 87. 93. 87. 87. 87. 93. 87. 87. 87. 87. 93. 87. 93. 87. 87. 93.]",610.0675997082762,None,s,1,1.9643398313346552,610.0675997082762,None,None,None,,,,,,,04,23,F,4,2021_Oct_28_1717,Partial repeat,2021.2.3,120.10222790790904,
6,2,0,1,1,2,2,2,2,0,0,1,1,1,0,0,0,71,71,71,1,0,1,0,,,,,,,,,0.7213301716569418,612.0908645991731,None,"[87. 93. 93. 87. 87. 93. 87. 93. 93. 93. 93. 87. 87. 93. 87. 87. 87. 87.
 87. 93. 87. 93. 93. 87. 93. 87. 87. 87. 87. 93. 87. 87. 87. 87.]",612.8901937303017,None,s,1,1.4933727577226819,612.8901937303017,None,None,None,,,,,,,04,23,F,4,2021_Oct_28_1717,Partial repeat,2021.2.3,120.10222790790904,
6,2,0,1,1,2,2,2,2,0,0,1,1,1,0,0,0,71,71,71,,,,,,,,,,,,,,,,,,,,,,,,,,,,,,,,04,23,F,4,2021_Oct_28_1717,Partial repeat,2021.2.3,120.10222790790904,
1,8,0,1,1,3,3,2,2,1,0,1,1,0,0,0,0,72,72,72,0,0,0,0,,,,,,,614.4055530290425,None,0.7661529932085663,615.0550068857192,None,"[87. 93. 93. 87. 87. 93. 87. 93. 87. 93. 87. 93. 87. 87. 93. 93. 87. 93.
 87. 87. 93. 93. 87. 87. 93. 93. 93. 87. 87. 87. 93. 87. 87. 93.]",615.8959489372501,None,l,1,1.1916571961191949,615.8959489372501,None,None,None,,,,,,,04,23,F,4,2021_Oct_28_1717,Partial repeat,2021.2.3,120.10222790790904,
1,8,0,1,1,3,3,2,2,1,0,1,1,0,0,0,0,72,72,72,1,0,1,0,,,,,,,,,0.9762762700469625,617.1532158281152,None,"[87. 93. 93. 93. 87. 93. 87. 87. 93. 93. 93. 87. 93. 93. 93. 87. 93. 93.
 87. 87. 93. 87. 87. 93. 93. 93. 87. 93. 87. 87. 93. 87. 87. 87.]",618.2106598170758,None,s,1,0.8289916036301292,618.2106598170758,None,None,None,,,,,,,04,23,F,4,2021_Oct_28_1717,Partial repeat,2021.2.3,120.10222790790904,
1,8,0,1,1,3,3,2,2,1,0,1,1,0,0,0,0,72,72,72,,,,,,,,,,,,,,,,,,,,,,,,,,,,,,,,04,23,F,4,2021_Oct_28_1717,Partial repeat,2021.2.3,120.10222790790904,
1,7,0,1,1,2,2,3,2,0,1,1,0,0,0,0,0,73,73,73,0,0,0,0,,,,,,,619.059908673571,None,0.8641166881679236,619.6261007695175,None,"[93. 93. 93. 87. 87. 87. 93. 87. 87. 87. 87. 93. 93. 87. 87. 93. 87. 87.
 87. 87. 93. 93. 87. 87. 87. 93. 93. 93. 87. 93. 87. 87. 87. 93.]",620.5669800894502,None,s,1,0.9197664029743464,620.5669800894502,None,None,None,,,,,,,04,23,F,4,2021_Oct_28_1717,Partial repeat,2021.2.3,120.10222790790904,
1,7,0,1,1,2,2,3,2,0,1,1,0,0,0,0,0,73,73,73,1,0,1,0,,,,,,,,,0.8730628973351898,621.5577833040297,None,"[87. 93. 87. 93. 93. 87. 87. 93. 93. 87. 93. 93. 93. 93. 93. 93. 93. 87.
 87. 93. 87. 87. 87. 87. 93. 93. 87. 87. 87. 87. 87. 93. 87. 87.]",622.5069723153538,None,l,1,1.9079634982081188,622.5069723153538,None,None,None,,,,,,,04,23,F,4,2021_Oct_28_1717,Partial repeat,2021.2.3,120.10222790790904,
1,7,0,1,1,2,2,3,2,0,1,1,0,0,0,0,0,73,73,73,,,,,,,,,,,,,,,,,,,,,,,,,,,,,,,,04,23,F,4,2021_Oct_28_1717,Partial repeat,2021.2.3,120.10222790790904,
8,4,0,1,1,3,3,3,3,1,1,1,1,1,0,0,0,74,74,74,0,0,0,0,,,,,,,624.4386375313225,None,0.963329504134552,625.1297126469581,None,"[87. 87. 87. 93. 93. 87. 93. 93. 87. 93. 93. 93. 87. 87. 87. 93. 93. 93.
 93. 93. 93. 93. 87. 87. 93. 93. 93. 87. 87. 93. 93. 87. 87. 87.]",626.1788273809943,None,l,1,1.0999568171027931,626.1788273809943,None,None,None,,,,,,,04,23,F,4,2021_Oct_28_1717,Partial repeat,2021.2.3,120.10222790790904,
8,4,0,1,1,3,3,3,3,1,1,1,1,1,0,0,0,74,74,74,1,0,1,0,,,,,,,,,0.9303549713297674,627.3445077461947,None,"[93. 87. 93. 87. 87. 87. 87. 93. 93. 87. 93. 93. 93. 93. 93. 93. 93. 87.
 87. 87. 87. 87. 93. 87. 93. 93. 87. 93. 87. 87. 93. 87. 87. 87.]",628.351979412746,None,l,1,1.7915437917617965,628.351979412746,None,None,None,,,,,,,04,23,F,4,2021_Oct_28_1717,Partial repeat,2021.2.3,120.10222790790904,
8,4,0,1,1,3,3,3,3,1,1,1,1,1,0,0,0,74,74,74,,,,,,,,,,,,,,,,,,,,,,,,,,,,,,,,04,23,F,4,2021_Oct_28_1717,Partial repeat,2021.2.3,120.10222790790904,
5,3,0,1,1,2,3,2,3,1,0,0,0,0,0,0,0,75,75,75,0,0,0,0,,,,,,,630.1754153081747,None,0.9939752502200652,630.6999685059163,None,"[93. 87. 87. 87. 93. 87. 87. 93. 93. 93. 93. 87. 93. 93. 93. 93. 93. 87.
 93. 87. 87. 93. 87. 93. 93. 87. 87. 93. 93. 93. 93. 87. 87. 93.]",631.7823579254436,None,l,1,1.0171174362803868,631.7823579254436,None,None,None,,,,,,,04,23,F,4,2021_Oct_28_1717,Partial repeat,2021.2.3,120.10222790790904,
5,3,0,1,1,2,3,2,3,1,0,0,0,0,0,0,0,75,75,75,1,0,1,0,,,,,,,,,0.7072150070027858,632.8731045019849,None,"[93. 93. 87. 87. 93. 93. 93. 93. 93. 93. 87. 87. 93. 87. 87. 87. 93. 93.
 87. 87. 93. 93. 87. 87. 87. 93. 93. 87. 87. 87. 87. 93. 87. 87.]",633.6640960396326,None,s,1,1.1348126210214105,633.6640960396326,None,None,None,,,,,,,04,23,F,4,2021_Oct_28_1717,Partial repeat,2021.2.3,120.10222790790904,
5,3,0,1,1,2,3,2,3,1,0,0,0,0,0,0,0,75,75,75,,,,,,,,,,,,,,,,,,,,,,,,,,,,,,,,04,23,F,4,2021_Oct_28_1717,Partial repeat,2021.2.3,120.10222790790904,
2,5,0,1,1,2,3,2,2,1,1,0,1,1,0,0,0,76,76,76,0,0,0,0,,,,,,,634.813098010738,None,0.9237587158579685,635.5791223092892,None,"[87. 87. 93. 93. 87. 93. 93. 93. 93. 93. 93. 87. 87. 93. 87. 93. 93. 93.
 87. 93. 93. 87. 87. 87. 87. 93. 93. 93. 93. 93. 93. 87. 87. 87.]",636.5782621552062,None,l,1,1.2756835382569989,636.5782621552062,None,None,None,,,,,,,04,23,F,4,2021_Oct_28_1717,Partial repeat,2021.2.3,120.10222790790904,
2,5,0,1,1,2,3,2,2,1,1,0,1,1,0,0,0,76,76,76,1,0,1,0,,,,,,,,,0.9851840304596319,637.9187882410952,None,"[87. 93. 93. 93. 87. 93. 87. 93. 93. 93. 87. 87. 93. 93. 93. 93. 93. 87.
 87. 93. 87. 87. 87. 87. 93. 87. 87. 93. 87. 87. 93. 93. 93. 87.]",638.9845464114369,None,l,1,1.397433506022935,638.9845464114369,None,None,None,,,,,,,04,23,F,4,2021_Oct_28_1717,Partial repeat,2021.2.3,120.10222790790904,
2,5,0,1,1,2,3,2,2,1,1,0,1,1,0,0,0,76,76,76,,,,,,,,,,,,,,,,,,,,,,,,,,,,,,,,04,23,F,4,2021_Oct_28_1717,Partial repeat,2021.2.3,120.10222790790904,
7,8,0,1,1,3,2,3,2,1,1,0,0,1,0,0,0,77,77,77,0,0,0,0,,,,,,,640.3999873638786,None,0.8701696273922517,641.8237906047543,None,"[93. 93. 93. 87. 93. 87. 93. 93. 87. 87. 93. 87. 87. 93. 93. 87. 87. 87.
 93. 87. 87. 93. 93. 87. 93. 93. 93. 93. 87. 87. 87. 93. 87. 87.]",642.7729600525454,None,l,1,1.6415456839713443,642.7729600525454,None,None,None,,,,,,,04,23,F,4,2021_Oct_28_1717,Partial repeat,2021.2.3,120.10222790790904,
7,8,0,1,1,3,2,3,2,1,1,0,0,1,0,0,0,77,77,77,1,0,1,0,,,,,,,,,0.7224131991088623,644.4881695138538,None,"[93. 87. 87. 87. 87. 87. 87. 87. 87. 87. 93. 87. 87. 93. 93. 87. 87. 87.
 87. 93. 93. 93. 87. 93. 87. 93. 87. 87. 93. 87. 87. 87. 87. 87.]",645.2874954378458,None,l,1,1.0785681012166606,645.2874954378458,None,None,None,,,,,,,04,23,F,4,2021_Oct_28_1717,Partial repeat,2021.2.3,120.10222790790904,
7,8,0,1,1,3,2,3,2,1,1,0,0,1,0,0,0,77,77,77,,,,,,,,,,,,,,,,,,,,,,,,,,,,,,,,04,23,F,4,2021_Oct_28_1717,Partial repeat,2021.2.3,120.10222790790904,
2,6,0,1,1,2,3,3,2,1,0,0,0,0,0,0,0,78,78,78,0,0,0,0,,,,,,,646.3865603650484,None,0.9688843762865516,647.5022562207196,None,"[93. 87. 93. 93. 87. 87. 93. 87. 93. 93. 87. 87. 87. 87. 93. 93. 93. 93.
 93. 93. 93. 87. 87. 87. 93. 93. 93. 87. 87. 93. 93. 93. 87. 87.]",648.5513491462261,None,l,1,1.3832271729552303,648.5513491462261,None,None,None,,,,,,,04,23,F,4,2021_Oct_28_1717,Partial repeat,2021.2.3,120.10222790790904,
2,6,0,1,1,2,3,3,2,1,0,0,0,0,0,0,0,78,78,78,1,0,1,0,,,,,,,,,0.8206692555227728,650.0084585025361,None,"[93. 87. 87. 93. 93. 93. 87. 93. 87. 93. 93. 93. 93. 87. 93. 87. 93. 87.
 93. 93. 87. 87. 87. 87. 93. 93. 87. 87. 93. 93. 87. 93. 93. 93.]",650.9159880899751,None,s,1,1.3532491033583938,650.9159880899751,None,None,None,,,,,,,04,23,F,4,2021_Oct_28_1717,Partial repeat,2021.2.3,120.10222790790904,
2,6,0,1,1,2,3,3,2,1,0,0,0,0,0,0,0,78,78,78,,,,,,,,,,,,,,,,,,,,,,,,,,,,,,,,04,23,F,4,2021_Oct_28_1717,Partial repeat,2021.2.3,120.10222790790904,
8,7,0,1,1,2,2,3,2,0,0,1,0,1,0,0,0,79,79,79,0,0,0,0,,,,,,,652.2981415283793,None,0.8830926093187488,653.0974789980646,None,"[93. 87. 93. 87. 93. 87. 87. 93. 93. 87. 87. 93. 87. 93. 93. 87. 87. 87.
 93. 93. 87. 93. 93. 93. 93. 87. 87. 87. 87. 87. 87. 93. 93. 93.]",654.0633021449939,None,l,0,2.285954714501713,654.0633021449939,None,656.3613529114045,None,,,,,,,04,23,F,4,2021_Oct_28_1717,Partial repeat,2021.2.3,120.10222790790904,
8,7,0,1,1,2,2,3,2,0,0,1,0,1,0,0,0,79,79,79,1,0,1,0,,,,,,,,,0.7040003535596775,656.9108800832291,None,"[87. 87. 87. 93. 93. 87. 87. 87. 87. 87. 87. 93. 87. 87. 93. 93. 87. 93.
 93. 93. 93. 93. 87. 87. 93. 87. 93. 93. 93. 93. 87. 93. 93. 87.]",657.6935337066861,None,s,1,1.3917424418177688,657.6935337066861,None,None,None,,,,,,,04,23,F,4,2021_Oct_28_1717,Partial repeat,2021.2.3,120.10222790790904,
8,7,0,1,1,2,2,3,2,0,0,1,0,1,0,0,0,79,79,79,,,,,,,,,,,,,,,,,,,,,,,,,,,,,,,,04,23,F,4,2021_Oct_28_1717,Partial repeat,2021.2.3,120.10222790790904,
4,7,0,1,1,3,3,3,2,0,1,1,0,0,0,0,0,80,80,80,0,0,0,0,,,,,,,659.1090019197909,None,0.9463713442921994,660.2163845562245,None,"[87. 87. 87. 93. 93. 87. 93. 93. 93. 87. 87. 93. 93. 87. 87. 93. 87. 87.
 87. 93. 93. 93. 87. 87. 93. 93. 93. 93. 93. 93. 93. 93. 87. 93.]",661.240510242631,None,s,1,1.3008278113084089,661.240510242631,None,None,None,,,,,,,04,23,F,4,2021_Oct_28_1717,Partial repeat,2021.2.3,120.10222790790904,
4,7,0,1,1,3,3,3,2,0,1,1,0,0,0,0,0,80,80,80,1,0,1,0,,,,,,,,,0.7441986927910459,662.6143190318544,None,"[87. 87. 87. 87. 87. 93. 87. 87. 93. 93. 93. 87. 87. 87. 87. 87. 87. 87.
 93. 87. 93. 87. 93. 93. 93. 93. 87. 87. 93. 93. 93. 93. 93. 87.]",663.4386388141793,None,l,1,1.214722282395087,663.4386388141793,None,None,None,,,,,,,04,23,F,4,2021_Oct_28_1717,Partial repeat,2021.2.3,120.10222790790904,
4,7,0,1,1,3,3,3,2,0,1,1,0,0,0,0,0,80,80,80,,,,,,,,,,,,,,,,,,,,,,,,,,,,,,,,04,23,F,4,2021_Oct_28_1717,Partial repeat,2021.2.3,120.10222790790904,
1,1,0,1,1,2,3,3,3,1,0,0,1,0,0,0,0,81,81,81,0,0,0,0,,,,,,,664.6709172988449,None,0.8899930747846283,665.2453959947961,None,"[93. 93. 87. 87. 87. 87. 93. 87. 87. 87. 87. 87. 87. 93. 87. 87. 87. 93.
 87. 93. 87. 93. 93. 93. 93. 93. 87. 93. 87. 87. 87. 93. 87. 93.]",666.2195862408698,None,l,1,1.4089205078234954,666.2195862408698,None,None,None,,,,,,,04,23,F,4,2021_Oct_28_1717,Partial repeat,2021.2.3,120.10222790790904,
1,1,0,1,1,2,3,3,3,1,0,0,1,0,0,0,0,81,81,81,1,0,1,0,,,,,,,,,0.7811068183298546,667.7016480834463,None,"[87. 93. 87. 87. 93. 87. 87. 87. 87. 87. 93. 87. 93. 87. 87. 87. 93. 93.
 87. 93. 87. 93. 87. 87. 93. 93. 87. 93. 87. 93. 87. 87. 93. 87.]",668.5592605112288,None,s,1,2.0932070770359132,668.5592605112288,None,None,None,,,,,,,04,23,F,4,2021_Oct_28_1717,Partial repeat,2021.2.3,120.10222790790904,
1,1,0,1,1,2,3,3,3,1,0,0,1,0,0,0,0,81,81,81,,,,,,,,,,,,,,,,,,,,,,,,,,,,,,,,04,23,F,4,2021_Oct_28_1717,Partial repeat,2021.2.3,120.10222790790904,
8,1,0,1,1,2,3,2,2,1,0,0,1,0,0,0,0,82,82,82,0,0,0,0,,,,,,,670.67412347348,None,0.7288017645947453,671.3735134119233,None,"[93. 93. 93. 93. 87. 87. 93. 87. 87. 93. 87. 93. 93. 87. 87. 87. 93. 87.
 87. 87. 93. 87. 87. 87. 87. 87. 93. 87. 93. 93. 93. 93. 93. 93.]",672.189475716521,None,l,1,0.91102214455168,672.189475716521,None,None,None,,,,,,,04,23,F,4,2021_Oct_28_1717,Partial repeat,2021.2.3,120.10222790790904,
8,1,0,1,1,2,3,2,2,1,0,0,1,0,0,0,0,82,82,82,1,0,1,0,,,,,,,,,0.7083195492237212,673.1636425504912,None,"[87. 93. 87. 93. 87. 93. 93. 87. 93. 87. 87. 93. 87. 93. 93. 93. 93. 87.
 93. 87. 87. 93. 87. 87. 87. 87. 93. 87. 87. 87. 93. 93. 93. 93.]",673.9463080403548,None,s,1,0.7222295481624315,673.9463080403548,None,None,None,,,,,,,04,23,F,4,2021_Oct_28_1717,Partial repeat,2021.2.3,120.10222790790904,
8,1,0,1,1,2,3,2,2,1,0,0,1,0,0,0,0,82,82,82,,,,,,,,,,,,,,,,,,,,,,,,,,,,,,,,04,23,F,4,2021_Oct_28_1717,Partial repeat,2021.2.3,120.10222790790904,
1,2,0,1,1,3,2,3,2,1,0,0,0,0,0,0,0,83,83,83,0,0,0,0,,,,,,,674.6873493848361,None,0.9192628245152255,675.261850210034,None,"[93. 87. 93. 87. 93. 93. 87. 93. 87. 93. 93. 87. 93. 87. 93. 93. 93. 93.
 93. 93. 87. 87. 93. 87. 93. 93. 87. 93. 87. 93. 93. 93. 87. 93.]",676.2609974323641,None,l,1,1.1115753115045663,676.2609974323641,None,None,None,,,,,,,04,23,F,4,2021_Oct_28_1717,Partial repeat,2021.2.3,120.10222790790904,
1,2,0,1,1,3,2,3,2,1,0,0,0,0,0,0,0,83,83,83,1,0,1,0,,,,,,,,,0.7192725135074698,677.4349762639795,None,"[93. 93. 87. 93. 87. 87. 93. 93. 93. 93. 87. 87. 87. 87. 87. 93. 93. 93.
 93. 87. 87. 87. 87. 87. 87. 87. 87. 87. 93. 87. 87. 87. 93. 87.]",678.2426291978991,None,s,1,0.8588208620822115,678.2426291978991,None,None,None,,,,,,,04,23,F,4,2021_Oct_28_1717,Partial repeat,2021.2.3,120.10222790790904,
1,2,0,1,1,3,2,3,2,1,0,0,0,0,0,0,0,83,83,83,,,,,,,,,,,,,,,,,,,,,,,,,,,,,,,,04,23,F,4,2021_Oct_28_1717,Partial repeat,2021.2.3,120.10222790790904,
3,4,0,1,1,3,3,3,3,1,0,1,1,0,0,0,0,84,84,84,0,0,0,0,,,,,,,679.1252133547714,None,0.8933371629536099,679.7829813928329,None,"[93. 93. 87. 93. 93. 87. 87. 93. 87. 87. 87. 87. 93. 87. 87. 93. 87. 93.
 87. 93. 93. 87. 87. 93. 87. 87. 87. 93. 93. 93. 87. 93. 93. 93.]",680.7654960831205,None,l,1,0.9431291115433851,680.7654960831205,None,None,None,,,,,,,04,23,F,4,2021_Oct_28_1717,Partial repeat,2021.2.3,120.10222790790904,
3,4,0,1,1,3,3,3,3,1,0,1,1,0,0,0,0,84,84,84,1,0,1,0,,,,,,,,,0.9043275706360242,681.7812893074697,None,"[93. 93. 87. 87. 87. 93. 93. 93. 93. 87. 93. 87. 87. 93. 93. 87. 87. 87.
 87. 93. 93. 87. 93. 93. 93. 93. 87. 87. 93. 93. 87. 87. 93. 93.]",682.7720966913221,None,s,1,1.1596804388827877,682.7720966913221,None,None,None,,,,,,,04,23,F,4,2021_Oct_28_1717,Partial repeat,2021.2.3,120.10222790790904,
3,4,0,1,1,3,3,3,3,1,0,1,1,0,0,0,0,84,84,84,,,,,,,,,,,,,,,,,,,,,,,,,,,,,,,,04,23,F,4,2021_Oct_28_1717,Partial repeat,2021.2.3,120.10222790790904,
5,8,0,1,1,2,2,3,2,1,0,1,0,0,0,0,0,85,85,85,0,0,0,0,,,,,,,683.9460883514839,None,0.9185299028089275,684.5539036306691,None,"[93. 93. 87. 93. 93. 93. 87. 93. 87. 87. 87. 93. 93. 87. 93. 87. 93. 87.
 87. 93. 87. 87. 87. 93. 87. 93. 93. 93. 93. 93. 87. 87. 87. 93.]",685.5614048028765,None,l,1,0.8343138471136626,685.5614048028765,None,None,None,,,,,,,04,23,F,4,2021_Oct_28_1717,Partial repeat,2021.2.3,120.10222790790904,
5,8,0,1,1,2,2,3,2,1,0,1,0,0,0,0,0,85,85,85,1,0,1,0,,,,,,,,,0.9561116087673376,686.4606080218182,None,"[93. 87. 93. 87. 87. 87. 87. 87. 87. 87. 93. 87. 93. 87. 93. 87. 93. 87.
 93. 93. 93. 93. 87. 93. 87. 93. 87. 87. 87. 93. 87. 93. 93. 93.]",687.5014108194664,None,s,1,1.1501613362124772,687.5014108194664,None,None,None,,,,,,,04,23,F,4,2021_Oct_28_1717,Partial repeat,2021.2.3,120.10222790790904,
5,8,0,1,1,2,2,3,2,1,0,1,0,0,0,0,0,85,85,85,,,,,,,,,,,,,,,,,,,,,,,,,,,,,,,,04,23,F,4,2021_Oct_28_1717,Partial repeat,2021.2.3,120.10222790790904,
7,1,0,1,1,2,3,3,2,0,0,0,0,1,0,0,0,86,86,86,0,0,0,0,,,,,,,688.6753774639619,None,0.8853604985097183,689.4830182107617,None,"[87. 93. 93. 93. 93. 93. 87. 93. 93. 93. 93. 93. 87. 93. 87. 87. 87. 93.
 87. 93. 93. 93. 87. 93. 93. 93. 87. 93. 93. 93. 93. 87. 93. 87.]",690.4571924211486,None,s,1,1.3945958314070594,690.4571924211486,None,None,None,,,,,,,04,23,F,4,2021_Oct_28_1717,Partial repeat,2021.2.3,120.10222790790904,
7,1,0,1,1,2,3,3,2,0,0,0,0,1,0,0,0,86,86,86,1,0,1,0,,,,,,,,,0.9157085714751618,691.9226044131465,None,"[93. 93. 87. 87. 93. 87. 87. 87. 93. 93. 93. 93. 87. 87. 93. 93. 87. 93.
 87. 93. 93. 93. 87. 87. 87. 93. 87. 87. 93. 87. 93. 93. 93. 87.]",692.9217323926568,None,s,1,2.066311386595771,692.9217323926568,None,None,None,,,,,,,04,23,F,4,2021_Oct_28_1717,Partial repeat,2021.2.3,120.10222790790904,
7,1,0,1,1,2,3,3,2,0,0,0,0,1,0,0,0,86,86,86,,,,,,,,,,,,,,,,,,,,,,,,,,,,,,,,04,23,F,4,2021_Oct_28_1717,Partial repeat,2021.2.3,120.10222790790904,
8,2,0,1,1,3,3,2,2,1,1,1,1,1,0,0,0,87,87,87,0,0,0,0,,,,,,,695.0032969366039,None,0.8267817696208363,695.561151439073,None,"[93. 87. 87. 87. 87. 93. 87. 87. 93. 93. 87. 93. 93. 87. 87. 87. 87. 93.
 87. 87. 87. 87. 93. 93. 93. 87. 93. 93. 87. 93. 87. 93. 93. 93.]",696.477021185703,None,l,1,1.6619700138253393,696.477021185703,None,None,None,,,,,,,04,23,F,4,2021_Oct_28_1717,Partial repeat,2021.2.3,120.10222790790904,
8,2,0,1,1,3,3,2,2,1,1,1,1,1,0,0,0,87,87,87,1,0,1,0,,,,,,,,,0.836935174544657,698.2088673483304,None,"[87. 87. 87. 87. 87. 87. 87. 87. 87. 87. 87. 93. 93. 87. 93. 87. 93. 87.
 87. 87. 93. 87. 93. 93. 87. 87. 93. 87. 87. 93. 87. 93. 87. 87.]",699.1330993833944,None,l,1,1.5503433732956182,699.1330993833944,None,None,None,,,,,,,04,23,F,4,2021_Oct_28_1717,Partial repeat,2021.2.3,120.10222790790904,
8,2,0,1,1,3,3,2,2,1,1,1,1,1,0,0,0,87,87,87,,,,,,,,,,,,,,,,,,,,,,,,,,,,,,,,04,23,F,4,2021_Oct_28_1717,Partial repeat,2021.2.3,120.10222790790904,
4,1,0,1,1,2,2,2,2,1,0,1,1,0,0,0,0,88,88,88,0,0,0,0,,,,,,,700.7067576937588,None,0.7074728047265281,701.2396818392008,None,"[93. 87. 87. 87. 93. 87. 87. 87. 93. 93. 93. 87. 93. 93. 93. 87. 93. 87.
 93. 87. 93. 93. 87. 87. 87. 87. 87. 93. 93. 93. 87. 87. 87. 87.]",702.0306480404688,None,l,1,1.4043105694181577,702.0306480404688,None,None,None,,,,,,,04,23,F,4,2021_Oct_28_1717,Partial repeat,2021.2.3,120.10222790790904,
4,1,0,1,1,2,2,2,2,1,0,1,1,0,0,0,0,88,88,88,1,0,1,0,,,,,,,,,0.785329510114632,703.4877211561325,None,"[87. 87. 93. 87. 93. 87. 93. 87. 93. 93. 93. 93. 93. 93. 93. 87. 93. 93.
 93. 93. 87. 87. 93. 87. 93. 87. 87. 93. 87. 87. 87. 93. 93. 93.]",704.3619452695675,None,s,1,0.8490637898648856,704.3619452695675,None,None,None,,,,,,,04,23,F,4,2021_Oct_28_1717,Partial repeat,2021.2.3,120.10222790790904,
4,1,0,1,1,2,2,2,2,1,0,1,1,0,0,0,0,88,88,88,,,,,,,,,,,,,,,,,,,,,,,,,,,,,,,,04,23,F,4,2021_Oct_28_1717,Partial repeat,2021.2.3,120.10222790790904,
6,1,0,1,1,3,3,3,2,0,0,1,0,1,0,0,0,89,89,89,0,0,0,0,,,,,,,705.2195702051831,None,0.9726727506930253,705.8356967793261,None,"[87. 93. 93. 93. 87. 87. 87. 93. 93. 93. 93. 87. 87. 93. 87. 87. 93. 93.
 93. 93. 87. 93. 87. 87. 93. 87. 87. 87. 87. 87. 87. 87. 93. 93.]",706.8931311468768,None,s,1,1.1487700802754262,706.8931311468768,None,None,None,,,,,,,04,23,F,4,2021_Oct_28_1717,Partial repeat,2021.2.3,120.10222790790904,
6,1,0,1,1,3,3,3,2,0,0,1,0,1,0,0,0,89,89,89,1,0,1,0,,,,,,,,,0.7023488949488934,708.1420453707215,None,"[93. 87. 93. 93. 87. 87. 93. 87. 87. 93. 93. 93. 93. 87. 93. 93. 87. 87.
 87. 87. 93. 93. 93. 93. 93. 87. 87. 93. 87. 87. 93. 93. 93. 93.]",708.9330394740791,None,s,1,1.1580922647481202,708.9330394740791,None,None,None,,,,,,,04,23,F,4,2021_Oct_28_1717,Partial repeat,2021.2.3,120.10222790790904,
6,1,0,1,1,3,3,3,2,0,0,1,0,1,0,0,0,89,89,89,,,,,,,,,,,,,,,,,,,,,,,,,,,,,,,,04,23,F,4,2021_Oct_28_1717,Partial repeat,2021.2.3,120.10222790790904,
8,6,0,1,1,2,3,2,2,0,0,0,1,1,0,0,0,90,90,90,0,0,0,0,,,,,,,710.1070430006475,None,0.8692924081993284,712.9546126003261,None,"[93. 87. 87. 87. 93. 93. 93. 93. 87. 87. 93. 93. 87. 87. 93. 87. 87. 87.
 93. 87. 87. 93. 93. 93. 93. 93. 87. 93. 93. 87. 93. 87. 93. 93.]",713.9121122651813,None,s,1,0.7381279665933107,713.9121122651813,None,None,None,,,,,,,04,23,F,4,2021_Oct_28_1717,Partial repeat,2021.2.3,120.10222790790904,
8,6,0,1,1,2,3,2,2,0,0,0,1,1,0,0,0,90,90,90,1,0,1,0,,,,,,,,,0.92360204187508,714.7114404341664,None,"[93. 87. 87. 93. 87. 93. 87. 93. 93. 87. 87. 93. 87. 87. 87. 87. 87. 93.
 87. 87. 93. 93. 87. 87. 93. 87. 87. 87. 93. 87. 87. 87. 87. 87.]",715.7189274949742,None,s,1,1.0752724474659772,715.7189274949742,None,None,None,,,,,,,04,23,F,4,2021_Oct_28_1717,Partial repeat,2021.2.3,120.10222790790904,
8,6,0,1,1,2,3,2,2,0,0,0,1,1,0,0,0,90,90,90,,,,,,,,,,,,,,,,,,,,,,,,,,,,,,,,04,23,F,4,2021_Oct_28_1717,Partial repeat,2021.2.3,120.10222790790904,
5,2,0,1,1,2,3,3,3,0,1,0,1,0,0,0,0,91,91,91,0,0,0,0,,,,,,,716.8096448865726,None,0.7019865758770869,717.6256129640133,None,"[93. 87. 87. 87. 93. 87. 87. 93. 93. 87. 87. 93. 93. 87. 87. 93. 93. 93.
 87. 87. 93. 93. 87. 87. 93. 93. 87. 93. 87. 93. 87. 87. 87. 87.]",718.4166045016646,None,s,1,1.0176241638910142,718.4166045016646,None,None,None,,,,,,,04,23,F,4,2021_Oct_28_1717,Partial repeat,2021.2.3,120.10222790790904,
5,2,0,1,1,2,3,3,3,0,1,0,1,0,0,0,0,91,91,91,1,0,1,0,,,,,,,,,0.8755348971056393,719.4990263132713,None,"[87. 93. 93. 93. 93. 93. 87. 87. 87. 87. 87. 87. 87. 87. 87. 93. 93. 93.
 93. 93. 93. 93. 87. 93. 87. 87. 93. 93. 93. 87. 87. 87. 87. 87.]",720.4648616473241,None,s,0,0.7453930935371318,720.4648616473241,None,721.2225358445612,None,,,,,,,04,23,F,4,2021_Oct_28_1717,Partial repeat,2021.2.3,120.10222790790904,
5,2,0,1,1,2,3,3,3,0,1,0,1,0,0,0,0,91,91,91,,,,,,,,,,,,,,,,,,,,,,,,,,,,,,,,04,23,F,4,2021_Oct_28_1717,Partial repeat,2021.2.3,120.10222790790904,
1,3,0,1,1,2,3,2,2,0,1,0,1,0,0,0,0,92,92,92,0,0,0,0,,,,,,,721.722116351073,None,0.7367494773598627,722.329924895268,None,"[93. 93. 93. 93. 93. 87. 87. 93. 93. 93. 93. 87. 87. 87. 87. 87. 93. 87.
 93. 87. 93. 93. 93. 93. 93. 87. 87. 87. 87. 87. 87. 93. 93. 93.]",723.1542158133634,None,s,1,0.952097548826714,723.1542158133634,None,None,None,,,,,,,04,23,F,4,2021_Oct_28_1717,Partial repeat,2021.2.3,120.10222790790904,
1,3,0,1,1,2,3,2,2,0,1,0,1,0,0,0,0,92,92,92,1,0,1,0,,,,,,,,,0.7224267097730721,724.1700407883654,None,"[93. 93. 87. 87. 93. 87. 93. 93. 87. 87. 87. 87. 87. 87. 93. 93. 87. 93.
 93. 93. 87. 87. 93. 87. 93. 87. 87. 87. 87. 87. 93. 93. 87. 93.]",724.9776597266355,None,l,1,1.0486974706982437,724.9776597266355,None,None,None,,,,,,,04,23,F,4,2021_Oct_28_1717,Partial repeat,2021.2.3,120.10222790790904,
1,3,0,1,1,2,3,2,2,0,1,0,1,0,0,0,0,92,92,92,,,,,,,,,,,,,,,,,,,,,,,,,,,,,,,,04,23,F,4,2021_Oct_28_1717,Partial repeat,2021.2.3,120.10222790790904,
3,6,0,1,1,3,2,2,3,1,1,0,0,1,0,0,0,93,93,93,0,0,0,0,,,,,,,726.0434021820074,None,0.9066580401700625,726.759459610279,None,"[87. 93. 87. 93. 93. 93. 87. 93. 93. 87. 93. 87. 93. 93. 93. 93. 87. 87.
 93. 87. 87. 87. 87. 93. 93. 93. 87. 93. 93. 87. 93. 93. 93. 93.]",727.7502904062349,None,l,1,1.5872097312640108,727.7502904062349,None,None,None,,,,,,,04,23,F,4,2021_Oct_28_1717,Partial repeat,2021.2.3,120.10222790790904,
3,6,0,1,1,3,2,2,3,1,1,0,0,1,0,0,0,93,93,93,1,0,1,0,,,,,,,,,0.7914048300643962,729.4071941209331,None,"[87. 87. 93. 93. 87. 87. 93. 87. 87. 93. 93. 93. 87. 87. 87. 87. 93. 93.
 87. 93. 93. 93. 87. 87. 87. 93. 87. 87. 87. 93. 93. 93. 93. 93.]",730.2731415764865,None,s,0,1.7523679745972913,730.2731415764865,None,732.0382864781313,None,,,,,,,04,23,F,4,2021_Oct_28_1717,Partial repeat,2021.2.3,120.10222790790904,
3,6,0,1,1,3,2,2,3,1,1,0,0,1,0,0,0,93,93,93,,,,,,,,,,,,,,,,,,,,,,,,,,,,,,,,04,23,F,4,2021_Oct_28_1717,Partial repeat,2021.2.3,120.10222790790904,
3,8,0,1,1,2,3,3,2,1,1,0,0,1,0,0,0,94,94,94,0,0,0,0,,,,,,,732.5378570425164,None,0.8215931262350378,733.1123559434309,None,"[93. 93. 93. 93. 93. 87. 93. 93. 93. 93. 93. 93. 93. 87. 87. 87. 93. 93.
 87. 87. 87. 93. 93. 93. 87. 87. 87. 87. 87. 93. 93. 93. 93. 87.]",734.0199256200831,None,l,1,0.9015687881837948,734.0199256200831,None,None,None,,,,,,,04,23,F,4,2021_Oct_28_1717,Partial repeat,2021.2.3,120.10222790790904,
3,8,0,1,1,2,3,3,2,1,1,0,0,1,0,0,0,94,94,94,1,0,1,0,,,,,,,,,0.7892064089796077,734.9857648026991,None,"[93. 93. 93. 87. 87. 93. 87. 93. 93. 93. 87. 93. 87. 93. 87. 93. 93. 87.
 87. 93. 87. 93. 87. 87. 93. 93. 87. 87. 93. 87. 87. 93. 93. 93.]",735.8600229117837,None,l,1,1.0614993985764158,735.8600229117837,None,None,None,,,,,,,04,23,F,4,2021_Oct_28_1717,Partial repeat,2021.2.3,120.10222790790904,
3,8,0,1,1,2,3,3,2,1,1,0,0,1,0,0,0,94,94,94,,,,,,,,,,,,,,,,,,,,,,,,,,,,,,,,04,23,F,4,2021_Oct_28_1717,Partial repeat,2021.2.3,120.10222790790904,
6,5,0,1,1,3,3,3,3,0,1,1,1,0,0,0,0,95,95,95,0,0,0,0,,,,,,,736.9340975085033,None,0.9355999417909551,737.7833752292281,None,"[87. 87. 87. 87. 87. 93. 87. 93. 87. 93. 93. 93. 87. 93. 87. 93. 87. 87.
 93. 87. 93. 93. 87. 87. 87. 93. 87. 87. 87. 87. 87. 93. 87. 87.]",738.8074829556681,None,s,1,1.586096534090757,738.8074829556681,None,None,None,,,,,,,04,23,F,4,2021_Oct_28_1717,Partial repeat,2021.2.3,120.10222790790904,
6,5,0,1,1,3,3,3,3,0,1,1,1,0,0,0,0,95,95,95,1,0,1,0,,,,,,,,,0.7153390907386378,740.4644161760261,None,"[93. 87. 87. 93. 93. 93. 87. 93. 93. 93. 87. 87. 87. 93. 93. 93. 87. 87.
 87. 87. 87. 93. 93. 93. 87. 93. 93. 93. 93. 87. 87. 93. 87. 87.]",741.2637305543249,None,l,1,1.8975980321447423,741.2637305543249,None,None,None,,,,,,,04,23,F,4,2021_Oct_28_1717,Partial repeat,2021.2.3,120.10222790790904,
6,5,0,1,1,3,3,3,3,0,1,1,1,0,0,0,0,95,95,95,,,,,,,,,,,,,,,,,,,,,,,,,,,,,,,,04,23,F,4,2021_Oct_28_1717,Partial repeat,2021.2.3,120.10222790790904,
8,8,0,1,1,2,2,2,2,0,1,1,1,0,0,0,0,96,96,96,0,0,0,0,,,,,,,743.1870819096293,None,0.9238232671395492,744.1695629249843,None,"[93. 87. 93. 93. 87. 93. 93. 93. 87. 93. 93. 87. 87. 87. 87. 93. 93. 93.
 87. 87. 93. 87. 87. 93. 93. 93. 87. 87. 87. 93. 93. 93. 93. 87.]",745.1687319558441,None,s,1,0.9360323592809436,745.1687319558441,None,None,None,,,,,,,04,23,F,4,2021_Oct_28_1717,Partial repeat,2021.2.3,120.10222790790904,
8,8,0,1,1,2,2,2,2,0,1,1,1,0,0,0,0,96,96,96,1,0,1,0,,,,,,,,,0.9182734632205621,746.1678698774776,None,"[87. 93. 87. 93. 87. 87. 93. 93. 87. 93. 93. 93. 87. 87. 87. 87. 87. 87.
 93. 93. 93. 87. 87. 93. 87. 87. 87. 87. 93. 87. 87. 93. 87. 87.]",747.1753447511655,None,l,1,1.073415194558038,747.1753447511655,None,None,None,,,,,,,04,23,F,4,2021_Oct_28_1717,Partial repeat,2021.2.3,120.10222790790904,
8,8,0,1,1,2,2,2,2,0,1,1,1,0,0,0,0,96,96,96,,,,,,,,,,,,,,,,,,,,,,,,,,,,,,,,04,23,F,4,2021_Oct_28_1717,Partial repeat,2021.2.3,120.10222790790904,
1,5,0,1,1,3,2,3,2,0,0,0,0,1,0,0,0,97,97,97,0,0,0,0,,,,,,,748.2744276383346,None,0.9249524360864837,748.8405841350614,None,"[93. 87. 87. 87. 87. 93. 87. 93. 93. 87. 87. 87. 93. 87. 93. 87. 87. 93.
 93. 87. 87. 93. 93. 93. 87. 93. 87. 93. 93. 93. 87. 93. 93. 93.]",749.8480580466094,None,s,1,0.7526729733071988,749.8480580466094,None,None,None,,,,,,,04,23,F,4,2021_Oct_28_1717,Partial repeat,2021.2.3,120.10222790790904,
1,5,0,1,1,3,2,3,2,0,0,0,0,1,0,0,0,97,97,97,1,0,1,0,,,,,,,,,0.7812151397101076,750.6556830784393,None,"[93. 87. 87. 93. 87. 87. 87. 87. 87. 93. 93. 93. 87. 93. 93. 93. 87. 87.
 87. 93. 87. 87. 93. 87. 87. 87. 93. 93. 87. 93. 93. 93. 93. 87.]",751.5216289304262,None,s,1,1.1922017679426062,751.5216289304262,None,None,None,,,,,,,04,23,F,4,2021_Oct_28_1717,Partial repeat,2021.2.3,120.10222790790904,
1,5,0,1,1,3,2,3,2,0,0,0,0,1,0,0,0,97,97,97,,,,,,,,,,,,,,,,,,,,,,,,,,,,,,,,04,23,F,4,2021_Oct_28_1717,Partial repeat,2021.2.3,120.10222790790904,
6,8,0,1,1,2,2,2,3,1,1,1,0,1,0,0,0,98,98,98,0,0,0,0,,,,,,,752.7455624451977,None,0.987775997955857,753.5615452754682,None,"[93. 93. 87. 93. 93. 87. 87. 87. 93. 93. 93. 93. 87. 93. 87. 93. 87. 87.
 87. 87. 93. 93. 93. 93. 93. 87. 87. 87. 87. 93. 87. 87. 87. 87.]",754.6356355871576,None,l,1,1.0691869054317067,754.6356355871576,None,None,None,,,,,,,04,23,F,4,2021_Oct_28_1717,Partial repeat,2021.2.3,120.10222790790904,
6,8,0,1,1,2,2,2,3,1,1,1,0,1,0,0,0,98,98,98,1,0,1,0,,,,,,,,,0.7092848091486621,755.7763143968987,None,"[93. 93. 93. 93. 87. 87. 93. 93. 93. 87. 87. 93. 93. 87. 87. 87. 87. 87.
 87. 87. 93. 87. 93. 87. 93. 93. 87. 93. 87. 93. 93. 93. 93. 93.]",756.5756393587508,None,l,1,1.46521056896745,756.5756393587508,None,None,None,,,,,,,04,23,F,4,2021_Oct_28_1717,Partial repeat,2021.2.3,120.10222790790904,
6,8,0,1,1,2,2,2,3,1,1,1,0,1,0,0,0,98,98,98,,,,,,,,,,,,,,,,,,,,,,,,,,,,,,,,04,23,F,4,2021_Oct_28_1717,Partial repeat,2021.2.3,120.10222790790904,
5,4,0,1,1,3,3,2,3,1,1,1,0,1,0,0,0,99,99,99,0,0,0,0,,,,,,,758.066018589845,None,0.8792513444224013,758.8403577112076,None,"[93. 87. 93. 87. 93. 93. 87. 87. 93. 87. 87. 87. 93. 87. 93. 87. 93. 93.
 87. 93. 93. 87. 93. 93. 93. 87. 87. 87. 93. 93. 93. 87. 87. 87.]",759.8062013838135,None,l,1,1.5778067269457097,759.8062013838135,None,None,None,,,,,,,04,23,F,4,2021_Oct_28_1717,Partial repeat,2021.2.3,120.10222790790904,
5,4,0,1,1,3,3,2,3,1,1,1,0,1,0,0,0,99,99,99,1,0,1,0,,,,,,,,,0.9689729979275357,761.4464619829196,None,"[93. 93. 87. 87. 93. 93. 87. 93. 87. 93. 93. 93. 93. 87. 87. 87. 87. 87.
 87. 93. 93. 93. 93. 87. 87. 93. 87. 87. 93. 93. 93. 93. 93. 87.]",762.5038739005104,None,l,1,1.201083291820396,762.5038739005104,None,None,None,,,,,,,04,23,F,4,2021_Oct_28_1717,Partial repeat,2021.2.3,120.10222790790904,
5,4,0,1,1,3,3,2,3,1,1,1,0,1,0,0,0,99,99,99,,,,,,,,,,,,,,,,,,,,,,,,,,,,,,,,04,23,F,4,2021_Oct_28_1717,Partial repeat,2021.2.3,120.10222790790904,
3,5,0,1,1,2,2,3,3,0,0,1,1,1,0,0,0,100,100,100,0,0,0,0,,,,,,,763.7278298652418,None,0.8528567296647854,764.4022679588415,None,"[93. 87. 87. 87. 87. 87. 87. 87. 87. 93. 87. 93. 93. 93. 93. 87. 87. 93.
 87. 87. 93. 93. 87. 93. 87. 93. 93. 87. 93. 87. 87. 87. 87. 87.]",765.3431405437877,None,s,1,1.016841943233885,765.3431405437877,None,None,None,,,,,,,04,23,F,4,2021_Oct_28_1717,Partial repeat,2021.2.3,120.10222790790904,
3,5,0,1,1,2,2,3,3,0,0,1,1,1,0,0,0,100,100,100,1,0,1,0,,,,,,,,,0.7630152966486344,766.4255408675817,None,"[87. 87. 93. 87. 93. 93. 87. 93. 93. 93. 87. 93. 87. 87. 93. 87. 87. 93.
 93. 93. 87. 87. 93. 93. 93. 87. 87. 87. 87. 87. 93. 87. 87. 93.]",767.2748047976165,None,s,1,1.96522949107748,767.2748047976165,None,None,None,,,,,,,04,23,F,4,2021_Oct_28_1717,Partial repeat,2021.2.3,120.10222790790904,
3,5,0,1,1,2,2,3,3,0,0,1,1,1,0,0,0,100,100,100,,,,,,,,,,,,,,,,,,,,,,,,,,,,,,,,04,23,F,4,2021_Oct_28_1717,Partial repeat,2021.2.3,120.10222790790904,
5,7,0,1,1,2,2,3,3,1,1,1,1,1,0,0,0,101,101,101,0,0,0,0,,,,,,,769.2564484295581,None,0.8115545842531496,770.2139654129533,None,"[93. 87. 87. 87. 93. 87. 93. 93. 87. 93. 87. 93. 93. 87. 93. 93. 93. 87.
 87. 93. 87. 87. 87. 87. 93. 93. 93. 87. 87. 93. 93. 93. 93. 93.]",771.113212569664,None,l,1,1.4080016631342005,771.113212569664,None,None,None,,,,,,,04,23,F,4,2021_Oct_28_1717,Partial repeat,2021.2.3,120.10222790790904,
5,7,0,1,1,2,2,3,3,1,1,1,1,1,0,0,0,101,101,101,1,0,1,0,,,,,,,,,0.9016320624998256,772.5786024324188,None,"[87. 93. 87. 93. 93. 93. 87. 93. 93. 93. 93. 87. 93. 93. 93. 87. 93. 93.
 87. 87. 87. 87. 93. 87. 87. 87. 93. 93. 93. 93. 93. 87. 87. 87.]",773.5610988420303,None,l,1,1.05563803539917,773.5610988420303,None,None,None,,,,,,,04,23,F,4,2021_Oct_28_1717,Partial repeat,2021.2.3,120.10222790790904,
5,7,0,1,1,2,2,3,3,1,1,1,1,1,0,0,0,101,101,101,,,,,,,,,,,,,,,,,,,,,,,,,,,,,,,,04,23,F,4,2021_Oct_28_1717,Partial repeat,2021.2.3,120.10222790790904,
4,8,0,1,1,2,2,2,3,1,0,1,0,0,0,0,0,102,102,102,0,0,0,0,,,,,,,774.6351660623332,None,0.8460905358953144,775.4761151695639,None,"[87. 93. 93. 93. 93. 87. 93. 87. 93. 93. 93. 87. 87. 93. 93. 93. 93. 87.
 87. 87. 93. 93. 93. 93. 93. 93. 87. 93. 93. 93. 93. 87. 93. 93.]",776.4086726109854,None,l,1,1.7105196503616753,776.4086726109854,None,None,None,,,,,,,04,23,F,4,2021_Oct_28_1717,Partial repeat,2021.2.3,120.10222790790904,
4,8,0,1,1,2,2,2,3,1,0,1,0,0,0,0,0,102,102,102,1,0,1,0,,,,,,,,,0.9196264809587381,778.1821329768682,None,"[87. 87. 87. 87. 93. 87. 93. 87. 87. 87. 87. 87. 93. 93. 93. 87. 87. 87.
