prime_tar_pos,probe_tar_pos,dimension,tar_color,tar_shape,prime_dist_color,probe_dist_color,prime_dist_shape,probe_dist_shape,prime_tar_ori,probe_tar_ori,col_rep,shape_rep,resp_rep,pos_fixed,sparse,MainLoop.thisRepN,MainLoop.thisTrialN,MainLoop.thisN,MainLoop.thisIndex,PrimeProbe.thisRepN,PrimeProbe.thisTrialN,PrimeProbe.thisN,PrimeProbe.thisIndex,Instruction.started,Instruction.stopped,instruction_key.keys,instruction_key.rt,instruction_key.started,instruction_key.stopped,PairStartText.started,PairStartText.stopped,fixdur,FixCross.started,FixCross.stopped,dist_ori,SearchFixCross.started,SearchFixCross.stopped,key_resp.keys,key_resp.corr,key_resp.rt,key_resp.started,key_resp.stopped,feedback_text.started,feedback_text.stopped,text_finish.started,text_finish.stopped,finish_key.keys,finish_key.rt,finish_key.started,finish_key.stopped,participant,age,gender,group,date,expName,psychopyVersion,frameRate,
,,,,,,,,,,,,,,,,,,,,,,,,48.20740260148432,None,space,4.452964419126602,48.20740260148432,None,,,,,,,,,,,,,,,,,,,,,,05_EA,23,M,5,2021_Oct_29_1343,Partial repeat,2021.2.3,120.10022263136987,
1,2,0,1,1,3,3,3,3,0,0,1,1,1,0,0,0,0,0,0,0,0,0,0,,,,,,,461.1522780467121,None,0.8883927800086431,474.0572566456258,None,"[87. 87. 87. 93. 87. 87. 93. 93. 93. 93. 93. 93. 93. 93. 87. 93. 93. 93.
 87. 93. 87. 87. 93. 87. 93. 87. 87. 87. 87. 87. 93. 87. 93. 87.]",475.0314281352612,None,s,1,2.4699454580145357,475.0314281352612,None,None,None,,,,,,,05_EA,23,M,5,2021_Oct_29_1343,Partial repeat,2021.2.3,120.10022263136987,
1,2,0,1,1,3,3,3,3,0,0,1,1,1,0,0,0,0,0,0,1,0,1,0,,,,,,,,,0.9078397193825617,477.57921865669323,None,"[93. 93. 87. 93. 93. 87. 93. 93. 87. 87. 87. 93. 93. 87. 93. 87. 87. 93.
 93. 87. 87. 87. 87. 87. 87. 93. 87. 93. 87. 93. 93. 87. 93. 87.]",478.57003989011173,None,s,1,1.5393612433122144,478.57003989011173,None,None,None,,,,,,,05_EA,23,M,5,2021_Oct_29_1343,Partial repeat,2021.2.3,120.10022263136987,
1,2,0,1,1,3,3,3,3,0,0,1,1,1,0,0,0,0,0,0,,,,,,,,,,,,,,,,,,,,,,,,,,,,,,,,05_EA,23,M,5,2021_Oct_29_1343,Partial repeat,2021.2.3,120.10022263136987,
4,8,0,1,1,2,2,2,2,1,1,1,1,1,0,0,0,1,1,1,0,0,0,0,,,,,,,480.12703226936173,None,0.9316929410846467,481.1344939459268,None,"[93. 87. 93. 93. 93. 93. 93. 87. 93. 93. 93. 87. 93. 87. 93. 87. 93. 87.
 87. 87. 87. 87. 93. 87. 93. 87. 93. 87. 87. 93. 87. 87. 93. 93.]",482.1502873896834,None,l,1,1.8791612988584347,482.1502873896834,None,None,None,,,,,,,05_EA,23,M,5,2021_Oct_29_1343,Partial repeat,2021.2.3,120.10022263136987,
4,8,0,1,1,2,2,2,2,1,1,1,1,1,0,0,0,1,1,1,1,0,1,0,,,,,,,,,0.8061364660342935,484.0986075984283,None,"[93. 93. 87. 93. 93. 93. 87. 93. 87. 87. 87. 87. 87. 87. 93. 87. 93. 93.
 93. 87. 93. 87. 87. 93. 93. 93. 93. 87. 87. 87. 87. 87. 93. 87.]",484.9811553058853,None,l,1,2.1033935633463443,484.9811553058853,None,None,None,,,,,,,05_EA,23,M,5,2021_Oct_29_1343,Partial repeat,2021.2.3,120.10022263136987,
4,8,0,1,1,2,2,2,2,1,1,1,1,1,0,0,0,1,1,1,,,,,,,,,,,,,,,,,,,,,,,,,,,,,,,,05_EA,23,M,5,2021_Oct_29_1343,Partial repeat,2021.2.3,120.10022263136987,
6,6,0,1,1,2,3,2,3,1,1,0,0,1,0,0,0,2,2,2,0,0,0,0,,,,,,,487.1043364701072,None,0.8551612563196337,487.928631080933,None,"[87. 93. 93. 93. 87. 87. 93. 87. 87. 93. 93. 93. 93. 87. 93. 87. 87. 93.
 87. 93. 87. 87. 93. 87. 87. 87. 93. 87. 93. 87. 87. 87. 87. 87.]",488.8611770886182,None,l,1,1.775328666707992,488.8611770886182,None,None,None,,,,,,,05_EA,23,M,5,2021_Oct_29_1343,Partial repeat,2021.2.3,120.10022263136987,
6,6,0,1,1,2,3,2,3,1,1,0,0,1,0,0,0,2,2,2,1,0,1,0,,,,,,,,,0.7470304482442572,490.7012529561598,None,"[93. 93. 93. 87. 87. 93. 93. 87. 87. 93. 93. 87. 87. 87. 93. 93. 93. 93.
 93. 93. 93. 93. 87. 87. 87. 93. 87. 93. 93. 87. 87. 87. 87. 93.]",491.52554917054385,None,l,1,1.4629850537116909,491.52554917054385,None,None,None,,,,,,,05_EA,23,M,5,2021_Oct_29_1343,Partial repeat,2021.2.3,120.10022263136987,
6,6,0,1,1,2,3,2,3,1,1,0,0,1,0,0,0,2,2,2,,,,,,,,,,,,,,,,,,,,,,,,,,,,,,,,05_EA,23,M,5,2021_Oct_29_1343,Partial repeat,2021.2.3,120.10022263136987,
4,6,0,1,1,2,3,3,3,1,0,0,1,0,0,0,0,3,3,3,0,0,0,0,,,,,,,493.0076021482546,None,0.7700444559094497,493.88184566971995,None,"[87. 87. 93. 87. 87. 87. 87. 93. 87. 87. 93. 87. 93. 87. 93. 93. 87. 93.
 87. 93. 93. 87. 93. 87. 87. 93. 87. 87. 87. 87. 93. 87. 93. 93.]",494.73944169238257,None,l,1,1.1930712674097776,494.73944169238257,None,None,None,,,,,,,05_EA,23,M,5,2021_Oct_29_1343,Partial repeat,2021.2.3,120.10022263136987,
4,6,0,1,1,2,3,3,3,1,0,0,1,0,0,0,0,3,3,3,1,0,1,0,,,,,,,,,0.9578555166719738,496.0050146468993,None,"[87. 87. 93. 93. 93. 87. 87. 87. 93. 93. 87. 87. 87. 87. 93. 93. 93. 87.
 93. 93. 93. 87. 93. 87. 93. 87. 93. 93. 93. 87. 87. 87. 93. 87.]",497.0457889602085,None,s,1,1.7187852837264472,497.0457889602085,None,None,None,,,,,,,05_EA,23,M,5,2021_Oct_29_1343,Partial repeat,2021.2.3,120.10022263136987,
4,6,0,1,1,2,3,3,3,1,0,0,1,0,0,0,0,3,3,3,,,,,,,,,,,,,,,,,,,,,,,,,,,,,,,,05_EA,23,M,5,2021_Oct_29_1343,Partial repeat,2021.2.3,120.10022263136987,
6,1,0,1,1,2,2,2,2,0,0,1,1,1,0,0,0,4,4,4,0,0,0,0,,,,,,,498.7859580265458,None,0.7205103411147686,500.09315004878044,None,"[87. 87. 93. 93. 93. 93. 93. 87. 93. 93. 93. 87. 87. 93. 87. 87. 87. 87.
 93. 93. 87. 93. 93. 93. 87. 93. 93. 93. 93. 87. 93. 93. 87. 93.]",500.89246860072853,None,s,1,1.7592283019307615,500.89246860072853,None,None,None,,,,,,,05_EA,23,M,5,2021_Oct_29_1343,Partial repeat,2021.2.3,120.10022263136987,
6,1,0,1,1,2,2,2,2,0,0,1,1,1,0,0,0,4,4,4,1,0,1,0,,,,,,,,,0.7086519853503266,502.715904987258,None,"[87. 93. 93. 93. 87. 87. 87. 87. 93. 93. 93. 93. 93. 87. 87. 87. 93. 93.
 87. 93. 93. 87. 93. 87. 87. 93. 93. 87. 93. 93. 93. 93. 87. 93.]",503.49856802261365,None,s,1,2.0650842395539257,503.49856802261365,None,None,None,,,,,,,05_EA,23,M,5,2021_Oct_29_1343,Partial repeat,2021.2.3,120.10022263136987,
6,1,0,1,1,2,2,2,2,0,0,1,1,1,0,0,0,4,4,4,,,,,,,,,,,,,,,,,,,,,,,,,,,,,,,,05_EA,23,M,5,2021_Oct_29_1343,Partial repeat,2021.2.3,120.10022263136987,
4,1,0,1,1,3,3,2,2,0,1,1,1,0,0,0,0,5,5,5,0,0,0,0,,,,,,,505.5801012550728,None,0.844449337907656,506.7291112503708,None,"[87. 87. 93. 93. 93. 87. 87. 93. 87. 87. 93. 93. 87. 93. 87. 87. 87. 87.
 87. 93. 87. 93. 93. 87. 93. 87. 87. 87. 93. 93. 93. 87. 87. 93.]",507.6533145866697,None,s,1,2.43836338117535,507.6533145866697,None,None,None,,,,,,,05_EA,23,M,5,2021_Oct_29_1343,Partial repeat,2021.2.3,120.10022263136987,
4,1,0,1,1,3,3,2,2,0,1,1,1,0,0,0,0,5,5,5,1,0,1,0,,,,,,,,,0.700399275061697,510.15117030877445,None,"[87. 87. 93. 93. 87. 93. 87. 87. 87. 87. 93. 93. 87. 93. 93. 87. 93. 87.
 87. 93. 87. 93. 93. 93. 87. 93. 87. 93. 87. 93. 93. 87. 93. 87.]",510.93383302341863,None,l,1,1.5898646643431675,510.93383302341863,None,None,None,,,,,,,05_EA,23,M,5,2021_Oct_29_1343,Partial repeat,2021.2.3,120.10022263136987,
4,1,0,1,1,3,3,2,2,0,1,1,1,0,0,0,0,5,5,5,,,,,,,,,,,,,,,,,,,,,,,,,,,,,,,,05_EA,23,M,5,2021_Oct_29_1343,Partial repeat,2021.2.3,120.10022263136987,
2,6,0,1,1,3,2,3,2,0,0,0,0,1,0,0,0,6,6,6,0,0,0,0,,,,,,,512.5407627676896,None,0.8330877521105592,513.4066876711395,None,"[93. 93. 93. 87. 87. 87. 87. 87. 93. 93. 87. 93. 87. 93. 93. 87. 87. 87.
 93. 87. 93. 93. 87. 93. 87. 87. 87. 93. 93. 87. 93. 87. 93. 93.]",514.3142556956782,None,s,1,1.8576633575071355,514.3142556956782,None,None,None,,,,,,,05_EA,23,M,5,2021_Oct_29_1343,Partial repeat,2021.2.3,120.10022263136987,
2,6,0,1,1,3,2,3,2,0,0,0,0,1,0,0,0,6,6,6,1,0,1,0,,,,,,,,,0.8640745230633471,516.2292465906748,None,"[93. 87. 87. 93. 87. 93. 93. 87. 93. 87. 93. 93. 93. 93. 87. 87. 87. 93.
 87. 87. 87. 93. 87. 87. 87. 93. 87. 93. 87. 93. 93. 87. 93. 93.]",517.1784705647669,None,s,1,1.568408094789902,517.1784705647669,None,None,None,,,,,,,05_EA,23,M,5,2021_Oct_29_1343,Partial repeat,2021.2.3,120.10022263136987,
2,6,0,1,1,3,2,3,2,0,0,0,0,1,0,0,0,6,6,6,,,,,,,,,,,,,,,,,,,,,,,,,,,,,,,,05_EA,23,M,5,2021_Oct_29_1343,Partial repeat,2021.2.3,120.10022263136987,
8,6,0,1,1,3,2,2,2,1,0,0,1,0,0,0,0,7,7,7,0,0,0,0,,,,,,,518.7604486242435,None,0.8117193203507828,519.5264288825192,None,"[87. 87. 93. 87. 87. 93. 87. 87. 93. 93. 93. 93. 93. 87. 87. 87. 87. 87.
 87. 87. 93. 87. 87. 87. 93. 87. 93. 87. 87. 93. 93. 87. 93. 87.]",520.4256497457081,None,l,1,2.2091488616620154,520.4256497457081,None,None,None,,,,,,,05_EA,23,M,5,2021_Oct_29_1343,Partial repeat,2021.2.3,120.10022263136987,
8,6,0,1,1,3,2,2,2,1,0,0,1,0,0,0,0,7,7,7,1,0,1,0,,,,,,,,,0.7069995653073452,522.7070155025585,None,"[93. 87. 87. 87. 93. 93. 93. 93. 87. 93. 93. 93. 93. 93. 93. 87. 93. 87.
 87. 87. 87. 87. 93. 93. 87. 93. 87. 93. 93. 93. 93. 93. 87. 93.]",523.4896862349933,None,s,1,2.0731603995841397,523.4896862349933,None,None,None,,,,,,,05_EA,23,M,5,2021_Oct_29_1343,Partial repeat,2021.2.3,120.10022263136987,
8,6,0,1,1,3,2,2,2,1,0,0,1,0,0,0,0,7,7,7,,,,,,,,,,,,,,,,,,,,,,,,,,,,,,,,05_EA,23,M,5,2021_Oct_29_1343,Partial repeat,2021.2.3,120.10022263136987,
7,3,0,1,1,2,3,3,2,0,1,0,0,0,0,0,0,8,8,8,0,0,0,0,,,,,,,525.5795538003367,None,0.9979624538682095,526.3455642055042,None,"[93. 93. 87. 87. 93. 93. 93. 93. 93. 93. 93. 87. 93. 87. 87. 93. 93. 93.
 93. 93. 87. 93. 87. 87. 87. 87. 93. 87. 93. 87. 93. 87. 87. 93.]",527.4196386478025,None,s,1,1.311225918402215,527.4196386478025,None,None,None,,,,,,,05_EA,23,M,5,2021_Oct_29_1343,Partial repeat,2021.2.3,120.10022263136987,
7,3,0,1,1,2,3,3,2,0,1,0,0,0,0,0,0,8,8,8,1,0,1,0,,,,,,,,,0.7697358044625682,528.7934443979057,None,"[87. 87. 93. 93. 87. 87. 93. 93. 87. 93. 87. 93. 93. 87. 87. 87. 87. 93.
 93. 93. 93. 93. 87. 87. 87. 87. 87. 93. 87. 87. 93. 87. 93. 87.]",529.6427243682465,None,l,1,2.2721741472082613,529.6427243682465,None,None,None,,,,,,,05_EA,23,M,5,2021_Oct_29_1343,Partial repeat,2021.2.3,120.10022263136987,
7,3,0,1,1,2,3,3,2,0,1,0,0,0,0,0,0,8,8,8,,,,,,,,,,,,,,,,,,,,,,,,,,,,,,,,05_EA,23,M,5,2021_Oct_29_1343,Partial repeat,2021.2.3,120.10022263136987,
8,4,0,1,1,3,2,3,3,1,0,0,1,0,0,0,0,9,9,9,0,0,0,0,,,,,,,531.9407353789175,None,0.9134878273517975,532.7400433473822,None,"[87. 93. 87. 87. 87. 87. 87. 87. 87. 87. 87. 93. 87. 87. 93. 93. 87. 93.
 93. 93. 87. 87. 93. 93. 87. 87. 93. 87. 87. 93. 87. 93. 93. 87.]",533.7308459795267,None,l,1,1.2231825607564133,533.7308459795267,None,None,None,,,,,,,05_EA,23,M,5,2021_Oct_29_1343,Partial repeat,2021.2.3,120.10022263136987,
8,4,0,1,1,3,2,3,3,1,0,0,1,0,0,0,0,9,9,9,1,0,1,0,,,,,,,,,0.830729575040945,535.0214132734845,None,"[93. 93. 87. 93. 93. 93. 87. 93. 87. 93. 87. 93. 87. 93. 87. 87. 87. 93.
 93. 87. 87. 93. 87. 87. 93. 87. 93. 87. 93. 93. 93. 93. 87. 87.]",535.9289533961119,None,s,1,1.2169690938194435,535.9289533961119,None,None,None,,,,,,,05_EA,23,M,5,2021_Oct_29_1343,Partial repeat,2021.2.3,120.10022263136987,
8,4,0,1,1,3,2,3,3,1,0,0,1,0,0,0,0,9,9,9,,,,,,,,,,,,,,,,,,,,,,,,,,,,,,,,05_EA,23,M,5,2021_Oct_29_1343,Partial repeat,2021.2.3,120.10022263136987,
3,2,0,1,1,3,3,3,2,1,0,1,0,0,0,0,0,10,10,10,0,0,0,0,,,,,,,537.1778743618643,None,0.9822033119686937,537.7357464530896,None,"[87. 93. 87. 93. 93. 93. 93. 87. 93. 87. 87. 93. 87. 87. 93. 87. 93. 87.
 87. 87. 87. 87. 93. 93. 87. 93. 87. 93. 87. 87. 87. 93. 93. 87.]",538.7931666616423,None,l,1,0.8328098104680066,538.7931666616423,None,None,None,,,,,,,05_EA,23,M,5,2021_Oct_29_1343,Partial repeat,2021.2.3,120.10022263136987,
3,2,0,1,1,3,3,3,2,1,0,1,0,0,0,0,0,10,10,10,1,0,1,0,,,,,,,,,0.8985637121280331,539.6840618511605,None,"[93. 93. 87. 93. 93. 87. 87. 93. 87. 87. 93. 87. 93. 93. 93. 87. 93. 87.
 87. 93. 93. 87. 87. 93. 93. 87. 87. 87. 93. 93. 87. 87. 87. 93.]",540.658229171544,None,s,1,1.0158049747792575,540.658229171544,None,None,None,,,,,,,05_EA,23,M,5,2021_Oct_29_1343,Partial repeat,2021.2.3,120.10022263136987,
3,2,0,1,1,3,3,3,2,1,0,1,0,0,0,0,0,10,10,10,,,,,,,,,,,,,,,,,,,,,,,,,,,,,,,,05_EA,23,M,5,2021_Oct_29_1343,Partial repeat,2021.2.3,120.10022263136987,
2,7,0,1,1,3,3,3,2,1,1,1,0,1,0,0,0,11,11,11,0,0,0,0,,,,,,,541.6989845628668,None,0.8592714827861385,542.6398430950467,None,"[93. 93. 93. 87. 87. 93. 93. 93. 93. 87. 93. 87. 87. 87. 93. 93. 87. 93.
 93. 87. 87. 87. 93. 87. 93. 93. 93. 87. 93. 93. 87. 93. 87. 93.]",543.5807134935567,None,l,1,1.3093414169193238,543.5807134935567,None,None,None,,,,,,,05_EA,23,M,5,2021_Oct_29_1343,Partial repeat,2021.2.3,120.10022263136987,
2,7,0,1,1,3,3,3,2,1,1,1,0,1,0,0,0,11,11,11,1,0,1,0,,,,,,,,,0.7793358512896738,544.9628301645953,None,"[87. 93. 87. 93. 93. 93. 87. 93. 93. 87. 93. 93. 93. 93. 87. 93. 87. 93.
 93. 93. 87. 93. 87. 93. 87. 93. 93. 93. 87. 87. 87. 87. 87. 87.]",545.8204515234765,None,l,1,1.0535889729367227,545.8204515234765,None,None,None,,,,,,,05_EA,23,M,5,2021_Oct_29_1343,Partial repeat,2021.2.3,120.10022263136987,
2,7,0,1,1,3,3,3,2,1,1,1,0,1,0,0,0,11,11,11,,,,,,,,,,,,,,,,,,,,,,,,,,,,,,,,05_EA,23,M,5,2021_Oct_29_1343,Partial repeat,2021.2.3,120.10022263136987,
3,5,0,1,1,3,3,2,3,0,1,1,0,0,0,0,0,12,12,12,0,0,0,0,,,,,,,546.8945240415051,None,0.7208413239934027,547.6022207355454,None,"[87. 87. 93. 87. 87. 93. 87. 87. 87. 93. 93. 93. 87. 87. 87. 93. 87. 93.
 93. 87. 87. 93. 93. 93. 87. 87. 87. 93. 87. 87. 87. 87. 93. 87.]",548.4015457017267,None,s,1,0.9516084503943603,548.4015457017267,None,None,None,,,,,,,05_EA,23,M,5,2021_Oct_29_1343,Partial repeat,2021.2.3,120.10022263136987,
3,5,0,1,1,3,3,2,3,0,1,1,0,0,0,0,0,12,12,12,1,0,1,0,,,,,,,,,0.7833992628258706,549.4173263170187,None,"[87. 87. 93. 93. 87. 93. 93. 93. 93. 93. 93. 87. 87. 87. 93. 87. 93. 87.
 93. 87. 93. 93. 87. 87. 87. 87. 87. 93. 93. 93. 93. 87. 87. 93.]",550.283270783877,None,l,1,0.8298406622848233,550.283270783877,None,None,None,,,,,,,05_EA,23,M,5,2021_Oct_29_1343,Partial repeat,2021.2.3,120.10022263136987,
3,5,0,1,1,3,3,2,3,0,1,1,0,0,0,0,0,12,12,12,,,,,,,,,,,,,,,,,,,,,,,,,,,,,,,,05_EA,23,M,5,2021_Oct_29_1343,Partial repeat,2021.2.3,120.10022263136987,
3,3,0,1,1,3,2,2,3,1,0,0,0,0,0,0,0,13,13,13,0,0,0,0,,,,,,,551.1325327943669,None,0.8863482652905632,551.6903824357787,None,"[93. 87. 87. 87. 93. 93. 93. 93. 87. 93. 93. 87. 87. 87. 93. 93. 93. 87.
 93. 93. 87. 87. 93. 87. 93. 93. 87. 93. 93. 93. 93. 87. 93. 93.]",552.6645471904703,None,l,1,1.296556889587464,552.6645471904703,None,None,None,,,,,,,05_EA,23,M,5,2021_Oct_29_1343,Partial repeat,2021.2.3,120.10022263136987,
3,3,0,1,1,3,2,2,3,1,0,0,0,0,0,0,0,13,13,13,1,0,1,0,,,,,,,,,0.7195519262756426,554.0217070453291,None,"[93. 93. 87. 93. 87. 93. 87. 87. 93. 87. 87. 93. 87. 87. 87. 87. 87. 93.
 87. 93. 93. 87. 87. 87. 93. 87. 87. 93. 87. 93. 93. 87. 87. 93.]",554.8210166173521,None,s,1,1.0442610754512316,554.8210166173521,None,None,None,,,,,,,05_EA,23,M,5,2021_Oct_29_1343,Partial repeat,2021.2.3,120.10022263136987,
3,3,0,1,1,3,2,2,3,1,0,0,0,0,0,0,0,13,13,13,,,,,,,,,,,,,,,,,,,,,,,,,,,,,,,,05_EA,23,M,5,2021_Oct_29_1343,Partial repeat,2021.2.3,120.10022263136987,
1,7,0,1,1,3,3,3,2,0,0,1,0,1,0,0,0,14,14,14,0,0,0,0,,,,,,,555.8867865529464,None,0.7550939839038655,556.5195595603172,None,"[87. 93. 93. 93. 93. 87. 93. 93. 93. 87. 93. 87. 87. 93. 93. 87. 93. 87.
 93. 87. 93. 87. 87. 87. 93. 87. 93. 87. 87. 87. 93. 93. 93. 93.]",557.3521888247396,None,s,1,1.7610313426616813,557.3521888247396,None,None,None,,,,,,,05_EA,23,M,5,2021_Oct_29_1343,Partial repeat,2021.2.3,120.10022263136987,
1,7,0,1,1,3,3,3,2,0,0,1,0,1,0,0,0,14,14,14,1,0,1,0,,,,,,,,,0.7582728958081008,559.1756059685713,None,"[93. 87. 93. 87. 93. 87. 87. 87. 87. 87. 93. 93. 87. 87. 87. 87. 87. 87.
 93. 87. 87. 87. 87. 93. 87. 93. 87. 87. 87. 93. 87. 87. 93. 93.]",560.0082291394729,None,s,1,1.0569452200456908,560.0082291394729,None,None,None,,,,,,,05_EA,23,M,5,2021_Oct_29_1343,Partial repeat,2021.2.3,120.10022263136987,
1,7,0,1,1,3,3,3,2,0,0,1,0,1,0,0,0,14,14,14,,,,,,,,,,,,,,,,,,,,,,,,,,,,,,,,05_EA,23,M,5,2021_Oct_29_1343,Partial repeat,2021.2.3,120.10022263136987,
1,4,0,1,1,3,3,3,3,0,1,1,1,0,0,0,0,15,15,15,0,0,0,0,,,,,,,561.0739763045431,None,0.7626979416309673,561.8316514146909,None,"[93. 87. 87. 93. 93. 93. 87. 87. 87. 93. 87. 87. 93. 87. 93. 93. 93. 87.
 93. 87. 93. 87. 93. 93. 93. 87. 87. 93. 93. 87. 93. 93. 93. 87.]",562.6809159908735,None,s,1,0.975561118490532,562.6809159908735,None,None,None,,,,,,,05_EA,23,M,5,2021_Oct_29_1343,Partial repeat,2021.2.3,120.10022263136987,
1,4,0,1,1,3,3,3,3,0,1,1,1,0,0,0,0,15,15,15,1,0,1,0,,,,,,,,,0.7335412406025803,563.7300211092388,None,"[87. 87. 93. 87. 87. 93. 87. 93. 93. 93. 93. 93. 93. 93. 93. 93. 93. 93.
 93. 87. 93. 93. 87. 87. 93. 93. 93. 93. 93. 93. 93. 93. 93. 93.]",564.5376544306628,None,l,1,1.0546636775775369,564.5376544306628,None,None,None,,,,,,,05_EA,23,M,5,2021_Oct_29_1343,Partial repeat,2021.2.3,120.10022263136987,
1,4,0,1,1,3,3,3,3,0,1,1,1,0,0,0,0,15,15,15,,,,,,,,,,,,,,,,,,,,,,,,,,,,,,,,05_EA,23,M,5,2021_Oct_29_1343,Partial repeat,2021.2.3,120.10022263136987,
5,7,0,1,1,2,3,2,3,1,0,0,0,0,0,0,0,16,16,16,0,0,0,0,,,,,,,565.6117311179432,None,0.7267439754786991,566.177918299356,None,"[93. 93. 93. 93. 93. 87. 87. 93. 93. 93. 87. 87. 93. 93. 93. 87. 87. 93.
 87. 87. 87. 93. 87. 93. 87. 87. 87. 93. 87. 87. 93. 87. 93. 93.]",566.9855522622038,None,l,1,1.070703107146528,566.9855522622038,None,None,None,,,,,,,05_EA,23,M,5,2021_Oct_29_1343,Partial repeat,2021.2.3,120.10022263136987,
5,7,0,1,1,2,3,2,3,1,0,0,0,0,0,0,0,16,16,16,1,0,1,0,,,,,,,,,0.8899725140784059,568.1179125137187,None,"[93. 87. 87. 93. 87. 93. 93. 87. 87. 93. 93. 87. 93. 93. 93. 93. 93. 87.
 87. 93. 93. 87. 87. 87. 93. 87. 93. 93. 93. 93. 87. 87. 87. 87.]",569.0837390869856,None,s,1,1.2605133933943762,569.0837390869856,None,None,None,,,,,,,05_EA,23,M,5,2021_Oct_29_1343,Partial repeat,2021.2.3,120.10022263136987,
5,7,0,1,1,2,3,2,3,1,0,0,0,0,0,0,0,16,16,16,,,,,,,,,,,,,,,,,,,,,,,,,,,,,,,,05_EA,23,M,5,2021_Oct_29_1343,Partial repeat,2021.2.3,120.10022263136987,
5,5,0,1,1,2,3,3,3,0,0,0,1,1,0,0,0,17,17,17,0,0,0,0,,,,,,,570.3659851972343,None,0.8405112706562997,570.8905090527269,None,"[93. 93. 93. 93. 87. 93. 87. 87. 93. 93. 93. 87. 93. 93. 93. 93. 87. 87.
 87. 87. 93. 93. 87. 87. 87. 87. 93. 87. 87. 87. 87. 93. 93. 93.]",571.8063998645312,None,s,1,1.0658824907773123,571.8063998645312,None,None,None,,,,,,,05_EA,23,M,5,2021_Oct_29_1343,Partial repeat,2021.2.3,120.10022263136987,
5,5,0,1,1,2,3,3,3,0,0,0,1,1,0,0,0,17,17,17,1,0,1,0,,,,,,,,,0.9708473383130252,572.9387495325627,None,"[93. 93. 93. 87. 93. 87. 87. 87. 93. 93. 93. 93. 93. 93. 93. 87. 93. 93.
 87. 93. 93. 87. 87. 87. 87. 87. 93. 93. 87. 87. 93. 93. 87. 87.]",573.9878495195417,None,s,1,0.9491078618889333,573.9878495195417,None,None,None,,,,,,,05_EA,23,M,5,2021_Oct_29_1343,Partial repeat,2021.2.3,120.10022263136987,
5,5,0,1,1,2,3,3,3,0,0,0,1,1,0,0,0,17,17,17,,,,,,,,,,,,,,,,,,,,,,,,,,,,,,,,05_EA,23,M,5,2021_Oct_29_1343,Partial repeat,2021.2.3,120.10022263136987,
6,5,0,1,1,3,2,2,3,0,1,0,0,0,0,0,0,18,18,18,0,0,0,0,,,,,,,574.9620184434843,None,0.8014183835276533,575.6530830328802,None,"[93. 87. 87. 87. 93. 93. 87. 93. 87. 93. 93. 87. 87. 87. 87. 93. 93. 87.
 87. 87. 93. 87. 93. 93. 93. 87. 87. 93. 93. 93. 87. 87. 93. 93.]",576.5439942579787,None,s,1,1.0643263979941366,576.5439942579787,None,None,None,,,,,,,05_EA,23,M,5,2021_Oct_29_1343,Partial repeat,2021.2.3,120.10022263136987,
6,5,0,1,1,3,2,2,3,0,1,0,0,0,0,0,0,18,18,18,1,0,1,0,,,,,,,,,0.9342053358225575,577.6680185730511,None,"[93. 87. 93. 93. 87. 93. 93. 87. 87. 93. 93. 93. 87. 87. 87. 93. 93. 87.
 87. 87. 87. 87. 93. 93. 87. 87. 87. 93. 93. 93. 87. 93. 93. 93.]",578.6837966226503,None,l,1,1.1165562096789472,578.6837966226503,None,None,None,,,,,,,05_EA,23,M,5,2021_Oct_29_1343,Partial repeat,2021.2.3,120.10022263136987,
6,5,0,1,1,3,2,2,3,0,1,0,0,0,0,0,0,18,18,18,,,,,,,,,,,,,,,,,,,,,,,,,,,,,,,,05_EA,23,M,5,2021_Oct_29_1343,Partial repeat,2021.2.3,120.10022263136987,
2,8,0,1,1,3,3,3,3,1,1,1,1,1,0,0,0,19,19,19,0,0,0,0,,,,,,,579.8245069219192,None,0.9911280964800934,580.432289759101,None,"[93. 93. 93. 87. 93. 93. 87. 87. 87. 87. 87. 87. 87. 87. 87. 87. 87. 87.
 93. 87. 87. 87. 93. 93. 93. 87. 93. 87. 93. 87. 93. 93. 87. 87.]",581.4980673917744,None,l,1,1.7745336226012114,581.4980673917744,None,None,None,,,,,,,05_EA,23,M,5,2021_Oct_29_1343,Partial repeat,2021.2.3,120.10022263136987,
2,8,0,1,1,3,3,3,3,1,1,1,1,1,0,0,0,19,19,19,1,0,1,0,,,,,,,,,0.8835549320832872,583.3298002672173,None,"[87. 87. 87. 87. 87. 93. 93. 87. 93. 93. 93. 87. 87. 87. 87. 93. 87. 93.
 87. 93. 93. 93. 93. 87. 87. 93. 93. 93. 93. 93. 87. 93. 93. 93.]",584.2872883383479,None,l,1,1.2401068336871504,584.2872883383479,None,None,None,,,,,,,05_EA,23,M,5,2021_Oct_29_1343,Partial repeat,2021.2.3,120.10022263136987,
2,8,0,1,1,3,3,3,3,1,1,1,1,1,0,0,0,19,19,19,,,,,,,,,,,,,,,,,,,,,,,,,,,,,,,,05_EA,23,M,5,2021_Oct_29_1343,Partial repeat,2021.2.3,120.10022263136987,
8,7,0,1,1,3,2,2,3,1,1,0,0,1,0,0,0,20,20,20,0,0,0,0,,,,,,,585.5445628796824,None,0.7502557912604577,586.1190741312084,None,"[93. 93. 87. 93. 87. 87. 93. 87. 93. 93. 93. 87. 93. 93. 93. 87. 87. 87.
 93. 93. 87. 87. 87. 87. 87. 87. 93. 87. 93. 93. 93. 93. 93. 87.]",586.9433427643935,None,l,1,1.3360916524820823,586.9433427643935,None,None,None,,,,,,,05_EA,23,M,5,2021_Oct_29_1343,Partial repeat,2021.2.3,120.10022263136987,
8,7,0,1,1,3,2,2,3,1,1,0,0,1,0,0,0,20,20,20,1,0,1,0,,,,,,,,,0.8103716273464742,588.3421479853214,None,"[93. 93. 87. 93. 93. 87. 87. 93. 93. 87. 87. 93. 93. 93. 87. 93. 93. 93.
 93. 87. 93. 93. 93. 93. 87. 93. 87. 87. 93. 93. 93. 93. 93. 87.]",589.233048947649,None,l,1,3.1424260918424807,589.233048947649,None,None,None,,,,,,,05_EA,23,M,5,2021_Oct_29_1343,Partial repeat,2021.2.3,120.10022263136987,
8,7,0,1,1,3,2,2,3,1,1,0,0,1,0,0,0,20,20,20,,,,,,,,,,,,,,,,,,,,,,,,,,,,,,,,05_EA,23,M,5,2021_Oct_29_1343,Partial repeat,2021.2.3,120.10022263136987,
8,1,0,1,1,2,2,3,3,0,1,1,1,0,0,0,0,21,21,21,0,0,0,0,,,,,,,592.405319194655,None,0.7098340048879375,593.3461732368714,None,"[87. 93. 87. 87. 87. 87. 87. 93. 87. 87. 93. 87. 87. 93. 87. 87. 93. 87.
 93. 93. 93. 87. 87. 93. 87. 93. 93. 93. 93. 93. 93. 93. 87. 93.]",594.137173170805,None,s,1,1.5662634961822732,594.137173170805,None,None,None,,,,,,,05_EA,23,M,5,2021_Oct_29_1343,Partial repeat,2021.2.3,120.10022263136987,
8,1,0,1,1,2,2,3,3,0,1,1,1,0,0,0,0,21,21,21,1,0,1,0,,,,,,,,,0.8810402249508186,595.7690767289723,None,"[87. 87. 93. 93. 93. 87. 93. 87. 93. 93. 87. 87. 87. 93. 93. 87. 87. 93.
 93. 93. 93. 87. 87. 93. 93. 93. 93. 87. 87. 93. 93. 87. 93. 93.]",596.7265936641497,None,l,1,0.7522015103227204,596.7265936641497,None,None,None,,,,,,,05_EA,23,M,5,2021_Oct_29_1343,Partial repeat,2021.2.3,120.10022263136987,
8,1,0,1,1,2,2,3,3,0,1,1,1,0,0,0,0,21,21,21,,,,,,,,,,,,,,,,,,,,,,,,,,,,,,,,05_EA,23,M,5,2021_Oct_29_1343,Partial repeat,2021.2.3,120.10022263136987,
7,8,0,1,1,2,3,3,2,1,0,0,0,0,0,0,0,22,22,22,0,0,0,0,,,,,,,597.5009223666211,None,0.8057378982788792,598.0171465260837,None,"[93. 93. 93. 87. 93. 93. 93. 87. 93. 93. 93. 87. 93. 93. 93. 93. 87. 87.
 93. 87. 93. 87. 93. 87. 87. 87. 93. 93. 93. 93. 87. 87. 87. 87.]",598.8997211733167,None,l,1,1.091020509023565,598.8997211733167,None,None,None,,,,,,,05_EA,23,M,5,2021_Oct_29_1343,Partial repeat,2021.2.3,120.10022263136987,
7,8,0,1,1,2,3,3,2,1,0,0,0,0,0,0,0,22,22,22,1,0,1,0,,,,,,,,,0.7438815440979798,600.0570635772301,None,"[93. 87. 93. 87. 87. 93. 87. 93. 93. 93. 93. 87. 87. 93. 87. 87. 93. 87.
 93. 87. 87. 93. 87. 87. 93. 87. 87. 93. 87. 93. 87. 87. 87. 93.]",600.8813553016516,None,s,1,0.8532166908876206,600.8813553016516,None,None,None,,,,,,,05_EA,23,M,5,2021_Oct_29_1343,Partial repeat,2021.2.3,120.10022263136987,
7,8,0,1,1,2,3,3,2,1,0,0,0,0,0,0,0,22,22,22,,,,,,,,,,,,,,,,,,,,,,,,,,,,,,,,05_EA,23,M,5,2021_Oct_29_1343,Partial repeat,2021.2.3,120.10022263136987,
5,6,0,1,1,2,3,2,3,0,0,0,0,1,0,0,0,23,23,23,0,0,0,0,,,,,,,601.7472709044641,None,0.7464237604818742,602.3051128487978,None,"[93. 87. 93. 93. 93. 93. 87. 87. 87. 93. 93. 93. 87. 87. 87. 87. 93. 93.
 93. 87. 93. 93. 87. 87. 87. 87. 87. 93. 87. 93. 93. 93. 93. 87.]",603.1294119495869,None,s,1,1.149193107037263,603.1294119495869,None,None,None,,,,,,,05_EA,23,M,5,2021_Oct_29_1343,Partial repeat,2021.2.3,120.10022263136987,
5,6,0,1,1,2,3,2,3,0,0,0,0,1,0,0,0,23,23,23,1,0,1,0,,,,,,,,,0.9738663191736713,604.3366978120412,None,"[93. 93. 87. 93. 87. 87. 93. 87. 87. 87. 93. 93. 87. 87. 93. 93. 93. 87.
 93. 87. 93. 87. 93. 93. 87. 93. 87. 87. 93. 87. 93. 93. 93. 93.]",605.385807420369,None,s,1,0.8928592128863784,605.385807420369,None,None,None,,,,,,,05_EA,23,M,5,2021_Oct_29_1343,Partial repeat,2021.2.3,120.10022263136987,
5,6,0,1,1,2,3,2,3,0,0,0,0,1,0,0,0,23,23,23,,,,,,,,,,,,,,,,,,,,,,,,,,,,,,,,05_EA,23,M,5,2021_Oct_29_1343,Partial repeat,2021.2.3,120.10022263136987,
2,4,0,1,1,2,2,3,3,1,0,1,1,0,0,0,0,24,24,24,0,0,0,0,,,,,,,606.3100020974543,None,0.7429166559242011,606.7929209965405,None,"[93. 87. 87. 93. 93. 93. 87. 93. 93. 87. 93. 93. 87. 93. 93. 87. 87. 87.
 93. 87. 87. 87. 93. 93. 93. 93. 87. 93. 87. 87. 87. 87. 93. 93.]",607.6172249080037,None,l,1,0.9825494247029383,607.6172249080037,None,None,None,,,,,,,05_EA,23,M,5,2021_Oct_29_1343,Partial repeat,2021.2.3,120.10022263136987,
2,4,0,1,1,2,2,3,3,1,0,1,1,0,0,0,0,24,24,24,1,0,1,0,,,,,,,,,0.9197010507582004,608.666325857118,None,"[93. 93. 93. 87. 87. 93. 93. 93. 93. 87. 87. 87. 87. 93. 87. 93. 93. 93.
 93. 87. 93. 93. 87. 93. 93. 87. 93. 93. 93. 87. 87. 93. 87. 93.]",609.6654548043562,None,s,1,0.6771918729386925,609.6654548043562,None,None,None,,,,,,,05_EA,23,M,5,2021_Oct_29_1343,Partial repeat,2021.2.3,120.10022263136987,
2,4,0,1,1,2,2,3,3,1,0,1,1,0,0,0,0,24,24,24,,,,,,,,,,,,,,,,,,,,,,,,,,,,,,,,05_EA,23,M,5,2021_Oct_29_1343,Partial repeat,2021.2.3,120.10022263136987,
1,1,0,1,1,3,2,3,2,1,0,0,0,0,0,0,0,25,25,25,0,0,0,0,,,,,,,610.3731745896339,None,0.9418638297391606,610.8560829052367,None,"[93. 93. 87. 87. 87. 87. 87. 87. 87. 93. 87. 87. 93. 93. 87. 87. 93. 87.
 93. 87. 93. 87. 87. 87. 93. 93. 93. 87. 87. 87. 87. 87. 87. 87.]",611.8802164546869,None,l,1,1.0226156067533339,611.8802164546869,None,None,None,,,,,,,05_EA,23,M,5,2021_Oct_29_1343,Partial repeat,2021.2.3,120.10022263136987,
1,1,0,1,1,3,2,3,2,1,0,0,0,0,0,0,0,25,25,25,1,0,1,0,,,,,,,,,0.832040446862781,612.962592517285,None,"[93. 93. 93. 93. 87. 93. 87. 87. 93. 93. 93. 87. 87. 87. 87. 93. 87. 93.
 87. 87. 87. 93. 93. 93. 87. 93. 87. 87. 93. 87. 87. 93. 87. 93.]",613.8701522033207,None,s,1,1.031570195912991,613.8701522033207,None,None,None,,,,,,,05_EA,23,M,5,2021_Oct_29_1343,Partial repeat,2021.2.3,120.10022263136987,
1,1,0,1,1,3,2,3,2,1,0,0,0,0,0,0,0,25,25,25,,,,,,,,,,,,,,,,,,,,,,,,,,,,,,,,05_EA,23,M,5,2021_Oct_29_1343,Partial repeat,2021.2.3,120.10022263136987,
4,5,0,1,1,2,2,3,2,1,1,1,0,1,0,0,0,26,26,26,0,0,0,0,,,,,,,614.9275682426223,None,0.7906908459537182,615.7518715126616,None,"[87. 93. 93. 93. 87. 87. 87. 87. 93. 93. 87. 93. 93. 87. 93. 93. 93. 93.
 93. 93. 93. 93. 87. 93. 87. 93. 87. 87. 87. 87. 87. 87. 87. 93.]",616.6177819840887,None,l,1,1.0199357404512739,616.6177819840887,None,None,None,,,,,,,05_EA,23,M,5,2021_Oct_29_1343,Partial repeat,2021.2.3,120.10022263136987,
4,5,0,1,1,2,2,3,2,1,1,1,0,1,0,0,0,26,26,26,1,0,1,0,,,,,,,,,0.8632947500376684,617.700187231444,None,"[93. 93. 93. 87. 93. 87. 93. 93. 87. 93. 93. 87. 87. 93. 93. 87. 93. 87.
 93. 87. 87. 87. 93. 87. 93. 93. 93. 87. 87. 93. 87. 87. 87. 87.]",618.6410496121634,None,l,1,0.6616675062327886,618.6410496121634,None,None,None,,,,,,,05_EA,23,M,5,2021_Oct_29_1343,Partial repeat,2021.2.3,120.10022263136987,
4,5,0,1,1,2,2,3,2,1,1,1,0,1,0,0,0,26,26,26,,,,,,,,,,,,,,,,,,,,,,,,,,,,,,,,05_EA,23,M,5,2021_Oct_29_1343,Partial repeat,2021.2.3,120.10022263136987,
8,8,0,1,1,3,2,3,3,1,1,0,1,1,0,0,0,27,27,27,0,0,0,0,,,,,,,619.3238026392,None,0.9195204687727507,619.798385922556,None,"[87. 93. 93. 93. 87. 87. 93. 93. 87. 87. 93. 87. 87. 87. 87. 93. 87. 93.
 87. 93. 87. 93. 87. 87. 93. 93. 87. 87. 87. 93. 87. 87. 87. 93.]",620.7975309053754,None,l,1,1.5442472848512807,620.7975309053754,None,None,None,,,,,,,05_EA,23,M,5,2021_Oct_29_1343,Partial repeat,2021.2.3,120.10022263136987,
8,8,0,1,1,3,2,3,3,1,1,0,1,1,0,0,0,27,27,27,1,0,1,0,,,,,,,,,0.7105900722555452,622.4127831162004,None,"[93. 93. 87. 87. 87. 87. 93. 93. 93. 93. 87. 93. 87. 93. 87. 87. 93. 87.
 87. 87. 87. 93. 93. 87. 87. 87. 87. 93. 93. 87. 93. 87. 93. 87.]",623.2037718252277,None,l,1,1.0585134998705144,623.2037718252277,None,None,None,,,,,,,05_EA,23,M,5,2021_Oct_29_1343,Partial repeat,2021.2.3,120.10022263136987,
8,8,0,1,1,3,2,3,3,1,1,0,1,1,0,0,0,27,27,27,,,,,,,,,,,,,,,,,,,,,,,,,,,,,,,,05_EA,23,M,5,2021_Oct_29_1343,Partial repeat,2021.2.3,120.10022263136987,
3,8,0,1,1,2,3,3,3,0,1,0,1,0,0,0,0,28,28,28,0,0,0,0,,,,,,,624.2861809211227,None,0.9686437066229736,624.7441256856009,None,"[87. 87. 93. 93. 87. 93. 87. 93. 93. 93. 93. 87. 93. 87. 87. 93. 87. 93.
 93. 93. 93. 87. 87. 87. 87. 87. 93. 87. 93. 93. 93. 87. 87. 87.]",625.79321957906,None,s,1,1.5876786939365957,625.79321957906,None,None,None,,,,,,,05_EA,23,M,5,2021_Oct_29_1343,Partial repeat,2021.2.3,120.10022263136987,
3,8,0,1,1,2,3,3,3,0,1,0,1,0,0,0,0,28,28,28,1,0,1,0,,,,,,,,,0.9450754259929122,627.450121325206,None,"[93. 93. 87. 87. 87. 87. 87. 93. 93. 93. 93. 87. 87. 93. 87. 87. 87. 87.
 93. 87. 93. 93. 93. 93. 93. 93. 87. 87. 87. 87. 93. 93. 93. 87.]",628.4742542332333,None,l,1,1.5785582968705967,628.4742542332333,None,None,None,,,,,,,05_EA,23,M,5,2021_Oct_29_1343,Partial repeat,2021.2.3,120.10022263136987,
3,8,0,1,1,2,3,3,3,0,1,0,1,0,0,0,0,28,28,28,,,,,,,,,,,,,,,,,,,,,,,,,,,,,,,,05_EA,23,M,5,2021_Oct_29_1343,Partial repeat,2021.2.3,120.10022263136987,
7,5,0,1,1,3,2,3,2,0,1,0,0,0,0,0,0,29,29,29,0,0,0,0,,,,,,,630.081190071025,None,0.7522826143647249,630.5141514002589,None,"[87. 87. 87. 87. 87. 93. 93. 93. 93. 87. 87. 87. 93. 87. 87. 93. 93. 87.
 87. 87. 93. 87. 93. 87. 93. 87. 93. 93. 87. 87. 87. 93. 93. 87.]",631.3467620634074,None,s,1,1.8580979217526874,631.3467620634074,None,None,None,,,,,,,05_EA,23,M,5,2021_Oct_29_1343,Partial repeat,2021.2.3,120.10022263136987,
7,5,0,1,1,3,2,3,2,0,1,0,0,0,0,0,0,29,29,29,1,0,1,0,,,,,,,,,0.9486908193876695,633.2701145517767,None,"[93. 93. 93. 87. 93. 93. 93. 87. 93. 87. 87. 93. 87. 93. 87. 93. 87. 93.
 93. 87. 93. 93. 87. 93. 87. 93. 87. 87. 87. 87. 87. 93. 87. 87.]",634.2942179543343,None,l,1,0.8146636262631546,634.2942179543343,None,None,None,,,,,,,05_EA,23,M,5,2021_Oct_29_1343,Partial repeat,2021.2.3,120.10022263136987,
7,5,0,1,1,3,2,3,2,0,1,0,0,0,0,0,0,29,29,29,,,,,,,,,,,,,,,,,,,,,,,,,,,,,,,,05_EA,23,M,5,2021_Oct_29_1343,Partial repeat,2021.2.3,120.10022263136987,
4,3,0,1,1,2,3,3,2,0,0,0,0,1,0,0,0,30,30,30,0,0,0,0,,,,,,,635.1268337488691,None,0.740132523292226,635.5847881346963,None,"[87. 93. 93. 93. 93. 87. 87. 93. 93. 93. 87. 93. 87. 87. 93. 93. 93. 87.
 87. 87. 87. 93. 93. 93. 93. 93. 93. 93. 87. 93. 93. 93. 93. 93.]",636.4007522611773,None,s,1,1.9569178312735858,636.4007522611773,None,None,None,,,,,,,05_EA,23,M,5,2021_Oct_29_1343,Partial repeat,2021.2.3,120.10022263136987,
4,3,0,1,1,2,3,3,2,0,0,0,0,1,0,0,0,30,30,30,1,0,1,0,,,,,,,,,0.9232964255978343,638.4156829906742,None,"[93. 87. 87. 87. 93. 87. 93. 93. 93. 87. 87. 93. 87. 87. 87. 93. 87. 93.
 87. 93. 93. 87. 87. 87. 93. 93. 87. 87. 93. 87. 93. 87. 93. 87.]",639.4148068065269,None,s,1,1.0861203561721595,639.4148068065269,None,None,None,,,,,,,05_EA,23,M,5,2021_Oct_29_1343,Partial repeat,2021.2.3,120.10022263136987,
4,3,0,1,1,2,3,3,2,0,0,0,0,1,0,0,0,30,30,30,,,,,,,,,,,,,,,,,,,,,,,,,,,,,,,,05_EA,23,M,5,2021_Oct_29_1343,Partial repeat,2021.2.3,120.10022263136987,
7,1,0,1,1,3,2,3,2,1,1,0,0,1,0,0,0,31,31,31,0,0,0,0,,,,,,,640.5305311048578,None,0.997160465848125,641.038399443758,None,"[93. 93. 93. 93. 93. 87. 87. 93. 87. 87. 93. 87. 87. 87. 93. 87. 87. 93.
 87. 87. 87. 87. 87. 93. 87. 87. 87. 93. 87. 87. 93. 93. 87. 93.]",642.1125014672552,None,l,1,0.8195454985520882,642.1125014672552,None,None,None,,,,,,,05_EA,23,M,5,2021_Oct_29_1343,Partial repeat,2021.2.3,120.10022263136987,
7,1,0,1,1,3,2,3,2,1,1,0,0,1,0,0,0,31,31,31,1,0,1,0,,,,,,,,,0.9055401770227094,642.9950661724288,None,"[87. 93. 87. 93. 87. 93. 87. 93. 93. 87. 87. 87. 93. 93. 87. 87. 93. 93.
 93. 93. 87. 87. 93. 93. 93. 87. 87. 87. 93. 87. 93. 87. 87. 87.]",643.9775601286183,None,l,1,0.8584205576430577,643.9775601286183,None,None,None,,,,,,,05_EA,23,M,5,2021_Oct_29_1343,Partial repeat,2021.2.3,120.10022263136987,
7,1,0,1,1,3,2,3,2,1,1,0,0,1,0,0,0,31,31,31,,,,,,,,,,,,,,,,,,,,,,,,,,,,,,,,05_EA,23,M,5,2021_Oct_29_1343,Partial repeat,2021.2.3,120.10022263136987,
8,2,0,1,1,3,3,2,3,0,0,1,0,1,0,0,0,32,32,32,0,0,0,0,,,,,,,644.8601376622564,None,0.845405469943246,645.3097496974087,None,"[87. 87. 93. 87. 93. 87. 93. 87. 87. 87. 93. 87. 87. 93. 93. 93. 93. 87.
 93. 87. 87. 87. 93. 93. 93. 87. 93. 87. 87. 87. 93. 93. 87. 93.]",646.2339353945681,None,s,1,1.1300713180830826,646.2339353945681,None,None,None,,,,,,,05_EA,23,M,5,2021_Oct_29_1343,Partial repeat,2021.2.3,120.10022263136987,
8,2,0,1,1,3,3,2,3,0,0,1,0,1,0,0,0,32,32,32,1,0,1,0,,,,,,,,,0.9997209959145086,647.4328978283329,None,"[87. 93. 87. 93. 87. 87. 87. 87. 93. 93. 93. 93. 93. 87. 93. 87. 87. 87.
 93. 93. 87. 87. 93. 93. 87. 87. 93. 87. 87. 93. 93. 87. 93. 93.]",648.5069799677103,None,s,1,1.081050867585418,648.5069799677103,None,None,None,,,,,,,05_EA,23,M,5,2021_Oct_29_1343,Partial repeat,2021.2.3,120.10022263136987,
8,2,0,1,1,3,3,2,3,0,0,1,0,1,0,0,0,32,32,32,,,,,,,,,,,,,,,,,,,,,,,,,,,,,,,,05_EA,23,M,5,2021_Oct_29_1343,Partial repeat,2021.2.3,120.10022263136987,
2,5,0,1,1,3,2,3,3,0,0,0,1,1,0,0,0,33,33,33,0,0,0,0,,,,,,,649.6143622360787,None,0.7852747754542415,650.3054316361486,None,"[87. 93. 93. 87. 87. 87. 87. 87. 93. 87. 87. 87. 93. 87. 93. 93. 87. 87.
 93. 87. 93. 93. 93. 93. 93. 87. 87. 87. 87. 87. 87. 93. 87. 87.]",651.171365198812,None,s,1,1.1526891844137026,651.171365198812,None,None,None,,,,,,,05_EA,23,M,5,2021_Oct_29_1343,Partial repeat,2021.2.3,120.10022263136987,
2,5,0,1,1,3,2,3,3,0,0,0,1,1,0,0,0,33,33,33,1,0,1,0,,,,,,,,,0.8530777057825623,652.3952988807805,None,"[87. 87. 87. 93. 87. 87. 93. 93. 87. 93. 93. 87. 87. 93. 93. 87. 93. 93.
 93. 93. 87. 87. 93. 93. 93. 87. 93. 93. 87. 93. 93. 93. 93. 93.]",653.3361323974541,None,s,1,0.9092668193966347,653.3361323974541,None,None,None,,,,,,,05_EA,23,M,5,2021_Oct_29_1343,Partial repeat,2021.2.3,120.10022263136987,
2,5,0,1,1,3,2,3,3,0,0,0,1,1,0,0,0,33,33,33,,,,,,,,,,,,,,,,,,,,,,,,,,,,,,,,05_EA,23,M,5,2021_Oct_29_1343,Partial repeat,2021.2.3,120.10022263136987,
8,5,0,1,1,2,2,2,2,1,0,1,1,0,0,0,0,34,34,34,0,0,0,0,,,,,,,654.2686870643538,None,0.9684087294718181,654.784901923179,None,"[87. 93. 93. 87. 93. 87. 93. 93. 87. 87. 93. 87. 87. 93. 93. 93. 87. 87.
 87. 87. 87. 93. 87. 87. 87. 87. 87. 93. 87. 93. 93. 93. 93. 93.]",655.8339974201954,None,l,1,1.1612592403394046,655.8339974201954,None,None,None,,,,,,,05_EA,23,M,5,2021_Oct_29_1343,Partial repeat,2021.2.3,120.10022263136987,
8,5,0,1,1,2,2,2,2,1,0,1,1,0,0,0,0,34,34,34,1,0,1,0,,,,,,,,,0.7627128374778461,657.066279225648,None,"[87. 87. 87. 87. 93. 87. 93. 87. 87. 93. 87. 93. 87. 93. 93. 93. 93. 87.
 87. 93. 87. 87. 93. 87. 93. 93. 93. 93. 93. 93. 87. 93. 93. 93.]",657.9072290323556,None,s,1,1.3928720413509836,657.9072290323556,None,None,None,,,,,,,05_EA,23,M,5,2021_Oct_29_1343,Partial repeat,2021.2.3,120.10022263136987,
8,5,0,1,1,2,2,2,2,1,0,1,1,0,0,0,0,34,34,34,,,,,,,,,,,,,,,,,,,,,,,,,,,,,,,,05_EA,23,M,5,2021_Oct_29_1343,Partial repeat,2021.2.3,120.10022263136987,
5,4,0,1,1,3,3,3,3,1,0,1,1,0,0,0,0,35,35,35,0,0,0,0,,,,,,,659.3226692443332,None,0.8305104151427923,660.5632613292983,None,"[87. 87. 93. 93. 87. 93. 93. 93. 93. 93. 87. 93. 87. 93. 93. 87. 93. 93.
 93. 87. 93. 87. 93. 87. 93. 87. 93. 93. 87. 87. 87. 93. 87. 93.]",661.4791351433869,None,l,1,1.8360124367113713,661.4791351433869,None,None,None,,,,,,,05_EA,23,M,5,2021_Oct_29_1343,Partial repeat,2021.2.3,120.10022263136987,
5,4,0,1,1,3,3,3,3,1,0,1,1,0,0,0,0,35,35,35,1,0,1,0,,,,,,,,,0.7666576874028814,663.3774945751629,None,"[87. 93. 87. 87. 93. 87. 87. 87. 93. 93. 87. 93. 87. 87. 87. 93. 93. 93.
 93. 93. 93. 87. 93. 87. 87. 87. 93. 93. 87. 93. 87. 93. 93. 93.]",664.2184414954654,None,s,1,1.0647282496543085,664.2184414954654,None,None,None,,,,,,,05_EA,23,M,5,2021_Oct_29_1343,Partial repeat,2021.2.3,120.10022263136987,
5,4,0,1,1,3,3,3,3,1,0,1,1,0,0,0,0,35,35,35,,,,,,,,,,,,,,,,,,,,,,,,,,,,,,,,05_EA,23,M,5,2021_Oct_29_1343,Partial repeat,2021.2.3,120.10022263136987,
1,8,0,1,1,3,3,2,3,1,1,1,0,1,0,0,0,36,36,36,0,0,0,0,,,,,,,665.3008589298624,None,0.9696998641080816,666.5331025706319,None,"[93. 87. 87. 87. 87. 93. 93. 93. 93. 93. 87. 87. 87. 87. 87. 87. 93. 87.
 87. 87. 87. 93. 87. 93. 87. 87. 93. 87. 87. 93. 93. 87. 87. 93.]",667.5905461911325,None,l,1,1.4206604204296127,667.5905461911325,None,None,None,,,,,,,05_EA,23,M,5,2021_Oct_29_1343,Partial repeat,2021.2.3,120.10022263136987,
1,8,0,1,1,3,3,2,3,1,1,1,0,1,0,0,0,36,36,36,1,0,1,0,,,,,,,,,0.8626402426400179,669.0725985274203,None,"[87. 87. 87. 93. 87. 87. 87. 93. 93. 93. 87. 87. 87. 93. 93. 93. 93. 93.
 93. 87. 87. 93. 87. 87. 93. 93. 87. 87. 87. 87. 93. 93. 87. 93.]",670.0134455139823,None,l,1,1.8297749164025845,670.0134455139823,None,None,None,,,,,,,05_EA,23,M,5,2021_Oct_29_1343,Partial repeat,2021.2.3,120.10022263136987,
1,8,0,1,1,3,3,2,3,1,1,1,0,1,0,0,0,36,36,36,,,,,,,,,,,,,,,,,,,,,,,,,,,,,,,,05_EA,23,M,5,2021_Oct_29_1343,Partial repeat,2021.2.3,120.10022263136987,
2,3,0,1,1,3,3,2,2,0,0,1,1,1,0,0,0,37,37,37,0,0,0,0,,,,,,,671.8618675807375,None,0.9368715866643733,672.6445258054191,None,"[87. 93. 93. 93. 93. 93. 93. 87. 87. 87. 93. 87. 87. 87. 93. 93. 87. 93.
 87. 93. 93. 93. 87. 93. 87. 87. 93. 93. 87. 93. 93. 93. 93. 87.]",673.6603192491757,None,s,1,1.0780304055429042,673.6603192491757,None,None,None,,,,,,,05_EA,23,M,5,2021_Oct_29_1343,Partial repeat,2021.2.3,120.10022263136987,
2,3,0,1,1,3,3,2,2,0,0,1,1,1,0,0,0,37,37,37,1,0,1,0,,,,,,,,,0.8522691395823764,674.8010074193426,None,"[87. 93. 93. 87. 93. 87. 87. 93. 93. 93. 93. 87. 93. 93. 93. 87. 87. 93.
 87. 87. 93. 87. 93. 87. 93. 93. 87. 87. 93. 87. 93. 87. 93. 87.]",675.7418585751557,None,s,1,0.9803826969950933,675.7418585751557,None,None,None,,,,,,,05_EA,23,M,5,2021_Oct_29_1343,Partial repeat,2021.2.3,120.10022263136987,
2,3,0,1,1,3,3,2,2,0,0,1,1,1,0,0,0,37,37,37,,,,,,,,,,,,,,,,,,,,,,,,,,,,,,,,05_EA,23,M,5,2021_Oct_29_1343,Partial repeat,2021.2.3,120.10022263136987,
7,2,0,1,1,3,2,2,2,0,1,0,1,0,0,0,0,38,38,38,0,0,0,0,,,,,,,676.7410282527699,None,0.8282971274400299,677.548632068725,None,"[87. 93. 87. 93. 93. 93. 93. 93. 87. 87. 87. 87. 93. 93. 93. 93. 87. 87.
 93. 93. 93. 87. 87. 93. 87. 93. 87. 87. 93. 87. 93. 93. 93. 93.]",678.4645029964086,None,s,1,1.8258096379263407,678.4645029964086,None,None,None,,,,,,,05_EA,23,M,5,2021_Oct_29_1343,Partial repeat,2021.2.3,120.10022263136987,
7,2,0,1,1,3,2,2,2,0,1,0,1,0,0,0,0,38,38,38,1,0,1,0,,,,,,,,,0.9538908789840423,680.3545576007691,None,"[93. 87. 93. 93. 87. 87. 93. 93. 93. 93. 87. 87. 87. 87. 93. 87. 93. 87.
 87. 87. 87. 93. 87. 93. 87. 93. 93. 93. 93. 93. 93. 93. 93. 93.]",681.3870148996202,None,l,1,1.351321285209906,681.3870148996202,None,None,None,,,,,,,05_EA,23,M,5,2021_Oct_29_1343,Partial repeat,2021.2.3,120.10022263136987,
7,2,0,1,1,3,2,2,2,0,1,0,1,0,0,0,0,38,38,38,,,,,,,,,,,,,,,,,,,,,,,,,,,,,,,,05_EA,23,M,5,2021_Oct_29_1343,Partial repeat,2021.2.3,120.10022263136987,
5,1,0,1,1,2,2,2,3,1,0,1,0,0,0,0,0,39,39,39,0,0,0,0,,,,,,,682.7607933892359,None,0.7659041698159601,683.5184854970994,None,"[87. 87. 87. 93. 87. 93. 93. 87. 87. 93. 87. 87. 93. 93. 93. 93. 87. 87.
 87. 87. 87. 93. 87. 93. 93. 87. 87. 93. 93. 87. 93. 93. 93. 87.]",684.359434662384,None,l,1,2.602940718537411,684.359434662384,None,None,None,,,,,,,05_EA,23,M,5,2021_Oct_29_1343,Partial repeat,2021.2.3,120.10022263136987,
5,1,0,1,1,2,2,2,3,1,0,1,0,0,0,0,0,39,39,39,1,0,1,0,,,,,,,,,0.7981135868682708,687.0238109135598,None,"[93. 87. 93. 93. 87. 93. 93. 87. 87. 87. 93. 87. 93. 87. 93. 93. 87. 87.
 93. 87. 93. 87. 87. 93. 93. 93. 87. 87. 93. 93. 87. 93. 87. 93.]",687.8980608492575,None,s,1,1.3034371159833427,687.8980608492575,None,None,None,,,,,,,05_EA,23,M,5,2021_Oct_29_1343,Partial repeat,2021.2.3,120.10022263136987,
5,1,0,1,1,2,2,2,3,1,0,1,0,0,0,0,0,39,39,39,,,,,,,,,,,,,,,,,,,,,,,,,,,,,,,,05_EA,23,M,5,2021_Oct_29_1343,Partial repeat,2021.2.3,120.10022263136987,
8,3,0,1,1,2,2,2,2,0,1,1,1,0,0,0,0,40,40,40,0,0,0,0,,,,,,,689.2135695652369,None,0.8190189300516004,689.8047360126438,None,"[87. 93. 93. 87. 93. 93. 93. 87. 87. 93. 87. 93. 93. 93. 93. 93. 93. 87.
 87. 87. 87. 87. 93. 93. 87. 93. 87. 93. 93. 87. 87. 93. 87. 93.]",690.7039668178932,None,s,1,1.105482358131212,690.7039668178932,None,None,None,,,,,,,05_EA,23,M,5,2021_Oct_29_1343,Partial repeat,2021.2.3,120.10022263136987,
8,3,0,1,1,2,2,2,2,0,1,1,1,0,0,0,0,40,40,40,1,0,1,0,,,,,,,,,0.9776936542708685,691.8779522306459,None,"[87. 87. 87. 93. 87. 87. 87. 87. 87. 87. 87. 93. 87. 87. 87. 93. 93. 93.
 87. 93. 93. 93. 93. 87. 87. 87. 87. 93. 87. 93. 93. 93. 87. 87.]",692.9353701942164,None,l,1,1.066073634903205,692.9353701942164,None,None,None,,,,,,,05_EA,23,M,5,2021_Oct_29_1343,Partial repeat,2021.2.3,120.10022263136987,
8,3,0,1,1,2,2,2,2,0,1,1,1,0,0,0,0,40,40,40,,,,,,,,,,,,,,,,,,,,,,,,,,,,,,,,05_EA,23,M,5,2021_Oct_29_1343,Partial repeat,2021.2.3,120.10022263136987,
4,2,0,1,1,2,3,2,2,1,0,0,1,0,0,0,0,41,41,41,0,0,0,0,,,,,,,694.017773517302,None,0.9295357010910416,695.0085873743528,None,"[87. 93. 93. 87. 93. 93. 87. 87. 87. 87. 93. 93. 93. 93. 87. 93. 87. 87.
 93. 87. 93. 87. 87. 87. 87. 87. 93. 87. 93. 87. 93. 93. 93. 87.]",696.0160666900574,None,l,1,1.2174174486649463,696.0160666900574,None,None,None,,,,,,,05_EA,23,M,5,2021_Oct_29_1343,Partial repeat,2021.2.3,120.10022263136987,
4,2,0,1,1,2,3,2,2,1,0,0,1,0,0,0,0,41,41,41,1,0,1,0,,,,,,,,,0.8340333905313434,697.2982832948373,None,"[93. 93. 87. 87. 87. 93. 87. 87. 93. 87. 87. 87. 87. 93. 87. 93. 93. 93.
 87. 93. 87. 93. 93. 87. 93. 93. 93. 93. 87. 87. 93. 93. 87. 87.]",698.2142010464177,None,s,1,0.8112560652939464,698.2142010464177,None,None,None,,,,,,,05_EA,23,M,5,2021_Oct_29_1343,Partial repeat,2021.2.3,120.10022263136987,
4,2,0,1,1,2,3,2,2,1,0,0,1,0,0,0,0,41,41,41,,,,,,,,,,,,,,,,,,,,,,,,,,,,,,,,05_EA,23,M,5,2021_Oct_29_1343,Partial repeat,2021.2.3,120.10022263136987,
2,2,0,1,1,2,3,2,3,0,1,0,0,0,0,0,0,42,42,42,0,0,0,0,,,,,,,699.0467841283671,None,0.9570134916471081,699.5629989871923,None,"[87. 93. 93. 93. 93. 93. 93. 87. 93. 93. 93. 87. 87. 93. 87. 87. 93. 93.
 93. 93. 87. 93. 93. 93. 93. 87. 87. 93. 93. 87. 93. 87. 93. 87.]",700.5954380054818,None,s,1,1.1180898526476994,700.5954380054818,None,None,None,,,,,,,05_EA,23,M,5,2021_Oct_29_1343,Partial repeat,2021.2.3,120.10022263136987,
2,2,0,1,1,2,3,2,3,0,1,0,0,0,0,0,0,42,42,42,1,0,1,0,,,,,,,,,0.7070317414189469,701.7777638446396,None,"[93. 87. 93. 87. 93. 87. 87. 87. 93. 93. 87. 93. 93. 93. 93. 93. 87. 93.
 87. 87. 87. 93. 93. 93. 93. 87. 93. 93. 87. 87. 87. 87. 93. 93.]",702.5687464601451,None,l,1,1.75279546824504,702.5687464601451,None,None,None,,,,,,,05_EA,23,M,5,2021_Oct_29_1343,Partial repeat,2021.2.3,120.10022263136987,
2,2,0,1,1,2,3,2,3,0,1,0,0,0,0,0,0,42,42,42,,,,,,,,,,,,,,,,,,,,,,,,,,,,,,,,05_EA,23,M,5,2021_Oct_29_1343,Partial repeat,2021.2.3,120.10022263136987,
1,5,0,1,1,2,2,3,3,1,1,1,1,1,0,0,0,43,43,43,0,0,0,0,,,,,,,704.3422448402307,None,0.7156773469529993,704.9250525806701,None,"[87. 87. 93. 87. 93. 93. 93. 93. 93. 87. 93. 93. 87. 87. 93. 93. 87. 87.
 93. 93. 87. 93. 93. 87. 87. 87. 87. 87. 93. 87. 87. 87. 93. 93.]",705.7160416104089,None,l,1,1.1485391760429593,705.7160416104089,None,None,None,,,,,,,05_EA,23,M,5,2021_Oct_29_1343,Partial repeat,2021.2.3,120.10022263136987,
1,5,0,1,1,2,2,3,3,1,1,1,1,1,0,0,0,43,43,43,1,0,1,0,,,,,,,,,0.9003671413438562,706.9316358281067,None,"[87. 87. 93. 87. 87. 87. 93. 87. 87. 93. 93. 87. 87. 87. 87. 87. 93. 87.
 93. 87. 87. 87. 87. 87. 87. 93. 93. 87. 93. 87. 87. 87. 93. 93.]",707.9224580236596,None,l,1,1.3741290128195942,707.9224580236596,None,None,None,,,,,,,05_EA,23,M,5,2021_Oct_29_1343,Partial repeat,2021.2.3,120.10022263136987,
1,5,0,1,1,2,2,3,3,1,1,1,1,1,0,0,0,43,43,43,,,,,,,,,,,,,,,,,,,,,,,,,,,,,,,,05_EA,23,M,5,2021_Oct_29_1343,Partial repeat,2021.2.3,120.10022263136987,
4,7,0,1,1,3,3,2,2,1,1,1,1,1,0,0,0,44,44,44,0,0,0,0,,,,,,,709.3129295531271,None,0.7654911265967271,709.8791144895586,None,"[87. 87. 87. 93. 87. 87. 93. 87. 87. 93. 87. 87. 93. 87. 87. 93. 93. 93.
 93. 93. 93. 93. 87. 93. 87. 93. 93. 93. 93. 93. 93. 93. 93. 93.]",710.7200681448048,None,l,1,1.104542993794439,710.7200681448048,None,None,None,,,,,,,05_EA,23,M,5,2021_Oct_29_1343,Partial repeat,2021.2.3,120.10022263136987,
4,7,0,1,1,3,3,2,2,1,1,1,1,1,0,0,0,44,44,44,1,0,1,0,,,,,,,,,0.7957998421954118,711.8857147347107,None,"[93. 93. 93. 87. 93. 93. 93. 93. 87. 87. 87. 93. 93. 93. 87. 87. 87. 87.
 93. 87. 93. 87. 87. 87. 93. 87. 93. 87. 93. 93. 93. 93. 93. 93.]",712.7599688396585,None,l,1,1.3686676146330683,712.7599688396585,None,None,None,,,,,,,05_EA,23,M,5,2021_Oct_29_1343,Partial repeat,2021.2.3,120.10022263136987,
4,7,0,1,1,3,3,2,2,1,1,1,1,1,0,0,0,44,44,44,,,,,,,,,,,,,,,,,,,,,,,,,,,,,,,,05_EA,23,M,5,2021_Oct_29_1343,Partial repeat,2021.2.3,120.10022263136987,
5,8,0,1,1,2,3,3,2,1,1,0,0,1,0,0,0,45,45,45,0,0,0,0,,,,,,,714.150426578527,None,0.8647684874740674,714.8831368547044,None,"[93. 93. 87. 87. 93. 87. 93. 87. 87. 93. 93. 93. 93. 93. 93. 87. 93. 93.
 93. 93. 87. 93. 93. 87. 87. 87. 87. 87. 93. 93. 93. 93. 93. 87.]",715.8239976318655,None,l,1,1.2966768357332512,715.8239976318655,None,None,None,,,,,,,05_EA,23,M,5,2021_Oct_29_1343,Partial repeat,2021.2.3,120.10022263136987,
5,8,0,1,1,2,3,3,2,1,1,0,0,1,0,0,0,45,45,45,1,0,1,0,,,,,,,,,0.9837962635064761,717.1894860467992,None,"[87. 87. 93. 93. 87. 93. 93. 93. 87. 93. 87. 93. 93. 93. 93. 87. 93. 87.
 93. 93. 87. 87. 87. 93. 87. 87. 87. 93. 87. 87. 93. 87. 93. 93.]",718.2552213455392,None,l,1,1.233451426136071,718.2552213455392,None,None,None,,,,,,,05_EA,23,M,5,2021_Oct_29_1343,Partial repeat,2021.2.3,120.10022263136987,
5,8,0,1,1,2,3,3,2,1,1,0,0,1,0,0,0,45,45,45,,,,,,,,,,,,,,,,,,,,,,,,,,,,,,,,05_EA,23,M,5,2021_Oct_29_1343,Partial repeat,2021.2.3,120.10022263136987,
1,6,0,1,1,2,2,2,3,0,0,1,0,1,0,0,0,46,46,46,0,0,0,0,,,,,,,719.5208071285215,None,0.947790574495836,720.0453547166735,None,"[93. 93. 93. 87. 87. 87. 93. 87. 93. 87. 87. 93. 93. 93. 87. 87. 93. 93.
 93. 87. 87. 87. 87. 87. 93. 87. 93. 87. 93. 87. 87. 93. 87. 93.]",721.0694873039893,None,s,1,1.779435699721489,721.0694873039893,None,None,None,,,,,,,05_EA,23,M,5,2021_Oct_29_1343,Partial repeat,2021.2.3,120.10022263136987,
1,6,0,1,1,2,2,2,3,0,0,1,0,1,0,0,0,46,46,46,1,0,1,0,,,,,,,,,0.761251521658961,722.9095513051998,None,"[87. 87. 87. 87. 93. 93. 93. 87. 93. 93. 87. 87. 93. 87. 87. 93. 87. 93.
 93. 93. 87. 93. 93. 93. 87. 93. 93. 87. 93. 87. 87. 93. 93. 87.]",723.758827427001,None,s,1,1.4089226958271865,723.758827427001,None,None,None,,,,,,,05_EA,23,M,5,2021_Oct_29_1343,Partial repeat,2021.2.3,120.10022263136987,
1,6,0,1,1,2,2,2,3,0,0,1,0,1,0,0,0,46,46,46,,,,,,,,,,,,,,,,,,,,,,,,,,,,,,,,05_EA,23,M,5,2021_Oct_29_1343,Partial repeat,2021.2.3,120.10022263136987,
6,7,0,1,1,2,2,2,3,0,1,1,0,0,0,0,0,47,47,47,0,0,0,0,,,,,,,725.1909295698042,None,0.8076728641833392,725.9486014728363,None,"[87. 87. 93. 87. 87. 87. 87. 93. 87. 93. 93. 87. 87. 87. 93. 93. 93. 87.
 93. 87. 93. 93. 93. 87. 87. 87. 87. 87. 93. 87. 87. 87. 87. 93.]",726.8311799686089,None,s,1,1.3285793034806375,726.8311799686089,None,None,None,,,,,,,05_EA,23,M,5,2021_Oct_29_1343,Partial repeat,2021.2.3,120.10022263136987,
6,7,0,1,1,2,2,2,3,0,1,1,0,0,0,0,0,47,47,47,1,0,1,0,,,,,,,,,0.943111816256389,728.2299739646305,None,"[93. 93. 93. 93. 93. 93. 87. 87. 87. 87. 93. 93. 93. 93. 93. 87. 87. 93.
 87. 93. 93. 87. 93. 93. 93. 87. 87. 87. 87. 87. 93. 93. 93. 87.]",729.2540934027693,None,l,1,1.7071533939592882,729.2540934027693,None,None,None,,,,,,,05_EA,23,M,5,2021_Oct_29_1343,Partial repeat,2021.2.3,120.10022263136987,
6,7,0,1,1,2,2,2,3,0,1,1,0,0,0,0,0,47,47,47,,,,,,,,,,,,,,,,,,,,,,,,,,,,,,,,05_EA,23,M,5,2021_Oct_29_1343,Partial repeat,2021.2.3,120.10022263136987,
7,6,0,1,1,3,2,3,3,0,1,0,1,0,0,0,0,48,48,48,0,0,0,0,,,,,,,730.977612404612,None,0.8482177183784012,731.5187866453116,None,"[93. 93. 93. 87. 87. 93. 87. 87. 93. 93. 87. 87. 87. 87. 93. 93. 93. 87.
 87. 93. 93. 93. 87. 87. 87. 87. 93. 93. 87. 87. 87. 87. 93. 93.]",732.4430121107125,None,s,1,2.3569160994306912,732.4430121107125,None,None,None,,,,,,,05_EA,23,M,5,2021_Oct_29_1343,Partial repeat,2021.2.3,120.10022263136987,
7,6,0,1,1,3,2,3,3,0,1,0,1,0,0,0,0,48,48,48,1,0,1,0,,,,,,,,,0.9602991830778764,734.8576030783188,None,"[93. 87. 93. 87. 87. 87. 87. 87. 93. 87. 87. 93. 87. 93. 87. 87. 87. 87.
 93. 87. 87. 93. 87. 93. 87. 93. 93. 93. 87. 87. 87. 93. 93. 93.]",735.9066944060842,None,l,1,2.6681798764007,735.9066944060842,None,None,None,,,,,,,05_EA,23,M,5,2021_Oct_29_1343,Partial repeat,2021.2.3,120.10022263136987,
7,6,0,1,1,3,2,3,3,0,1,0,1,0,0,0,0,48,48,48,,,,,,,,,,,,,,,,,,,,,,,,,,,,,,,,05_EA,23,M,5,2021_Oct_29_1343,Partial repeat,2021.2.3,120.10022263136987,
6,3,0,1,1,2,2,3,3,0,0,1,1,1,0,0,0,49,49,49,0,0,0,0,,,,,,,738.5960422261751,None,0.7548415513739992,739.1622220312211,None,"[87. 87. 87. 87. 93. 87. 87. 93. 87. 87. 93. 93. 87. 87. 93. 87. 87. 87.
 93. 87. 93. 87. 87. 87. 87. 93. 93. 93. 87. 93. 93. 93. 93. 87.]",740.003156123058,None,s,1,1.3397836846584141,740.003156123058,None,None,None,,,,,,,05_EA,23,M,5,2021_Oct_29_1343,Partial repeat,2021.2.3,120.10022263136987,
6,3,0,1,1,2,2,3,3,0,0,1,1,1,0,0,0,49,49,49,1,0,1,0,,,,,,,,,0.7136395966374894,741.4019546090431,None,"[93. 93. 93. 93. 87. 93. 87. 87. 87. 93. 87. 93. 93. 87. 93. 87. 93. 87.
 87. 93. 93. 93. 93. 87. 87. 93. 93. 93. 93. 93. 93. 87. 93. 87.]",742.2012741231265,None,s,1,1.077769987706688,742.2012741231265,None,None,None,,,,,,,05_EA,23,M,5,2021_Oct_29_1343,Partial repeat,2021.2.3,120.10022263136987,
6,3,0,1,1,2,2,3,3,0,0,1,1,1,0,0,0,49,49,49,,,,,,,,,,,,,,,,,,,,,,,,,,,,,,,,05_EA,23,M,5,2021_Oct_29_1343,Partial repeat,2021.2.3,120.10022263136987,
4,4,0,1,1,2,2,3,2,0,0,1,0,1,0,0,0,50,50,50,0,0,0,0,,,,,,,743.3086413180481,None,0.8140991301651785,744.1745841813481,None,"[87. 93. 87. 93. 87. 87. 87. 93. 87. 93. 87. 93. 93. 93. 93. 93. 93. 93.
 87. 87. 93. 93. 93. 87. 93. 87. 87. 93. 93. 87. 87. 87. 87. 93.]",745.073814665886,None,s,1,2.349136918361637,745.073814665886,None,None,None,,,,,,,05_EA,23,M,5,2021_Oct_29_1343,Partial repeat,2021.2.3,120.10022263136987,
4,4,0,1,1,2,2,3,2,0,0,1,0,1,0,0,0,50,50,50,1,0,1,0,,,,,,,,,0.7117376104517878,747.4967155922932,None,"[87. 87. 93. 87. 93. 93. 87. 93. 87. 87. 93. 93. 87. 87. 87. 87. 93. 87.
 93. 87. 93. 87. 93. 87. 93. 93. 93. 93. 87. 87. 87. 93. 87. 93.]",748.2960290128558,None,s,1,0.6949406954468031,748.2960290128558,None,None,None,,,,,,,05_EA,23,M,5,2021_Oct_29_1343,Partial repeat,2021.2.3,120.10022263136987,
4,4,0,1,1,2,2,3,2,0,0,1,0,1,0,0,0,50,50,50,,,,,,,,,,,,,,,,,,,,,,,,,,,,,,,,05_EA,23,M,5,2021_Oct_29_1343,Partial repeat,2021.2.3,120.10022263136987,
3,6,0,1,1,3,3,2,2,1,0,1,1,0,0,0,0,51,51,51,0,0,0,0,,,,,,,749.0037487981335,None,0.7408057794811942,750.1694011608479,None,"[93. 87. 87. 93. 93. 93. 93. 93. 93. 93. 87. 93. 93. 93. 93. 93. 93. 93.
 93. 87. 93. 93. 93. 93. 87. 87. 93. 93. 93. 87. 87. 93. 93. 93.]",750.9853624009238,None,l,1,1.3967276364542158,750.9853624009238,None,None,None,,,,,,,05_EA,23,M,5,2021_Oct_29_1343,Partial repeat,2021.2.3,120.10022263136987,
3,6,0,1,1,3,3,2,2,1,0,1,1,0,0,0,0,51,51,51,1,0,1,0,,,,,,,,,0.8095973715201592,752.4424431682974,None,"[87. 87. 87. 93. 87. 87. 87. 93. 87. 87. 87. 93. 87. 93. 87. 93. 87. 87.
 87. 93. 93. 87. 93. 93. 93. 93. 93. 87. 87. 87. 87. 87. 93. 93.]",753.3333415649313,None,s,1,1.1606434740283476,753.3333415649313,None,None,None,,,,,,,05_EA,23,M,5,2021_Oct_29_1343,Partial repeat,2021.2.3,120.10022263136987,
3,6,0,1,1,3,3,2,2,1,0,1,1,0,0,0,0,51,51,51,,,,,,,,,,,,,,,,,,,,,,,,,,,,,,,,05_EA,23,M,5,2021_Oct_29_1343,Partial repeat,2021.2.3,120.10022263136987,
5,2,0,1,1,2,3,3,3,1,1,0,1,1,0,0,0,52,52,52,0,0,0,0,,,,,,,754.5239715900816,None,0.8413059418986205,755.4148808909113,None,"[87. 87. 87. 87. 87. 93. 87. 93. 87. 93. 87. 93. 87. 93. 87. 87. 87. 93.
 87. 87. 93. 87. 87. 87. 93. 93. 93. 87. 93. 87. 87. 87. 87. 87.]",756.3307781169478,None,l,1,0.7872639496686133,756.3307781169478,None,None,None,,,,,,,05_EA,23,M,5,2021_Oct_29_1343,Partial repeat,2021.2.3,120.10022263136987,
5,2,0,1,1,2,3,3,3,1,1,0,1,1,0,0,0,52,52,52,1,0,1,0,,,,,,,,,0.8698803743315011,757.1883548969136,None,"[93. 87. 87. 87. 93. 93. 87. 93. 93. 87. 87. 93. 87. 87. 93. 87. 93. 93.
 87. 87. 93. 87. 93. 87. 87. 87. 87. 93. 87. 93. 93. 93. 93. 87.]",758.1375342920901,None,l,1,0.9965321306503938,758.1375342920901,None,None,None,,,,,,,05_EA,23,M,5,2021_Oct_29_1343,Partial repeat,2021.2.3,120.10022263136987,
5,2,0,1,1,2,3,3,3,1,1,0,1,1,0,0,0,52,52,52,,,,,,,,,,,,,,,,,,,,,,,,,,,,,,,,05_EA,23,M,5,2021_Oct_29_1343,Partial repeat,2021.2.3,120.10022263136987,
6,2,0,1,1,2,2,3,2,0,1,1,0,0,0,0,0,53,53,53,0,0,0,0,,,,,,,759.1616578994799,None,0.7937416606675943,760.1857847139863,None,"[87. 93. 93. 93. 87. 87. 87. 93. 93. 87. 93. 93. 93. 93. 87. 87. 93. 87.
 87. 87. 87. 87. 93. 87. 93. 93. 87. 93. 93. 93. 87. 87. 87. 93.]",761.0600163691215,None,s,1,1.8670964484031174,761.0600163691215,None,None,None,,,,,,,05_EA,23,M,5,2021_Oct_29_1343,Partial repeat,2021.2.3,120.10022263136987,
6,2,0,1,1,2,2,3,2,0,1,1,0,0,0,0,0,53,53,53,1,0,1,0,,,,,,,,,0.9991466957578836,763.0000070556553,None,"[93. 93. 87. 87. 87. 93. 87. 87. 93. 93. 87. 87. 87. 93. 87. 93. 87. 87.
 93. 93. 87. 87. 87. 87. 87. 87. 87. 93. 93. 93. 93. 87. 87. 93.]",764.0740677073545,None,l,1,1.5400552632586368,764.0740677073545,None,None,None,,,,,,,05_EA,23,M,5,2021_Oct_29_1343,Partial repeat,2021.2.3,120.10022263136987,
6,2,0,1,1,2,2,3,2,0,1,1,0,0,0,0,0,53,53,53,,,,,,,,,,,,,,,,,,,,,,,,,,,,,,,,05_EA,23,M,5,2021_Oct_29_1343,Partial repeat,2021.2.3,120.10022263136987,
3,7,0,1,1,3,3,3,2,0,1,1,0,0,0,0,0,54,54,54,0,0,0,0,,,,,,,765.6227857267932,None,0.8854004600302254,766.4470399279553,None,"[87. 93. 93. 93. 93. 87. 93. 87. 87. 93. 93. 93. 87. 93. 87. 87. 87. 93.
 87. 87. 93. 87. 93. 93. 87. 93. 93. 87. 87. 87. 87. 93. 87. 87.]",767.4128972895378,None,s,1,0.9852308945642108,767.4128972895378,None,None,None,,,,,,,05_EA,23,M,5,2021_Oct_29_1343,Partial repeat,2021.2.3,120.10022263136987,
3,7,0,1,1,3,3,3,2,0,1,1,0,0,0,0,0,54,54,54,1,0,1,0,,,,,,,,,0.8733503965333713,768.4703142909739,None,"[87. 87. 93. 93. 87. 93. 93. 93. 87. 87. 87. 87. 87. 87. 93. 93. 93. 87.
 93. 93. 87. 87. 93. 87. 93. 87. 87. 87. 87. 93. 87. 93. 87. 93.]",769.4278299433045,None,l,1,1.7053599745763677,769.4278299433045,None,None,None,,,,,,,05_EA,23,M,5,2021_Oct_29_1343,Partial repeat,2021.2.3,120.10022263136987,
3,7,0,1,1,3,3,3,2,0,1,1,0,0,0,0,0,54,54,54,,,,,,,,,,,,,,,,,,,,,,,,,,,,,,,,05_EA,23,M,5,2021_Oct_29_1343,Partial repeat,2021.2.3,120.10022263136987,
1,3,0,1,1,2,2,3,2,1,0,1,0,0,0,0,0,55,55,55,0,0,0,0,,,,,,,771.1513297024503,None,0.7194688671484769,772.0589131211464,None,"[87. 87. 93. 87. 93. 87. 87. 87. 87. 93. 87. 93. 87. 93. 93. 87. 87. 93.
 87. 87. 93. 87. 87. 87. 93. 93. 93. 87. 87. 93. 87. 93. 87. 87.]",772.8665355383755,None,l,1,1.562661583971476,772.8665355383755,None,None,None,,,,,,,05_EA,23,M,5,2021_Oct_29_1343,Partial repeat,2021.2.3,120.10022263136987,
1,3,0,1,1,2,2,3,2,1,0,1,0,0,0,0,0,55,55,55,1,0,1,0,,,,,,,,,0.748209943020272,774.4901156678534,None,"[93. 87. 87. 87. 93. 93. 87. 87. 87. 93. 93. 93. 87. 93. 87. 87. 93. 93.
 87. 93. 93. 93. 87. 87. 93. 87. 87. 87. 87. 93. 93. 87. 87. 93.]",775.3144192586042,None,s,1,1.73883938136305,775.3144192586042,None,None,None,,,,,,,05_EA,23,M,5,2021_Oct_29_1343,Partial repeat,2021.2.3,120.10022263136987,
1,3,0,1,1,2,2,3,2,1,0,1,0,0,0,0,0,55,55,55,,,,,,,,,,,,,,,,,,,,,,,,,,,,,,,,05_EA,23,M,5,2021_Oct_29_1343,Partial repeat,2021.2.3,120.10022263136987,
2,1,0,1,1,3,3,2,3,1,0,1,0,0,0,0,0,56,56,56,0,0,0,0,,,,,,,777.0629226578267,None,0.7408589690332701,777.7206704412283,None,"[87. 93. 93. 93. 93. 93. 93. 93. 93. 93. 93. 93. 93. 87. 93. 87. 87. 93.
 93. 93. 93. 93. 93. 87. 93. 87. 93. 93. 93. 93. 87. 87. 93. 93.]",778.544969862729,None,l,1,1.5327613188715077,778.544969862729,None,None,None,,,,,,,05_EA,23,M,5,2021_Oct_29_1343,Partial repeat,2021.2.3,120.10022263136987,
2,1,0,1,1,3,3,2,3,1,0,1,0,0,0,0,0,56,56,56,1,0,1,0,,,,,,,,,0.7275546475957614,780.1518842128426,None,"[93. 87. 93. 93. 87. 87. 87. 87. 93. 93. 87. 93. 93. 93. 93. 93. 93. 93.
 93. 87. 87. 93. 87. 93. 93. 87. 87. 93. 93. 87. 87. 87. 87. 87.]",780.9678778447924,None,s,1,2.213157756920282,780.9678778447924,None,None,None,,,,,,,05_EA,23,M,5,2021_Oct_29_1343,Partial repeat,2021.2.3,120.10022263136987,
2,1,0,1,1,3,3,2,3,1,0,1,0,0,0,0,0,56,56,56,,,,,,,,,,,,,,,,,,,,,,,,,,,,,,,,05_EA,23,M,5,2021_Oct_29_1343,Partial repeat,2021.2.3,120.10022263136987,
7,7,0,1,1,2,2,2,3,1,1,1,0,1,0,0,0,57,57,57,0,0,0,0,,,,,,,783.199267751228,None,0.7728576672521865,784.2983333258499,None,"[93. 93. 93. 87. 93. 87. 87. 93. 93. 93. 87. 93. 93. 93. 93. 93. 87. 87.
 93. 93. 87. 87. 87. 87. 87. 93. 93. 93. 87. 93. 93. 93. 87. 93.]",785.1559348006103,None,l,1,1.544403150699054,785.1559348006103,None,None,None,,,,,,,05_EA,23,M,5,2021_Oct_29_1343,Partial repeat,2021.2.3,120.10022263136987,
7,7,0,1,1,2,2,2,3,1,1,1,0,1,0,0,0,57,57,57,1,0,1,0,,,,,,,,,0.7754032934955585,786.7628828254437,None,"[93. 87. 87. 93. 87. 87. 93. 93. 87. 87. 87. 93. 93. 87. 93. 87. 93. 87.
 87. 87. 93. 93. 87. 93. 93. 93. 87. 87. 87. 93. 87. 93. 87. 93.]",787.6204647367949,None,l,1,1.4958798032134837,787.6204647367949,None,None,None,,,,,,,05_EA,23,M,5,2021_Oct_29_1343,Partial repeat,2021.2.3,120.10022263136987,
7,7,0,1,1,2,2,2,3,1,1,1,0,1,0,0,0,57,57,57,,,,,,,,,,,,,,,,,,,,,,,,,,,,,,,,05_EA,23,M,5,2021_Oct_29_1343,Partial repeat,2021.2.3,120.10022263136987,
6,4,0,1,1,3,2,2,2,0,0,0,1,1,0,0,0,58,58,58,0,0,0,0,,,,,,,789.1358216920362,None,0.7861590568459476,789.9268174567187,None,"[87. 93. 87. 93. 93. 87. 93. 87. 87. 87. 87. 87. 93. 93. 93. 87. 93. 93.
 87. 87. 93. 93. 93. 87. 93. 87. 93. 93. 93. 93. 87. 87. 93. 87.]",790.8010497532769,None,s,1,1.691849035424184,790.8010497532769,None,None,None,,,,,,,05_EA,23,M,5,2021_Oct_29_1343,Partial repeat,2021.2.3,120.10022263136987,
6,4,0,1,1,3,2,2,2,0,0,0,1,1,0,0,0,58,58,58,1,0,1,0,,,,,,,,,0.8776199719003991,792.5495602081546,None,"[87. 93. 93. 93. 93. 93. 93. 87. 87. 93. 93. 93. 93. 93. 87. 87. 93. 87.
 87. 93. 93. 93. 93. 87. 93. 93. 87. 87. 87. 93. 93. 87. 93. 87.]",793.5154021755798,None,s,1,0.8650086157535952,793.5154021755798,None,None,None,,,,,,,05_EA,23,M,5,2021_Oct_29_1343,Partial repeat,2021.2.3,120.10022263136987,
6,4,0,1,1,3,2,2,2,0,0,0,1,1,0,0,0,58,58,58,,,,,,,,,,,,,,,,,,,,,,,,,,,,,,,,05_EA,23,M,5,2021_Oct_29_1343,Partial repeat,2021.2.3,120.10022263136987,
7,4,0,1,1,3,2,2,3,0,0,0,0,1,0,0,0,59,59,59,0,0,0,0,,,,,,,794.397975539966,None,0.7390575278057966,794.9058733843349,None,"[87. 93. 87. 93. 93. 93. 93. 87. 93. 87. 93. 93. 93. 93. 93. 87. 87. 93.
 93. 93. 87. 93. 87. 87. 93. 87. 87. 93. 93. 93. 87. 93. 87. 87.]",795.7301660708918,None,s,1,0.8902149455739163,795.7301660708918,None,None,None,,,,,,,05_EA,23,M,5,2021_Oct_29_1343,Partial repeat,2021.2.3,120.10022263136987,
7,4,0,1,1,3,2,2,3,0,0,0,0,1,0,0,0,59,59,59,1,0,1,0,,,,,,,,,0.8850206804872104,796.67933007191,None,"[93. 87. 93. 93. 93. 93. 87. 93. 87. 93. 93. 93. 93. 93. 93. 93. 87. 87.
 93. 93. 93. 93. 93. 87. 87. 93. 93. 93. 87. 87. 87. 87. 93. 87.]",797.6535044479497,None,s,1,0.7269364902754205,797.6535044479497,None,None,None,,,,,,,05_EA,23,M,5,2021_Oct_29_1343,Partial repeat,2021.2.3,120.10022263136987,
7,4,0,1,1,3,2,2,3,0,0,0,0,1,0,0,0,59,59,59,,,,,,,,,,,,,,,,,,,,,,,,,,,,,,,,05_EA,23,M,5,2021_Oct_29_1343,Partial repeat,2021.2.3,120.10022263136987,
3,1,0,1,1,2,3,2,2,1,1,0,1,1,0,0,0,60,60,60,0,0,0,0,,,,,,,798.4028346417299,None,0.7400798781653326,799.318732188478,None,"[87. 87. 93. 87. 93. 87. 87. 87. 87. 87. 93. 93. 87. 93. 87. 93. 87. 87.
 93. 93. 87. 87. 93. 87. 87. 87. 93. 87. 87. 93. 87. 93. 93. 87.]",800.1430242336119,None,l,1,0.7644815582757474,800.1430242336119,None,None,None,,,,,,,05_EA,23,M,5,2021_Oct_29_1343,Partial repeat,2021.2.3,120.10022263136987,
3,1,0,1,1,2,3,2,2,1,1,0,1,1,0,0,0,60,60,60,1,0,1,0,,,,,,,,,0.9193969456076276,800.9756313689322,None,"[93. 93. 93. 87. 93. 87. 93. 87. 93. 93. 87. 93. 93. 87. 87. 87. 93. 87.
 93. 87. 87. 87. 93. 87. 87. 87. 93. 87. 87. 87. 93. 93. 87. 93.]",801.9830972147474,None,l,1,0.8283730859088791,801.9830972147474,None,None,None,,,,,,,05_EA,23,M,5,2021_Oct_29_1343,Partial repeat,2021.2.3,120.10022263136987,
3,1,0,1,1,2,3,2,2,1,1,0,1,1,0,0,0,60,60,60,,,,,,,,,,,,,,,,,,,,,,,,,,,,,,,,05_EA,23,M,5,2021_Oct_29_1343,Partial repeat,2021.2.3,120.10022263136987,
3,4,0,1,1,2,3,2,2,0,0,0,1,1,0,0,0,61,61,61,0,0,0,0,,,,,,,802.8323534524288,None,0.7113900020835763,803.373572913466,None,"[93. 87. 93. 93. 87. 87. 87. 87. 93. 87. 93. 87. 93. 93. 93. 87. 87. 87.
 87. 87. 93. 87. 93. 87. 93. 93. 93. 87. 93. 87. 93. 87. 93. 93.]",804.1728946725307,None,s,1,1.0226056646929464,804.1728946725307,None,None,None,,,,,,,05_EA,23,M,5,2021_Oct_29_1343,Partial repeat,2021.2.3,120.10022263136987,
3,4,0,1,1,2,3,2,2,0,0,0,1,1,0,0,0,61,61,61,1,0,1,0,,,,,,,,,0.8789220161308837,805.255290939961,None,"[87. 93. 93. 93. 93. 87. 87. 87. 93. 87. 93. 87. 93. 93. 93. 93. 87. 93.
 87. 93. 87. 93. 87. 93. 87. 93. 93. 87. 93. 87. 87. 93. 93. 87.]",806.2211284174227,None,s,1,0.6703879759083975,806.2211284174227,None,None,None,,,,,,,05_EA,23,M,5,2021_Oct_29_1343,Partial repeat,2021.2.3,120.10022263136987,
3,4,0,1,1,2,3,2,2,0,0,0,1,1,0,0,0,61,61,61,,,,,,,,,,,,,,,,,,,,,,,,,,,,,,,,05_EA,23,M,5,2021_Oct_29_1343,Partial repeat,2021.2.3,120.10022263136987,
5,3,0,1,1,2,3,2,2,0,1,0,1,0,0,0,0,62,62,62,0,0,0,0,,,,,,,806.9205218876059,None,0.819291302249741,807.436740915683,None,"[93. 87. 93. 93. 87. 87. 87. 87. 93. 87. 93. 87. 87. 87. 93. 87. 93. 93.
 87. 93. 93. 87. 87. 93. 87. 87. 87. 93. 93. 87. 93. 93. 87. 93.]",808.3443009224311,None,s,1,0.7554018915848246,808.3443009224311,None,None,None,,,,,,,05_EA,23,M,5,2021_Oct_29_1343,Partial repeat,2021.2.3,120.10022263136987,
5,3,0,1,1,2,3,2,2,0,1,0,1,0,0,0,0,62,62,62,1,0,1,0,,,,,,,,,0.8819919125231666,809.1602432405216,None,"[93. 87. 93. 87. 93. 87. 93. 87. 87. 93. 87. 93. 93. 93. 93. 93. 87. 93.
 93. 93. 87. 93. 87. 87. 87. 87. 93. 87. 87. 93. 87. 87. 93. 87.]",810.126101243527,None,l,1,0.7008247915496213,810.126101243527,None,None,None,,,,,,,05_EA,23,M,5,2021_Oct_29_1343,Partial repeat,2021.2.3,120.10022263136987,
5,3,0,1,1,2,3,2,2,0,1,0,1,0,0,0,0,62,62,62,,,,,,,,,,,,,,,,,,,,,,,,,,,,,,,,05_EA,23,M,5,2021_Oct_29_1343,Partial repeat,2021.2.3,120.10022263136987,
6,8,0,1,1,3,2,2,2,1,1,0,1,1,0,0,0,63,63,63,0,0,0,0,,,,,,,810.858787145622,None,0.8441882269833095,811.383352693625,None,"[87. 93. 87. 87. 87. 87. 87. 87. 93. 87. 87. 93. 93. 93. 93. 87. 93. 87.
 87. 93. 93. 87. 93. 87. 87. 93. 93. 93. 87. 87. 87. 93. 93. 87.]",812.315891645655,None,l,1,1.4387989075562473,812.315891645655,None,None,None,,,,,,,05_EA,23,M,5,2021_Oct_29_1343,Partial repeat,2021.2.3,120.10022263136987,
6,8,0,1,1,3,2,2,2,1,1,0,1,1,0,0,0,63,63,63,1,0,1,0,,,,,,,,,0.9016751850992615,813.8228937424674,None,"[93. 87. 87. 93. 87. 93. 87. 93. 93. 93. 87. 87. 87. 87. 93. 87. 93. 87.
 87. 93. 87. 87. 93. 93. 87. 93. 87. 87. 93. 93. 87. 93. 87. 87.]",814.813722672965,None,l,1,1.004882819827344,814.813722672965,None,None,None,,,,,,,05_EA,23,M,5,2021_Oct_29_1343,Partial repeat,2021.2.3,120.10022263136987,
6,8,0,1,1,3,2,2,2,1,1,0,1,1,0,0,0,63,63,63,,,,,,,,,,,,,,,,,,,,,,,,,,,,,,,,05_EA,23,M,5,2021_Oct_29_1343,Partial repeat,2021.2.3,120.10022263136987,
5,5,0,1,1,3,3,2,3,1,0,1,0,0,1,0,0,64,64,64,0,0,0,0,,,,,,,824.8134340325059,None,0.8583599575162559,831.749123655497,None,"[93. 93. 93. 87. 87. 93. 87. 93. 87. 93. 87. 87. 93. 93. 93. 93. 87. 93.
 93. 87. 87. 87. 93. 93. 93. 87. 93. 87. 93. 93. 93. 87. 87. 87.]",832.689985074081,None,l,1,5.127453349123698,832.689985074081,None,None,None,,,,,,,05_EA,23,M,5,2021_Oct_29_1343,Partial repeat,2021.2.3,120.10022263136987,
5,5,0,1,1,3,3,2,3,1,0,1,0,0,1,0,0,64,64,64,1,0,1,0,,,,,,,,,0.8646676177671317,837.8855078757151,None,"[87. 87. 87. 87. 93. 87. 87. 93. 93. 87. 87. 87. 93. 87. 93. 93. 87. 93.
 93. 87. 93. 93. 93. 93. 93. 87. 87. 93. 93. 87. 93. 93. 87. 87.]",838.834711644975,None,s,1,0.8556832839608433,838.834711644975,None,None,None,,,,,,,05_EA,23,M,5,2021_Oct_29_1343,Partial repeat,2021.2.3,120.10022263136987,
5,5,0,1,1,3,3,2,3,1,0,1,0,0,1,0,0,64,64,64,,,,,,,,,,,,,,,,,,,,,,,,,,,,,,,,05_EA,23,M,5,2021_Oct_29_1343,Partial repeat,2021.2.3,120.10022263136987,
5,5,0,1,1,3,3,2,2,0,1,1,1,0,1,0,0,65,65,65,0,0,0,0,,,,,,,839.7172583902975,None,0.8113577263201892,840.6331357322133,None,"[87. 93. 87. 87. 93. 87. 93. 87. 87. 93. 87. 87. 93. 87. 93. 93. 93. 87.
 87. 93. 87. 93. 93. 93. 87. 87. 87. 93. 87. 93. 87. 93. 87. 93.]",841.5323745552532,None,s,1,0.7494793100881907,841.5323745552532,None,None,None,,,,,,,05_EA,23,M,5,2021_Oct_29_1343,Partial repeat,2021.2.3,120.10022263136987,
5,5,0,1,1,3,3,2,2,0,1,1,1,0,1,0,0,65,65,65,1,0,1,0,,,,,,,,,0.9045929376998814,842.3483332296364,None,"[93. 93. 93. 87. 93. 87. 93. 87. 93. 93. 93. 87. 87. 93. 87. 87. 93. 93.
 93. 87. 87. 93. 87. 87. 93. 93. 87. 93. 87. 87. 87. 87. 87. 93.]",843.3391573494591,None,l,1,0.750715011961347,843.3391573494591,None,None,None,,,,,,,05_EA,23,M,5,2021_Oct_29_1343,Partial repeat,2021.2.3,120.10022263136987,
5,5,0,1,1,3,3,2,2,0,1,1,1,0,1,0,0,65,65,65,,,,,,,,,,,,,,,,,,,,,,,,,,,,,,,,05_EA,23,M,5,2021_Oct_29_1343,Partial repeat,2021.2.3,120.10022263136987,
5,5,0,1,1,2,2,2,3,1,1,1,0,1,1,0,0,66,66,66,0,0,0,0,,,,,,,844.1134754684472,None,0.9764150462062835,844.9544156538059,None,"[93. 93. 87. 93. 93. 93. 87. 87. 87. 87. 93. 93. 87. 87. 87. 87. 87. 87.
 93. 87. 87. 93. 93. 93. 93. 93. 93. 87. 87. 87. 93. 93. 87. 93.]",846.0201650638573,None,l,1,0.7567498425273698,846.0201650638573,None,None,None,,,,,,,05_EA,23,M,5,2021_Oct_29_1343,Partial repeat,2021.2.3,120.10022263136987,
5,5,0,1,1,2,2,2,3,1,1,1,0,1,1,0,0,66,66,66,1,0,1,0,,,,,,,,,0.9469930093239542,846.8361266246447,None,"[93. 87. 93. 93. 87. 87. 87. 93. 87. 93. 93. 93. 93. 93. 93. 93. 87. 87.
 87. 87. 93. 87. 87. 93. 87. 87. 87. 87. 93. 87. 93. 93. 93. 93.]",847.8685794335333,None,l,1,1.9323455483267935,847.8685794335333,None,None,None,,,,,,,05_EA,23,M,5,2021_Oct_29_1343,Partial repeat,2021.2.3,120.10022263136987,
5,5,0,1,1,2,2,2,3,1,1,1,0,1,1,0,0,66,66,66,,,,,,,,,,,,,,,,,,,,,,,,,,,,,,,,05_EA,23,M,5,2021_Oct_29_1343,Partial repeat,2021.2.3,120.10022263136987,
5,5,0,1,1,2,2,3,3,0,0,1,1,1,1,0,0,67,67,67,0,0,0,0,,,,,,,849.8252160153124,None,0.8446572949922735,850.3414327984074,None,"[93. 87. 93. 93. 87. 87. 93. 93. 93. 87. 93. 93. 93. 93. 93. 87. 93. 93.
 87. 87. 87. 93. 87. 87. 87. 93. 93. 87. 93. 87. 93. 87. 93. 93.]",851.2739621290893,None,s,1,0.8949852102200566,851.2739621290893,None,None,None,,,,,,,05_EA,23,M,5,2021_Oct_29_1343,Partial repeat,2021.2.3,120.10022263136987,
5,5,0,1,1,2,2,3,3,0,0,1,1,1,1,0,0,67,67,67,1,0,1,0,,,,,,,,,0.7434663205036995,852.2398060207834,None,"[93. 87. 87. 93. 93. 93. 87. 87. 93. 87. 87. 93. 93. 93. 87. 93. 87. 93.
 93. 87. 87. 93. 93. 87. 87. 93. 87. 93. 87. 93. 93. 93. 87. 93.]",853.0641031973028,None,s,1,1.0088378355326313,853.0641031973028,None,None,None,,,,,,,05_EA,23,M,5,2021_Oct_29_1343,Partial repeat,2021.2.3,120.10022263136987,
5,5,0,1,1,2,2,3,3,0,0,1,1,1,1,0,0,67,67,67,,,,,,,,,,,,,,,,,,,,,,,,,,,,,,,,05_EA,23,M,5,2021_Oct_29_1343,Partial repeat,2021.2.3,120.10022263136987,
5,5,0,1,1,3,2,2,2,1,0,0,1,0,1,0,0,68,68,68,0,0,0,0,,,,,,,854.1048839248433,None,0.7373348032450496,855.3954143369638,None,"[93. 87. 93. 93. 87. 93. 87. 87. 87. 93. 93. 93. 93. 93. 93. 93. 93. 87.
 93. 93. 93. 93. 87. 87. 93. 87. 87. 93. 93. 93. 87. 93. 93. 87.]",856.2197246626592,None,l,1,0.9732731617891659,856.2197246626592,None,None,None,,,,,,,05_EA,23,M,5,2021_Oct_29_1343,Partial repeat,2021.2.3,120.10022263136987,
5,5,0,1,1,3,2,2,2,1,0,0,1,0,1,0,0,68,68,68,1,0,1,0,,,,,,,,,0.9989761465384157,857.252157587428,None,"[93. 93. 93. 87. 93. 87. 87. 93. 93. 93. 93. 93. 93. 87. 87. 87. 87. 87.
 87. 87. 87. 93. 87. 87. 87. 87. 87. 87. 93. 93. 93. 87. 93. 93.]",858.3345407056813,None,s,1,0.8904638177914421,858.3345407056813,None,None,None,,,,,,,05_EA,23,M,5,2021_Oct_29_1343,Partial repeat,2021.2.3,120.10022263136987,
5,5,0,1,1,3,2,2,2,1,0,0,1,0,1,0,0,68,68,68,,,,,,,,,,,,,,,,,,,,,,,,,,,,,,,,05_EA,23,M,5,2021_Oct_29_1343,Partial repeat,2021.2.3,120.10022263136987,
5,5,0,1,1,3,2,2,3,0,1,0,0,0,1,0,0,69,69,69,0,0,0,0,,,,,,,859.2420869218295,None,0.8824793092665004,859.9748109886068,None,"[93. 87. 93. 93. 93. 93. 93. 87. 87. 87. 87. 93. 87. 93. 93. 93. 87. 87.
 93. 87. 87. 87. 87. 93. 87. 87. 93. 87. 87. 87. 93. 93. 93. 87.]",860.9406410897009,None,s,1,0.9235032082356156,860.9406410897009,None,None,None,,,,,,,05_EA,23,M,5,2021_Oct_29_1343,Partial repeat,2021.2.3,120.10022263136987,
5,5,0,1,1,3,2,2,3,0,1,0,0,0,1,0,0,69,69,69,1,0,1,0,,,,,,,,,0.7879603792786101,861.9231276695236,None,"[93. 87. 87. 93. 93. 93. 93. 93. 93. 87. 87. 93. 93. 87. 93. 87. 87. 87.
 93. 93. 87. 93. 87. 87. 93. 87. 87. 87. 93. 93. 87. 93. 87. 87.]",862.7890387823736,None,l,1,0.868029719219976,862.7890387823736,None,None,None,,,,,,,05_EA,23,M,5,2021_Oct_29_1343,Partial repeat,2021.2.3,120.10022263136987,
5,5,0,1,1,3,2,2,3,0,1,0,0,0,1,0,0,69,69,69,,,,,,,,,,,,,,,,,,,,,,,,,,,,,,,,05_EA,23,M,5,2021_Oct_29_1343,Partial repeat,2021.2.3,120.10022263136987,
5,5,0,1,1,2,2,3,3,1,1,1,1,1,1,0,0,70,70,70,0,0,0,0,,,,,,,863.6882715118927,None,0.7588921635829141,864.1628586437873,None,"[93. 93. 87. 87. 87. 93. 87. 87. 93. 87. 87. 93. 93. 87. 93. 87. 87. 87.
 87. 93. 87. 93. 87. 93. 87. 87. 87. 87. 93. 93. 87. 87. 93. 87.]",865.0121344448771,None,l,1,1.5399510319816727,865.0121344448771,None,None,None,,,,,,,05_EA,23,M,5,2021_Oct_29_1343,Partial repeat,2021.2.3,120.10022263136987,
5,5,0,1,1,2,2,3,3,1,1,1,1,1,1,0,0,70,70,70,1,0,1,0,,,,,,,,,0.9047792891139168,866.6107712280627,None,"[87. 93. 93. 93. 87. 93. 87. 87. 93. 87. 93. 93. 93. 87. 93. 87. 93. 93.
 93. 93. 87. 87. 87. 93. 87. 87. 87. 87. 93. 93. 93. 93. 87. 87.]",867.5932584493085,None,l,1,0.8308444896579203,867.5932584493085,None,None,None,,,,,,,05_EA,23,M,5,2021_Oct_29_1343,Partial repeat,2021.2.3,120.10022263136987,
5,5,0,1,1,2,2,3,3,1,1,1,1,1,1,0,0,70,70,70,,,,,,,,,,,,,,,,,,,,,,,,,,,,,,,,05_EA,23,M,5,2021_Oct_29_1343,Partial repeat,2021.2.3,120.10022263136987,
5,5,0,1,1,3,3,2,2,1,0,1,1,0,1,0,0,71,71,71,0,0,0,0,,,,,,,868.4425191769515,None,0.752484492467712,869.0170108650682,None,"[93. 93. 93. 87. 87. 87. 93. 93. 87. 87. 93. 87. 93. 87. 87. 87. 93. 87.
 93. 87. 93. 93. 93. 93. 87. 87. 87. 87. 93. 93. 87. 87. 93. 87.]",869.8496382052208,None,l,1,0.9905046764529288,869.8496382052208,None,None,None,,,,,,,05_EA,23,M,5,2021_Oct_29_1343,Partial repeat,2021.2.3,120.10022263136987,
5,5,0,1,1,3,3,2,2,1,0,1,1,0,1,0,0,71,71,71,1,0,1,0,,,,,,,,,0.7125488046761833,870.9070366053829,None,"[87. 93. 87. 87. 93. 87. 87. 93. 93. 87. 93. 93. 93. 87. 87. 87. 87. 87.
 87. 87. 87. 87. 87. 87. 87. 87. 87. 87. 87. 87. 93. 93. 87. 87.]",871.7063586851591,None,s,1,0.9097902207608968,871.7063586851591,None,None,None,,,,,,,05_EA,23,M,5,2021_Oct_29_1343,Partial repeat,2021.2.3,120.10022263136987,
5,5,0,1,1,3,3,2,2,1,0,1,1,0,1,0,0,71,71,71,,,,,,,,,,,,,,,,,,,,,,,,,,,,,,,,05_EA,23,M,5,2021_Oct_29_1343,Partial repeat,2021.2.3,120.10022263136987,
5,5,0,1,1,3,2,2,3,1,0,0,0,0,1,0,0,72,72,72,0,0,0,0,,,,,,,872.6305623421695,None,0.7941337992694784,873.0635281613668,None,"[93. 93. 93. 93. 93. 87. 93. 87. 87. 93. 93. 87. 87. 93. 93. 87. 87. 87.
 93. 93. 87. 93. 87. 93. 93. 87. 93. 93. 93. 93. 87. 93. 87. 93.]",873.9377851527197,None,l,1,0.9023821030373256,873.9377851527197,None,None,None,,,,,,,05_EA,23,M,5,2021_Oct_29_1343,Partial repeat,2021.2.3,120.10022263136987,
5,5,0,1,1,3,2,2,3,1,0,0,0,0,1,0,0,72,72,72,1,0,1,0,,,,,,,,,0.913280778644859,874.9119197605178,None,"[87. 87. 93. 93. 87. 93. 93. 87. 93. 93. 93. 93. 87. 87. 87. 93. 87. 93.
 87. 93. 93. 93. 93. 87. 87. 93. 93. 93. 87. 93. 93. 87. 93. 87.]",875.9027509359967,None,s,1,0.7605380881891506,875.9027509359967,None,None,None,,,,,,,05_EA,23,M,5,2021_Oct_29_1343,Partial repeat,2021.2.3,120.10022263136987,
5,5,0,1,1,3,2,2,3,1,0,0,0,0,1,0,0,72,72,72,,,,,,,,,,,,,,,,,,,,,,,,,,,,,,,,05_EA,23,M,5,2021_Oct_29_1343,Partial repeat,2021.2.3,120.10022263136987,
5,5,0,1,1,2,3,3,3,0,0,0,1,1,1,0,0,73,73,73,0,0,0,0,,,,,,,876.6854011428877,None,0.7411362167184117,877.2182821017905,None,"[87. 87. 93. 87. 93. 87. 87. 87. 87. 93. 93. 93. 93. 87. 93. 87. 93. 93.
 87. 87. 87. 93. 87. 93. 93. 93. 87. 87. 87. 93. 93. 93. 87. 87.]",878.034233399806,None,s,1,0.8849183931602056,878.034233399806,None,None,None,,,,,,,05_EA,23,M,5,2021_Oct_29_1343,Partial repeat,2021.2.3,120.10022263136987,
5,5,0,1,1,2,3,3,3,0,0,0,1,1,1,0,0,73,73,73,1,0,1,0,,,,,,,,,0.7330783031710708,878.9834285098523,None,"[87. 87. 93. 93. 87. 87. 87. 93. 93. 93. 87. 93. 87. 87. 93. 87. 93. 93.
 93. 87. 87. 87. 93. 93. 93. 93. 93. 87. 93. 87. 87. 93. 93. 87.]",879.7910560584669,None,s,1,0.8241675944286726,879.7910560584669,None,None,None,,,,,,,05_EA,23,M,5,2021_Oct_29_1343,Partial repeat,2021.2.3,120.10022263136987,
5,5,0,1,1,2,3,3,3,0,0,0,1,1,1,0,0,73,73,73,,,,,,,,,,,,,,,,,,,,,,,,,,,,,,,,05_EA,23,M,5,2021_Oct_29_1343,Partial repeat,2021.2.3,120.10022263136987,
5,5,0,1,1,2,3,3,2,1,0,0,0,0,1,0,0,74,74,74,0,0,0,0,,,,,,,880.6320138829642,None,0.7924836286869003,881.5062413688484,None,"[93. 93. 87. 87. 87. 87. 93. 93. 93. 87. 87. 93. 87. 87. 87. 87. 93. 87.
 93. 93. 93. 93. 87. 87. 93. 87. 87. 87. 93. 87. 87. 87. 93. 93.]",882.3888403901647,None,l,1,1.010404191087673,882.3888403901647,None,None,None,,,,,,,05_EA,23,M,5,2021_Oct_29_1343,Partial repeat,2021.2.3,120.10022263136987,
5,5,0,1,1,2,3,3,2,1,0,0,0,0,1,0,0,74,74,74,1,0,1,0,,,,,,,,,0.9335825236216413,883.4629177188681,None,"[93. 87. 87. 93. 93. 87. 93. 93. 93. 93. 93. 93. 87. 87. 93. 87. 93. 87.
 87. 87. 93. 93. 87. 87. 87. 87. 93. 87. 87. 87. 87. 93. 87. 87.]",884.4787025034111,None,s,1,0.6965650998049568,884.4787025034111,None,None,None,,,,,,,05_EA,23,M,5,2021_Oct_29_1343,Partial repeat,2021.2.3,120.10022263136987,
5,5,0,1,1,2,3,3,2,1,0,0,0,0,1,0,0,74,74,74,,,,,,,,,,,,,,,,,,,,,,,,,,,,,,,,05_EA,23,M,5,2021_Oct_29_1343,Partial repeat,2021.2.3,120.10022263136987,
5,5,0,1,1,2,3,3,2,0,1,0,0,0,1,0,0,75,75,75,0,0,0,0,,,,,,,885.1947450759544,None,0.9038219399085347,885.6776434494968,None,"[87. 87. 87. 93. 87. 93. 93. 93. 93. 93. 93. 87. 93. 93. 93. 87. 87. 93.
 93. 87. 93. 87. 93. 87. 93. 93. 87. 87. 93. 93. 93. 87. 87. 93.]",886.6684787942268,None,s,1,0.9068470502193122,886.6684787942268,None,None,None,,,,,,,05_EA,23,M,5,2021_Oct_29_1343,Partial repeat,2021.2.3,120.10022263136987,
5,5,0,1,1,2,3,3,2,0,1,0,0,0,1,0,0,75,75,75,1,0,1,0,,,,,,,,,0.754796837376265,887.6426361725507,None,"[87. 87. 87. 93. 87. 87. 87. 87. 87. 93. 93. 93. 87. 87. 87. 93. 87. 87.
 87. 93. 93. 93. 93. 87. 87. 93. 93. 93. 87. 93. 93. 93. 87. 87.]",888.4752420250243,None,l,1,0.9086552223357103,888.4752420250243,None,None,None,,,,,,,05_EA,23,M,5,2021_Oct_29_1343,Partial repeat,2021.2.3,120.10022263136987,
5,5,0,1,1,2,3,3,2,0,1,0,0,0,1,0,0,75,75,75,,,,,,,,,,,,,,,,,,,,,,,,,,,,,,,,05_EA,23,M,5,2021_Oct_29_1343,Partial repeat,2021.2.3,120.10022263136987,
5,5,0,1,1,2,3,3,3,1,0,0,1,0,1,0,0,76,76,76,0,0,0,0,,,,,,,889.4077902776917,None,0.8457466132273207,890.3070092166108,None,"[87. 93. 87. 93. 93. 93. 93. 93. 93. 87. 87. 93. 93. 93. 93. 87. 87. 93.
 87. 93. 87. 87. 93. 87. 87. 87. 93. 93. 93. 93. 87. 87. 93. 93.]",891.2312125529097,None,l,1,0.6951895676643289,891.2312125529097,None,None,None,,,,,,,05_EA,23,M,5,2021_Oct_29_1343,Partial repeat,2021.2.3,120.10022263136987,
5,5,0,1,1,2,3,3,3,1,0,0,1,0,1,0,0,76,76,76,1,0,1,0,,,,,,,,,0.8250264215332916,891.9972142988636,None,"[93. 93. 93. 93. 93. 93. 93. 87. 87. 87. 93. 93. 93. 87. 87. 87. 93. 93.
 93. 87. 93. 93. 93. 87. 87. 87. 87. 87. 87. 87. 93. 93. 93. 93.]",892.8964380484567,None,s,1,0.7099423022114024,892.8964380484567,None,None,None,,,,,,,05_EA,23,M,5,2021_Oct_29_1343,Partial repeat,2021.2.3,120.10022263136987,
5,5,0,1,1,2,3,3,3,1,0,0,1,0,1,0,0,76,76,76,,,,,,,,,,,,,,,,,,,,,,,,,,,,,,,,05_EA,23,M,5,2021_Oct_29_1343,Partial repeat,2021.2.3,120.10022263136987,
5,5,0,1,1,3,2,2,2,1,1,0,1,1,1,0,0,77,77,77,0,0,0,0,,,,,,,893.6374720740359,None,0.8221570019446404,894.2619290290841,None,"[87. 87. 87. 93. 87. 93. 87. 87. 87. 87. 93. 93. 87. 87. 93. 87. 93. 93.
 87. 93. 87. 93. 87. 87. 93. 87. 87. 87. 87. 87. 93. 93. 93. 93.]",895.1694919222364,None,l,1,0.948880798061964,895.1694919222364,None,None,None,,,,,,,05_EA,23,M,5,2021_Oct_29_1343,Partial repeat,2021.2.3,120.10022263136987,
5,5,0,1,1,3,2,2,2,1,1,0,1,1,1,0,0,77,77,77,1,0,1,0,,,,,,,,,0.9093580637172397,896.1852690097003,None,"[93. 87. 87. 93. 93. 93. 93. 93. 87. 93. 93. 87. 87. 87. 93. 87. 87. 87.
 87. 87. 87. 87. 87. 87. 93. 87. 87. 93. 93. 93. 93. 87. 93. 93.]",897.1760806217699,None,l,1,0.7503035389522665,897.1760806217699,None,None,None,,,,,,,05_EA,23,M,5,2021_Oct_29_1343,Partial repeat,2021.2.3,120.10022263136987,
5,5,0,1,1,3,2,2,2,1,1,0,1,1,1,0,0,77,77,77,,,,,,,,,,,,,,,,,,,,,,,,,,,,,,,,05_EA,23,M,5,2021_Oct_29_1343,Partial repeat,2021.2.3,120.10022263136987,
5,5,0,1,1,3,2,3,3,0,0,0,1,1,1,0,0,78,78,78,0,0,0,0,,,,,,,897.9504099656642,None,0.9811685483637165,898.6165138903407,None,"[93. 87. 87. 87. 87. 87. 93. 93. 87. 87. 93. 87. 87. 93. 87. 93. 93. 93.
 87. 93. 93. 87. 93. 93. 87. 87. 93. 87. 93. 93. 87. 87. 93. 93.]",899.6822649039505,None,s,1,0.6441255427203032,899.6822649039505,None,None,None,,,,,,,05_EA,23,M,5,2021_Oct_29_1343,Partial repeat,2021.2.3,120.10022263136987,
5,5,0,1,1,3,2,3,3,0,0,0,1,1,1,0,0,78,78,78,1,0,1,0,,,,,,,,,0.8695241199605875,900.3983061936469,None,"[93. 93. 87. 87. 93. 87. 93. 87. 87. 93. 93. 87. 87. 93. 93. 87. 93. 93.
 87. 87. 87. 93. 93. 87. 93. 93. 93. 93. 93. 87. 87. 87. 93. 93.]",901.3474846266881,None,s,1,0.754943594679844,901.3474846266881,None,None,None,,,,,,,05_EA,23,M,5,2021_Oct_29_1343,Partial repeat,2021.2.3,120.10022263136987,
5,5,0,1,1,3,2,3,3,0,0,0,1,1,1,0,0,78,78,78,,,,,,,,,,,,,,,,,,,,,,,,,,,,,,,,05_EA,23,M,5,2021_Oct_29_1343,Partial repeat,2021.2.3,120.10022263136987,
5,5,0,1,1,3,2,2,2,0,1,0,1,0,1,0,0,79,79,79,0,0,0,0,,,,,,,902.1218213469501,None,0.7174992219577725,903.245844699888,None,"[87. 93. 93. 93. 87. 93. 87. 87. 93. 93. 87. 93. 93. 93. 87. 87. 87. 93.
 87. 87. 87. 93. 87. 87. 87. 87. 93. 87. 87. 93. 87. 93. 87. 93.]",904.0451642139715,None,s,1,0.8733009354150454,904.0451642139715,None,None,None,,,,,,,05_EA,23,M,5,2021_Oct_29_1343,Partial repeat,2021.2.3,120.10022263136987,
5,5,0,1,1,3,2,2,2,0,1,0,1,0,1,0,0,79,79,79,1,0,1,0,,,,,,,,,0.7468466391223494,904.9777028452891,None,"[93. 87. 93. 93. 93. 93. 87. 93. 93. 93. 87. 87. 93. 93. 93. 93. 93. 93.
 93. 93. 93. 87. 87. 87. 93. 93. 87. 93. 87. 87. 87. 93. 93. 87.]",905.8020013046553,None,l,1,0.9094897139734712,905.8020013046553,None,None,None,,,,,,,05_EA,23,M,5,2021_Oct_29_1343,Partial repeat,2021.2.3,120.10022263136987,
5,5,0,1,1,3,2,2,2,0,1,0,1,0,1,0,0,79,79,79,,,,,,,,,,,,,,,,,,,,,,,,,,,,,,,,05_EA,23,M,5,2021_Oct_29_1343,Partial repeat,2021.2.3,120.10022263136987,
5,5,0,1,1,2,2,2,2,0,1,1,1,0,1,0,0,80,80,80,0,0,0,0,,,,,,,906.7428444426769,None,0.9508076262915695,907.3006937633772,None,"[87. 93. 87. 87. 87. 93. 87. 87. 93. 87. 93. 93. 93. 87. 87. 93. 93. 87.
 87. 93. 87. 93. 87. 93. 87. 93. 93. 93. 93. 93. 87. 93. 93. 93.]",908.3414533239511,None,s,1,0.6880745803614445,908.3414533239511,None,None,None,,,,,,,05_EA,23,M,5,2021_Oct_29_1343,Partial repeat,2021.2.3,120.10022263136987,
5,5,0,1,1,2,2,2,2,0,1,1,1,0,1,0,0,80,80,80,1,0,1,0,,,,,,,,,0.9266757489303321,909.0991598638384,None,"[87. 87. 93. 87. 93. 93. 93. 93. 87. 93. 87. 93. 93. 87. 93. 87. 93. 87.
 93. 93. 87. 87. 87. 87. 93. 87. 87. 93. 93. 93. 93. 87. 87. 87.]",910.1066324445983,None,l,1,0.8427323072978652,910.1066324445983,None,None,None,,,,,,,05_EA,23,M,5,2021_Oct_29_1343,Partial repeat,2021.2.3,120.10022263136987,
5,5,0,1,1,2,2,2,2,0,1,1,1,0,1,0,0,80,80,80,,,,,,,,,,,,,,,,,,,,,,,,,,,,,,,,05_EA,23,M,5,2021_Oct_29_1343,Partial repeat,2021.2.3,120.10022263136987,
5,5,0,1,1,2,2,2,3,1,0,1,0,0,1,0,0,81,81,81,0,0,0,0,,,,,,,910.96421820449,None,0.8776399004592286,911.8551028105239,None,"[87. 87. 87. 93. 87. 93. 87. 87. 87. 93. 93. 87. 87. 87. 87. 87. 93. 93.
 93. 87. 93. 93. 87. 93. 93. 93. 87. 87. 93. 87. 93. 87. 87. 87.]",912.8209495886231,None,l,1,0.8165901409679464,912.8209495886231,None,None,None,,,,,,,05_EA,23,M,5,2021_Oct_29_1343,Partial repeat,2021.2.3,120.10022263136987,
5,5,0,1,1,2,2,2,3,1,0,1,0,0,1,0,0,81,81,81,1,0,1,0,,,,,,,,,0.8330635711300911,913.7034976167915,None,"[87. 87. 93. 87. 93. 93. 87. 87. 87. 87. 87. 87. 93. 87. 93. 93. 93. 87.
 93. 87. 87. 93. 87. 93. 93. 93. 87. 93. 87. 87. 87. 87. 93. 87.]",914.6110778283719,None,s,1,0.7235824881468034,914.6110778283719,None,None,None,,,,,,,05_EA,23,M,5,2021_Oct_29_1343,Partial repeat,2021.2.3,120.10022263136987,
5,5,0,1,1,2,2,2,3,1,0,1,0,0,1,0,0,81,81,81,,,,,,,,,,,,,,,,,,,,,,,,,,,,,,,,05_EA,23,M,5,2021_Oct_29_1343,Partial repeat,2021.2.3,120.10022263136987,
5,5,0,1,1,3,3,3,2,0,0,1,0,1,1,0,0,82,82,82,0,0,0,0,,,,,,,915.3437550712524,None,0.9185141477969004,916.1513989761606,None,"[87. 87. 93. 87. 93. 93. 87. 93. 87. 87. 93. 87. 93. 93. 93. 93. 93. 87.
 93. 87. 93. 87. 87. 93. 87. 93. 87. 93. 93. 87. 93. 93. 93. 93.]",917.1505407518634,None,s,1,0.9670359621918578,917.1505407518634,None,None,None,,,,,,,05_EA,23,M,5,2021_Oct_29_1343,Partial repeat,2021.2.3,120.10022263136987,
5,5,0,1,1,3,3,3,2,0,0,1,0,1,1,0,0,82,82,82,1,0,1,0,,,,,,,,,0.8320211149686585,918.1913230829623,None,"[93. 93. 87. 87. 93. 87. 93. 87. 87. 93. 93. 93. 93. 93. 87. 87. 87. 93.
 87. 87. 93. 87. 87. 93. 87. 87. 87. 87. 93. 93. 87. 93. 87. 87.]",919.1072001041675,None,s,1,0.7384086656561522,919.1072001041675,None,None,None,,,,,,,05_EA,23,M,5,2021_Oct_29_1343,Partial repeat,2021.2.3,120.10022263136987,
5,5,0,1,1,3,3,3,2,0,0,1,0,1,1,0,0,82,82,82,,,,,,,,,,,,,,,,,,,,,,,,,,,,,,,,05_EA,23,M,5,2021_Oct_29_1343,Partial repeat,2021.2.3,120.10022263136987,
5,5,0,1,1,2,3,3,2,1,1,0,0,1,1,0,0,83,83,83,0,0,0,0,,,,,,,919.8731845316934,None,0.9701525481940634,920.7307898549934,None,"[93. 93. 87. 93. 93. 87. 93. 93. 93. 93. 87. 93. 93. 87. 87. 87. 87. 87.
 87. 93. 93. 93. 93. 87. 87. 93. 93. 87. 87. 87. 93. 93. 87. 87.]",921.7882241748575,None,l,1,0.7934023700877333,921.7882241748575,None,None,None,,,,,,,05_EA,23,M,5,2021_Oct_29_1343,Partial repeat,2021.2.3,120.10022263136987,
5,5,0,1,1,2,3,3,2,1,1,0,0,1,1,0,0,83,83,83,1,0,1,0,,,,,,,,,0.8803511533180561,922.6541320805909,None,"[93. 87. 93. 93. 87. 87. 87. 93. 93. 87. 87. 93. 87. 93. 93. 93. 87. 87.
 93. 93. 87. 93. 87. 93. 93. 93. 87. 87. 87. 93. 93. 87. 93. 87.]",923.6116358665913,None,l,1,1.4009889317571833,923.6116358665913,None,None,None,,,,,,,05_EA,23,M,5,2021_Oct_29_1343,Partial repeat,2021.2.3,120.10022263136987,
5,5,0,1,1,2,3,3,2,1,1,0,0,1,1,0,0,83,83,83,,,,,,,,,,,,,,,,,,,,,,,,,,,,,,,,05_EA,23,M,5,2021_Oct_29_1343,Partial repeat,2021.2.3,120.10022263136987,
5,5,0,1,1,3,3,3,3,1,1,1,1,1,1,0,0,84,84,84,0,0,0,0,,,,,,,925.0354450483092,None,0.8565644867041187,925.5266411936118,None,"[87. 93. 87. 87. 93. 93. 93. 93. 87. 93. 93. 93. 93. 87. 93. 87. 93. 93.
 93. 93. 87. 87. 87. 87. 87. 93. 93. 93. 93. 93. 87. 87. 93. 93.]",926.4675228170281,None,l,1,1.5531540879787826,926.4675228170281,None,None,None,,,,,,,05_EA,23,M,5,2021_Oct_29_1343,Partial repeat,2021.2.3,120.10022263136987,
5,5,0,1,1,3,3,3,3,1,1,1,1,1,1,0,0,84,84,84,1,0,1,0,,,,,,,,,0.7888219066490625,928.0911173785289,None,"[93. 87. 87. 93. 93. 93. 93. 93. 87. 87. 87. 93. 87. 93. 87. 93. 93. 87.
 93. 93. 87. 87. 87. 87. 87. 87. 87. 87. 93. 93. 87. 87. 93. 87.]",928.9653839912307,None,l,1,1.3914467989093282,928.9653839912307,None,None,None,,,,,,,05_EA,23,M,5,2021_Oct_29_1343,Partial repeat,2021.2.3,120.10022263136987,
5,5,0,1,1,3,3,3,3,1,1,1,1,1,1,0,0,84,84,84,,,,,,,,,,,,,,,,,,,,,,,,,,,,,,,,05_EA,23,M,5,2021_Oct_29_1343,Partial repeat,2021.2.3,120.10022263136987,
5,5,0,1,1,2,2,3,2,0,1,1,0,0,1,0,0,85,85,85,0,0,0,0,,,,,,,930.3724927567282,None,0.7737278014437583,930.9386469048441,None,"[87. 93. 87. 87. 93. 87. 93. 93. 93. 87. 87. 93. 87. 93. 93. 93. 93. 87.
 87. 93. 93. 93. 87. 87. 93. 93. 93. 93. 87. 93. 87. 87. 93. 87.]",931.7879429107661,None,s,1,0.7127937492309684,931.7879429107661,None,None,None,,,,,,,05_EA,23,M,5,2021_Oct_29_1343,Partial repeat,2021.2.3,120.10022263136987,
5,5,0,1,1,2,2,3,2,0,1,1,0,0,1,0,0,85,85,85,1,0,1,0,,,,,,,,,0.7501324032873575,932.5705886276946,None,"[93. 87. 87. 93. 87. 93. 87. 87. 93. 93. 87. 87. 87. 87. 93. 93. 87. 87.
 87. 93. 93. 93. 87. 93. 87. 93. 93. 93. 93. 93. 87. 93. 87. 93.]",933.4032220613672,None,l,1,0.9695153837315047,933.4032220613672,None,None,None,,,,,,,05_EA,23,M,5,2021_Oct_29_1343,Partial repeat,2021.2.3,120.10022263136987,
5,5,0,1,1,2,2,3,2,0,1,1,0,0,1,0,0,85,85,85,,,,,,,,,,,,,,,,,,,,,,,,,,,,,,,,05_EA,23,M,5,2021_Oct_29_1343,Partial repeat,2021.2.3,120.10022263136987,
5,5,0,1,1,3,2,3,2,0,0,0,0,1,1,0,0,86,86,86,0,0,0,0,,,,,,,934.3856807392785,None,0.9184359997181046,935.0934418963552,None,"[93. 93. 93. 93. 87. 93. 87. 93. 87. 93. 87. 87. 93. 93. 87. 87. 93. 87.
 93. 93. 93. 87. 87. 93. 87. 87. 93. 93. 87. 93. 87. 93. 93. 93.]",936.092552563031,None,s,1,0.8562070060374936,936.092552563031,None,None,None,,,,,,,05_EA,23,M,5,2021_Oct_29_1343,Partial repeat,2021.2.3,120.10022263136987,
5,5,0,1,1,3,2,3,2,0,0,0,0,1,1,0,0,86,86,86,1,0,1,0,,,,,,,,,0.8575906999781175,937.0084334327757,None,"[87. 93. 87. 87. 87. 87. 93. 87. 87. 93. 87. 93. 93. 87. 93. 87. 87. 87.
 93. 93. 93. 87. 93. 93. 93. 93. 87. 87. 87. 87. 93. 87. 87. 93.]",937.9492932478015,None,s,1,0.7588033590332088,937.9492932478015,None,None,None,,,,,,,05_EA,23,M,5,2021_Oct_29_1343,Partial repeat,2021.2.3,120.10022263136987,
5,5,0,1,1,3,2,3,2,0,0,0,0,1,1,0,0,86,86,86,,,,,,,,,,,,,,,,,,,,,,,,,,,,,,,,05_EA,23,M,5,2021_Oct_29_1343,Partial repeat,2021.2.3,120.10022263136987,
5,5,0,1,1,2,2,2,2,0,0,1,1,1,1,0,0,87,87,87,0,0,0,0,,,,,,,938.7319588488508,None,0.9921710444068934,939.5062830613588,None,"[87. 87. 87. 87. 87. 87. 87. 93. 93. 87. 87. 93. 93. 93. 87. 93. 93. 93.
 87. 93. 93. 93. 93. 93. 93. 87. 93. 93. 93. 87. 93. 87. 93. 87.]",940.5886947229465,None,s,1,0.5991361165829403,940.5886947229465,None,None,None,,,,,,,05_EA,23,M,5,2021_Oct_29_1343,Partial repeat,2021.2.3,120.10022263136987,
5,5,0,1,1,2,2,2,2,0,0,1,1,1,1,0,0,87,87,87,1,0,1,0,,,,,,,,,0.8705990920929149,941.2547579172478,None,"[87. 93. 93. 87. 87. 93. 87. 93. 87. 93. 93. 93. 87. 87. 87. 93. 93. 93.
 87. 87. 87. 87. 87. 87. 87. 93. 87. 87. 93. 87. 93. 87. 87. 87.]",942.2122908880056,None,s,1,0.687521032103632,942.2122908880056,None,None,None,,,,,,,05_EA,23,M,5,2021_Oct_29_1343,Partial repeat,2021.2.3,120.10022263136987,
5,5,0,1,1,2,2,2,2,0,0,1,1,1,1,0,0,87,87,87,,,,,,,,,,,,,,,,,,,,,,,,,,,,,,,,05_EA,23,M,5,2021_Oct_29_1343,Partial repeat,2021.2.3,120.10022263136987,
5,5,0,1,1,3,2,3,2,0,1,0,0,0,1,0,0,88,88,88,0,0,0,0,,,,,,,942.9283389126467,None,0.9909175925390744,944.51030638864,None,"[93. 93. 87. 93. 87. 87. 93. 87. 87. 87. 93. 87. 93. 87. 87. 87. 93. 87.
 93. 93. 87. 87. 93. 87. 87. 87. 87. 87. 93. 93. 93. 87. 87. 87.]",945.5843805102268,None,s,1,0.8194762248417646,945.5843805102268,None,None,None,,,,,,,05_EA,23,M,5,2021_Oct_29_1343,Partial repeat,2021.2.3,120.10022263136987,
5,5,0,1,1,3,2,3,2,0,1,0,0,0,1,0,0,88,88,88,1,0,1,0,,,,,,,,,0.9293261928336625,946.4669541953253,None,"[93. 87. 93. 87. 93. 93. 93. 93. 93. 87. 93. 87. 93. 93. 87. 93. 93. 93.
 87. 93. 93. 87. 87. 93. 87. 87. 93. 93. 87. 87. 93. 93. 87. 87.]",947.4827341691935,None,l,1,0.9531247749368958,947.4827341691935,None,None,None,,,,,,,05_EA,23,M,5,2021_Oct_29_1343,Partial repeat,2021.2.3,120.10022263136987,
5,5,0,1,1,3,2,3,2,0,1,0,0,0,1,0,0,88,88,88,,,,,,,,,,,,,,,,,,,,,,,,,,,,,,,,05_EA,23,M,5,2021_Oct_29_1343,Partial repeat,2021.2.3,120.10022263136987,
5,5,0,1,1,2,3,2,3,1,1,0,0,1,1,0,0,89,89,89,0,0,0,0,,,,,,,948.448577740176,None,0.9010854409849405,949.1562984875882,None,"[87. 87. 87. 93. 93. 93. 93. 87. 93. 87. 87. 87. 87. 93. 87. 93. 87. 87.
 93. 87. 93. 93. 87. 87. 93. 87. 87. 93. 93. 87. 87. 87. 93. 87.]",950.1387783324662,None,l,1,1.017130155194991,950.1387783324662,None,None,None,,,,,,,05_EA,23,M,5,2021_Oct_29_1343,Partial repeat,2021.2.3,120.10022263136987,
5,5,0,1,1,2,3,2,3,1,1,0,0,1,1,0,0,89,89,89,1,0,1,0,,,,,,,,,0.7409689716015944,951.2211832591101,None,"[93. 93. 87. 93. 87. 93. 87. 87. 87. 87. 93. 87. 87. 87. 93. 87. 93. 93.
 87. 93. 87. 93. 87. 87. 93. 87. 93. 93. 93. 87. 87. 93. 93. 87.]",952.0371512341308,None,l,1,1.2474168136564003,952.0371512341308,None,None,None,,,,,,,05_EA,23,M,5,2021_Oct_29_1343,Partial repeat,2021.2.3,120.10022263136987,
5,5,0,1,1,2,3,2,3,1,1,0,0,1,1,0,0,89,89,89,,,,,,,,,,,,,,,,,,,,,,,,,,,,,,,,05_EA,23,M,5,2021_Oct_29_1343,Partial repeat,2021.2.3,120.10022263136987,
5,5,0,1,1,2,2,3,3,0,1,1,1,0,1,0,0,90,90,90,0,0,0,0,,,,,,,953.3110565972629,None,0.8895963781977132,954.0770621917563,None,"[87. 87. 87. 87. 93. 93. 87. 93. 93. 87. 87. 93. 87. 93. 93. 93. 87. 87.
 87. 87. 87. 87. 93. 93. 93. 87. 87. 87. 93. 87. 93. 87. 87. 87.]",955.051222777196,None,s,1,0.7277591155830123,955.051222777196,None,None,None,,,,,,,05_EA,23,M,5,2021_Oct_29_1343,Partial repeat,2021.2.3,120.10022263136987,
5,5,0,1,1,2,2,3,3,0,1,1,1,0,1,0,0,90,90,90,1,0,1,0,,,,,,,,,0.938978342058785,955.8421951299297,None,"[87. 93. 93. 87. 93. 93. 93. 93. 87. 93. 87. 87. 87. 87. 93. 93. 93. 87.
 87. 87. 87. 87. 93. 93. 93. 87. 87. 93. 87. 93. 87. 93. 87. 93.]",956.8663261136871,None,l,1,0.944636500474644,956.8663261136871,None,None,None,,,,,,,05_EA,23,M,5,2021_Oct_29_1343,Partial repeat,2021.2.3,120.10022263136987,
5,5,0,1,1,2,2,3,3,0,1,1,1,0,1,0,0,90,90,90,,,,,,,,,,,,,,,,,,,,,,,,,,,,,,,,05_EA,23,M,5,2021_Oct_29_1343,Partial repeat,2021.2.3,120.10022263136987,
5,5,0,1,1,2,2,2,3,0,0,1,0,1,1,0,0,91,91,91,0,0,0,0,,,,,,,957.8404873405498,None,0.8166681933056024,958.5315602684486,None,"[87. 93. 93. 93. 87. 87. 93. 87. 87. 87. 93. 87. 87. 93. 87. 93. 93. 93.
 87. 87. 87. 93. 87. 93. 87. 87. 87. 93. 87. 87. 93. 93. 87. 93.]",959.4224702107012,None,s,1,1.0925272122162824,959.4224702107012,None,None,None,,,,,,,05_EA,23,M,5,2021_Oct_29_1343,Partial repeat,2021.2.3,120.10022263136987,
5,5,0,1,1,2,2,2,3,0,0,1,0,1,1,0,0,91,91,91,1,0,1,0,,,,,,,,,0.7303324958454861,960.5797994654376,None,"[93. 93. 93. 87. 93. 87. 93. 87. 93. 93. 87. 87. 87. 87. 87. 93. 93. 93.
 87. 93. 93. 93. 93. 87. 87. 87. 87. 87. 87. 93. 87. 87. 93. 93.]",961.3957639126302,None,s,1,0.6712465209170659,961.3957639126302,None,None,None,,,,,,,05_EA,23,M,5,2021_Oct_29_1343,Partial repeat,2021.2.3,120.10022263136987,
5,5,0,1,1,2,2,2,3,0,0,1,0,1,1,0,0,91,91,91,,,,,,,,,,,,,,,,,,,,,,,,,,,,,,,,05_EA,23,M,5,2021_Oct_29_1343,Partial repeat,2021.2.3,120.10022263136987,
5,5,0,1,1,3,3,3,2,0,1,1,0,0,1,0,0,92,92,92,0,0,0,0,,,,,,,962.086832671278,None,0.954404086140316,963.4273418202183,None,"[87. 93. 87. 87. 93. 87. 93. 87. 93. 87. 87. 87. 93. 87. 87. 93. 87. 87.
 93. 93. 93. 93. 87. 87. 93. 87. 87. 93. 93. 93. 87. 93. 87. 87.]",964.468112284987,None,s,1,1.3269353357140972,964.468112284987,None,None,None,,,,,,,05_EA,23,M,5,2021_Oct_29_1343,Partial repeat,2021.2.3,120.10022263136987,
5,5,0,1,1,3,3,3,2,0,1,1,0,0,1,0,0,92,92,92,1,0,1,0,,,,,,,,,0.8626173475270592,965.8585777209337,None,"[93. 87. 93. 87. 87. 93. 93. 93. 87. 87. 93. 93. 93. 87. 87. 87. 87. 87.
 87. 93. 87. 87. 93. 87. 93. 87. 87. 87. 87. 93. 87. 93. 87. 87.]",966.7994570993687,None,l,1,0.9156319829303357,966.7994570993687,None,None,None,,,,,,,05_EA,23,M,5,2021_Oct_29_1343,Partial repeat,2021.2.3,120.10022263136987,
5,5,0,1,1,3,3,3,2,0,1,1,0,0,1,0,0,92,92,92,,,,,,,,,,,,,,,,,,,,,,,,,,,,,,,,05_EA,23,M,5,2021_Oct_29_1343,Partial repeat,2021.2.3,120.10022263136987,
5,5,0,1,1,3,3,3,3,1,0,1,1,0,1,0,0,93,93,93,0,0,0,0,,,,,,,967.7319598109852,None,0.8491717058993754,968.2648465426964,None,"[87. 93. 87. 93. 87. 93. 87. 87. 87. 93. 87. 87. 87. 93. 87. 87. 87. 87.
 87. 93. 87. 87. 93. 93. 87. 87. 93. 93. 87. 93. 87. 87. 93. 93.]",969.1973633656244,None,l,1,1.6528428052802155,969.1973633656244,None,None,None,,,,,,,05_EA,23,M,5,2021_Oct_29_1343,Partial repeat,2021.2.3,120.10022263136987,
5,5,0,1,1,3,3,3,3,1,0,1,1,0,1,0,0,93,93,93,1,0,1,0,,,,,,,,,0.9949442082614832,970.9125615044713,None,"[87. 93. 87. 93. 93. 93. 93. 87. 87. 87. 93. 93. 93. 87. 87. 87. 93. 87.
 93. 87. 93. 93. 87. 93. 93. 93. 93. 93. 93. 93. 93. 93. 87. 93.]",971.9949532819383,None,s,1,0.9191254946131266,971.9949532819383,None,None,None,,,,,,,05_EA,23,M,5,2021_Oct_29_1343,Partial repeat,2021.2.3,120.10022263136987,
5,5,0,1,1,3,3,3,3,1,0,1,1,0,1,0,0,93,93,93,,,,,,,,,,,,,,,,,,,,,,,,,,,,,,,,05_EA,23,M,5,2021_Oct_29_1343,Partial repeat,2021.2.3,120.10022263136987,
5,5,0,1,1,3,2,3,3,0,1,0,1,0,1,0,0,94,94,94,0,0,0,0,,,,,,,972.9441400534815,None,0.7859638424825208,973.5852493180064,None,"[87. 93. 93. 87. 93. 93. 93. 87. 87. 87. 87. 87. 87. 93. 87. 93. 87. 87.
 87. 93. 93. 87. 93. 87. 87. 93. 93. 93. 87. 93. 87. 87. 87. 93.]",974.4511777492844,None,s,1,1.2151673359344386,974.4511777492844,None,None,None,,,,,,,05_EA,23,M,5,2021_Oct_29_1343,Partial repeat,2021.2.3,120.10022263136987,
5,5,0,1,1,3,2,3,3,0,1,0,1,0,1,0,0,94,94,94,1,0,1,0,,,,,,,,,0.9175348975288574,975.7250667561239,None,"[87. 93. 93. 93. 87. 93. 87. 93. 87. 87. 87. 93. 87. 87. 93. 93. 93. 93.
 93. 93. 93. 93. 87. 93. 93. 87. 87. 93. 87. 93. 87. 87. 87. 87.]",976.7325425440004,None,l,1,0.6616007982152041,976.7325425440004,None,None,None,,,,,,,05_EA,23,M,5,2021_Oct_29_1343,Partial repeat,2021.2.3,120.10022263136987,
5,5,0,1,1,3,2,3,3,0,1,0,1,0,1,0,0,94,94,94,,,,,,,,,,,,,,,,,,,,,,,,,,,,,,,,05_EA,23,M,5,2021_Oct_29_1343,Partial repeat,2021.2.3,120.10022263136987,
5,5,0,1,1,2,3,2,2,0,0,0,1,1,1,0,0,95,95,95,0,0,0,0,,,,,,,977.4152885153808,None,0.8280536471561804,977.8649066440539,None,"[93. 87. 87. 87. 93. 87. 93. 93. 93. 87. 93. 93. 93. 93. 87. 87. 93. 87.
 87. 87. 87. 93. 87. 93. 87. 93. 87. 93. 87. 93. 93. 87. 87. 87.]",978.7807685918133,None,s,1,0.6453846565432286,978.7807685918133,None,None,None,,,,,,,05_EA,23,M,5,2021_Oct_29_1343,Partial repeat,2021.2.3,120.10022263136987,
5,5,0,1,1,2,3,2,2,0,0,0,1,1,1,0,0,95,95,95,1,0,1,0,,,,,,,,,0.8535948493406724,979.4801614205726,None,"[93. 87. 87. 87. 93. 87. 87. 93. 87. 87. 93. 93. 87. 93. 87. 87. 87. 93.
 87. 87. 87. 93. 87. 87. 93. 87. 87. 93. 87. 93. 93. 87. 87. 87.]",980.4210282912545,None,s,1,0.653145557049811,980.4210282912545,None,None,None,,,,,,,05_EA,23,M,5,2021_Oct_29_1343,Partial repeat,2021.2.3,120.10022263136987,
5,5,0,1,1,2,3,2,2,0,0,0,1,1,1,0,0,95,95,95,,,,,,,,,,,,,,,,,,,,,,,,,,,,,,,,05_EA,23,M,5,2021_Oct_29_1343,Partial repeat,2021.2.3,120.10022263136987,
5,5,0,1,1,2,3,3,2,0,0,0,0,1,1,0,0,96,96,96,0,0,0,0,,,,,,,981.1037890153702,None,0.9306554072856545,982.0030063507311,None,"[93. 87. 93. 93. 93. 93. 87. 93. 93. 87. 93. 87. 87. 87. 93. 93. 93. 87.
 87. 93. 93. 93. 87. 87. 87. 87. 87. 93. 87. 87. 93. 87. 93. 93.]",983.018800756623,None,s,1,0.647406743310512,983.018800756623,None,None,None,,,,,,,05_EA,23,M,5,2021_Oct_29_1343,Partial repeat,2021.2.3,120.10022263136987,
5,5,0,1,1,2,3,3,2,0,0,0,0,1,1,0,0,96,96,96,1,0,1,0,,,,,,,,,0.9827279212381194,983.7265170140718,None,"[87. 87. 87. 87. 93. 93. 93. 87. 93. 93. 87. 93. 87. 87. 93. 87. 93. 87.
 93. 87. 93. 93. 93. 87. 87. 87. 87. 93. 93. 93. 87. 87. 87. 93.]",984.7839340155087,None,s,1,1.3453714432239394,984.7839340155087,None,None,None,,,,,,,05_EA,23,M,5,2021_Oct_29_1343,Partial repeat,2021.2.3,120.10022263136987,
5,5,0,1,1,2,3,3,2,0,0,0,0,1,1,0,0,96,96,96,,,,,,,,,,,,,,,,,,,,,,,,,,,,,,,,05_EA,23,M,5,2021_Oct_29_1343,Partial repeat,2021.2.3,120.10022263136987,
5,5,0,1,1,2,2,2,3,0,1,1,0,0,1,0,0,97,97,97,0,0,0,0,,,,,,,986.1494294860977,None,0.8136528510047157,986.8488191077422,None,"[87. 93. 87. 93. 93. 93. 93. 93. 93. 93. 93. 93. 93. 93. 93. 93. 87. 93.
 93. 93. 93. 87. 93. 93. 87. 87. 93. 93. 93. 87. 87. 87. 87. 87.]",987.7480428573353,None,s,1,1.021216021240889,987.7480428573353,None,None,None,,,,,,,05_EA,23,M,5,2021_Oct_29_1343,Partial repeat,2021.2.3,120.10022263136987,
5,5,0,1,1,2,2,2,3,0,1,1,0,0,1,0,0,97,97,97,1,0,1,0,,,,,,,,,0.7547070784209794,988.8387801925937,None,"[87. 93. 87. 87. 87. 87. 93. 93. 87. 93. 87. 93. 87. 87. 87. 93. 93. 93.
 93. 87. 93. 87. 87. 93. 93. 93. 93. 93. 87. 93. 87. 87. 93. 87.]",989.6714007978026,None,l,1,3.193888440619503,989.6714007978026,None,None,None,,,,,,,05_EA,23,M,5,2021_Oct_29_1343,Partial repeat,2021.2.3,120.10022263136987,
5,5,0,1,1,2,2,2,3,0,1,1,0,0,1,0,0,97,97,97,,,,,,,,,,,,,,,,,,,,,,,,,,,,,,,,05_EA,23,M,5,2021_Oct_29_1343,Partial repeat,2021.2.3,120.10022263136987,
5,5,0,1,1,2,3,2,3,1,0,0,0,0,1,0,0,98,98,98,0,0,0,0,,,,,,,992.8936167483307,None,0.7833439724265168,993.7512150159746,None,"[87. 87. 87. 87. 93. 93. 87. 93. 87. 87. 93. 93. 87. 87. 87. 87. 87. 93.
 87. 87. 93. 93. 87. 93. 87. 87. 87. 87. 93. 93. 93. 93. 87. 87.]",994.625466875942,None,l,1,2.095876082959421,994.625466875942,None,None,None,,,,,,,05_EA,23,M,5,2021_Oct_29_1343,Partial repeat,2021.2.3,120.10022263136987,
5,5,0,1,1,2,3,2,3,1,0,0,0,0,1,0,0,98,98,98,1,0,1,0,,,,,,,,,0.7824295671942111,996.7819353406885,None,"[87. 93. 93. 93. 93. 93. 93. 93. 87. 87. 93. 87. 87. 87. 87. 87. 87. 93.
 87. 93. 87. 87. 87. 93. 87. 93. 87. 87. 93. 93. 87. 87. 93. 87.]",997.6478563955989,None,s,1,0.866512111830616,997.6478563955989,None,None,None,,,,,,,05_EA,23,M,5,2021_Oct_29_1343,Partial repeat,2021.2.3,120.10022263136987,
5,5,0,1,1,2,3,2,3,1,0,0,0,0,1,0,0,98,98,98,,,,,,,,,,,,,,,,,,,,,,,,,,,,,,,,05_EA,23,M,5,2021_Oct_29_1343,Partial repeat,2021.2.3,120.10022263136987,
5,5,0,1,1,3,3,2,3,1,1,1,0,1,1,0,0,99,99,99,0,0,0,0,,,,,,,998.5304262321579,None,0.9675080112228305,999.3214088476643,None,"[93. 93. 93. 93. 93. 93. 93. 87. 93. 93. 93. 87. 93. 87. 93. 93. 87. 87.
 87. 93. 87. 93. 93. 93. 87. 87. 93. 93. 87. 87. 93. 87. 87. 93.]",1000.3788377154297,None,l,1,1.0616157433773878,1000.3788377154297,None,None,None,,,,,,,05_EA,23,M,5,2021_Oct_29_1343,Partial repeat,2021.2.3,120.10022263136987,
5,5,0,1,1,3,3,2,3,1,1,1,0,1,1,0,0,99,99,99,1,0,1,0,,,,,,,,,0.9465032274937311,1001.5111883455966,None,"[93. 87. 87. 93. 93. 93. 87. 87. 93. 87. 93. 93. 87. 87. 87. 87. 87. 87.
 93. 87. 87. 87. 87. 93. 87. 93. 93. 93. 87. 87. 87. 87. 93. 87.]",1002.5436433994664,None,l,1,1.168752346643032,1002.5436433994664,None,None,None,,,,,,,05_EA,23,M,5,2021_Oct_29_1343,Partial repeat,2021.2.3,120.10022263136987,
5,5,0,1,1,3,3,2,3,1,1,1,0,1,1,0,0,99,99,99,,,,,,,,,,,,,,,,,,,,,,,,,,,,,,,,05_EA,23,M,5,2021_Oct_29_1343,Partial repeat,2021.2.3,120.10022263136987,
5,5,0,1,1,3,2,2,3,1,1,0,0,1,1,0,0,100,100,100,0,0,0,0,,,,,,,1003.7426023054031,None,0.829124845536646,1004.4586577064119,None,"[93. 87. 87. 87. 87. 93. 87. 93. 93. 87. 87. 93. 87. 93. 87. 87. 93. 93.
 87. 87. 93. 93. 87. 93. 87. 87. 93. 93. 87. 87. 87. 93. 87. 93.]",1005.3745032978777,None,l,1,1.9216174239059,1005.3745032978777,None,None,None,,,,,,,05_EA,23,M,5,2021_Oct_29_1343,Partial repeat,2021.2.3,120.10022263136987,
5,5,0,1,1,3,2,2,3,1,1,0,0,1,1,0,0,100,100,100,1,0,1,0,,,,,,,,,0.8803768888179397,1007.356165969547,None,"[87. 87. 93. 93. 93. 87. 87. 87. 87. 93. 87. 93. 87. 93. 93. 87. 93. 93.
 87. 87. 93. 93. 93. 93. 87. 87. 93. 93. 87. 93. 93. 87. 93. 87.]",1008.3219989570462,None,l,1,1.4705432644745997,1008.3219989570462,None,None,None,,,,,,,05_EA,23,M,5,2021_Oct_29_1343,Partial repeat,2021.2.3,120.10022263136987,
5,5,0,1,1,3,2,2,3,1,1,0,0,1,1,0,0,100,100,100,,,,,,,,,,,,,,,,,,,,,,,,,,,,,,,,05_EA,23,M,5,2021_Oct_29_1343,Partial repeat,2021.2.3,120.10022263136987,
5,5,0,1,1,2,2,3,2,0,0,1,0,1,1,0,0,101,101,101,0,0,0,0,,,,,,,1009.8206930193264,None,0.946051239605507,1010.4701561801448,None,"[93. 87. 93. 93. 93. 93. 93. 93. 93. 87. 93. 87. 87. 93. 93. 87. 93. 93.
 87. 87. 93. 93. 93. 87. 87. 93. 93. 87. 87. 87. 87. 93. 93. 87.]",1011.502589425625,None,s,1,0.7059013357925323,1011.502589425625,None,None,None,,,,,,,05_EA,23,M,5,2021_Oct_29_1343,Partial repeat,2021.2.3,120.10022263136987,
5,5,0,1,1,2,2,3,2,0,0,1,0,1,1,0,0,101,101,101,1,0,1,0,,,,,,,,,0.7827115821264452,1012.2769107517288,None,"[87. 93. 93. 93. 87. 93. 87. 93. 87. 93. 87. 87. 93. 93. 93. 87. 93. 87.
 87. 93. 93. 87. 87. 93. 87. 87. 93. 93. 93. 87. 93. 87. 93. 93.]",1013.1345013222945,None,s,1,0.866043872865248,1013.1345013222945,None,None,None,,,,,,,05_EA,23,M,5,2021_Oct_29_1343,Partial repeat,2021.2.3,120.10022263136987,
5,5,0,1,1,2,2,3,2,0,0,1,0,1,1,0,0,101,101,101,,,,,,,,,,,,,,,,,,,,,,,,,,,,,,,,05_EA,23,M,5,2021_Oct_29_1343,Partial repeat,2021.2.3,120.10022263136987,
