prime_tar_pos,probe_tar_pos,dimension,tar_color,tar_shape,prime_dist_color,probe_dist_color,prime_dist_shape,probe_dist_shape,prime_tar_ori,probe_tar_ori,col_rep,shape_rep,resp_rep,pos_fixed,sparse,MainLoop.thisRepN,MainLoop.thisTrialN,MainLoop.thisN,MainLoop.thisIndex,PrimeProbe.thisRepN,PrimeProbe.thisTrialN,PrimeProbe.thisN,PrimeProbe.thisIndex,Instruction.started,Instruction.stopped,instruction_key.keys,instruction_key.rt,instruction_key.started,instruction_key.stopped,PairStartText.started,PairStartText.stopped,fixdur,FixCross.started,FixCross.stopped,dist_ori,SearchFixCross.started,SearchFixCross.stopped,key_resp.keys,key_resp.corr,key_resp.rt,key_resp.started,key_resp.stopped,feedback_text.started,feedback_text.stopped,text_finish.started,text_finish.stopped,finish_key.keys,finish_key.rt,finish_key.started,finish_key.stopped,participant,age,gender,group,date,expName,psychopyVersion,frameRate,
,,,,,,,,,,,,,,,,,,,,,,,,52.16894510892325,None,space,12.239511463494637,52.16894510892325,None,,,,,,,,,,,,,,,,,,,,,,06_GA,26,F,6,2021_Nov_11_1413,Partial repeat,2021.2.3,120.09883485793212,
8,8,0,1,1,2,3,2,3,1,1,0,0,1,1,0,0,0,0,0,0,0,0,0,,,,,,,208.05222115247125,None,0.8711311776851273,212.8470561559634,None,"[93. 93. 87. 87. 87. 93. 87. 87. 93. 87. 87. 93. 93. 93. 87. 93. 87. 93.
 87. 87. 87. 93. 87. 87. 87. 93. 87. 93. 93. 87. 87. 93. 87. 93.]",213.80457758110333,None,l,1,1.011279283676231,213.80457758110333,None,None,None,,,,,,,06_GA,26,F,6,2021_Nov_11_1413,Partial repeat,2021.2.3,120.09883485793212,
8,8,0,1,1,2,3,2,3,1,1,0,0,1,1,0,0,0,0,0,1,0,1,0,,,,,,,,,0.8027200156629247,214.88695973722224,None,"[93. 87. 87. 87. 87. 93. 93. 93. 87. 87. 87. 93. 93. 87. 93. 87. 93. 87.
 93. 87. 93. 93. 93. 87. 93. 93. 93. 93. 87. 93. 87. 87. 93. 93.]",215.76957158700316,None,l,1,0.9660919784682847,215.76957158700316,None,None,None,,,,,,,06_GA,26,F,6,2021_Nov_11_1413,Partial repeat,2021.2.3,120.09883485793212,
8,8,0,1,1,2,3,2,3,1,1,0,0,1,1,0,0,0,0,0,,,,,,,,,,,,,,,,,,,,,,,,,,,,,,,,06_GA,26,F,6,2021_Nov_11_1413,Partial repeat,2021.2.3,120.09883485793212,
8,8,0,1,1,2,2,2,2,1,1,1,1,1,1,0,0,1,1,1,0,0,0,0,,,,,,,216.7520341134541,None,0.9084365970690982,217.66791530390947,None,"[93. 87. 93. 87. 87. 87. 93. 93. 93. 93. 87. 87. 87. 87. 93. 87. 87. 87.
 93. 93. 87. 87. 87. 93. 87. 93. 87. 93. 93. 87. 93. 93. 87. 87.]",218.65872723669145,None,l,1,0.8291740941122043,218.65872723669145,None,None,None,,,,,,,06_GA,26,F,6,2021_Nov_11_1413,Partial repeat,2021.2.3,120.09883485793212,
8,8,0,1,1,2,2,2,2,1,1,1,1,1,1,0,0,1,1,1,1,0,1,0,,,,,,,,,0.8825912197461462,219.54962274692116,None,"[87. 87. 87. 93. 87. 93. 87. 87. 87. 87. 87. 87. 93. 93. 87. 93. 87. 93.
 93. 93. 87. 93. 87. 93. 93. 87. 87. 87. 93. 87. 87. 87. 87. 93.]",220.51545797940162,None,l,1,0.9714991763912622,220.51545797940162,None,None,None,,,,,,,06_GA,26,F,6,2021_Nov_11_1413,Partial repeat,2021.2.3,120.09883485793212,
8,8,0,1,1,2,2,2,2,1,1,1,1,1,1,0,0,1,1,1,,,,,,,,,,,,,,,,,,,,,,,,,,,,,,,,06_GA,26,F,6,2021_Nov_11_1413,Partial repeat,2021.2.3,120.09883485793212,
8,8,0,1,1,3,2,3,3,1,1,0,1,1,1,0,0,2,2,2,0,0,0,0,,,,,,,221.49793718285673,None,0.9313244479288563,222.78848330984692,None,"[87. 93. 87. 87. 93. 93. 87. 93. 93. 87. 93. 93. 93. 87. 93. 87. 87. 87.
 87. 93. 93. 87. 87. 87. 93. 87. 87. 87. 93. 93. 87. 87. 93. 93.]",223.79595396633704,None,l,1,1.0669993999272265,223.79595396633704,None,None,None,,,,,,,06_GA,26,F,6,2021_Nov_11_1413,Partial repeat,2021.2.3,120.09883485793212,
8,8,0,1,1,3,2,3,3,1,1,0,1,1,1,0,0,2,2,2,1,0,1,0,,,,,,,,,0.9482777374982985,224.91999463770208,None,"[93. 93. 87. 87. 87. 93. 93. 93. 87. 87. 93. 93. 87. 93. 87. 87. 87. 93.
 87. 87. 87. 87. 87. 93. 87. 87. 93. 87. 87. 87. 87. 87. 93. 93.]",225.95244488089793,None,l,1,0.8465322898664454,225.95244488089793,None,None,None,,,,,,,06_GA,26,F,6,2021_Nov_11_1413,Partial repeat,2021.2.3,120.09883485793212,
8,8,0,1,1,3,2,3,3,1,1,0,1,1,1,0,0,2,2,2,,,,,,,,,,,,,,,,,,,,,,,,,,,,,,,,06_GA,26,F,6,2021_Nov_11_1413,Partial repeat,2021.2.3,120.09883485793212,
8,8,0,1,1,3,2,2,3,0,1,0,0,0,1,0,0,3,3,3,0,0,0,0,,,,,,,226.81835695588234,None,0.8840453840765271,227.65097435397456,None,"[93. 93. 93. 93. 93. 87. 93. 93. 87. 93. 93. 87. 87. 93. 93. 87. 93. 87.
 87. 87. 87. 93. 93. 87. 87. 93. 93. 87. 93. 93. 87. 87. 87. 87.]",228.61679355087472,None,s,1,1.1101954066834878,228.61679355087472,None,None,None,,,,,,,06_GA,26,F,6,2021_Nov_11_1413,Partial repeat,2021.2.3,120.09883485793212,
8,8,0,1,1,3,2,2,3,0,1,0,0,0,1,0,0,3,3,3,1,0,1,0,,,,,,,,,0.9513256309359217,229.7824696462494,None,"[93. 93. 87. 93. 87. 87. 87. 93. 87. 93. 87. 87. 93. 87. 87. 93. 87. 87.
 93. 93. 93. 93. 87. 87. 93. 93. 93. 87. 93. 93. 87. 93. 93. 93.]",230.81490674026827,None,l,1,1.6481198765304725,230.81490674026827,None,None,None,,,,,,,06_GA,26,F,6,2021_Nov_11_1413,Partial repeat,2021.2.3,120.09883485793212,
8,8,0,1,1,3,2,2,3,0,1,0,0,0,1,0,0,3,3,3,,,,,,,,,,,,,,,,,,,,,,,,,,,,,,,,06_GA,26,F,6,2021_Nov_11_1413,Partial repeat,2021.2.3,120.09883485793212,
8,8,0,1,1,3,3,3,2,1,0,1,0,0,1,0,0,4,4,4,0,0,0,0,,,,,,,232.4718213148799,None,0.7916128513389098,233.1378950926637,None,"[87. 93. 87. 87. 93. 93. 87. 93. 93. 93. 93. 87. 87. 87. 93. 93. 93. 93.
 93. 87. 87. 93. 93. 87. 93. 93. 93. 87. 93. 87. 93. 87. 87. 87.]",234.00383218315528,None,l,1,0.8432087553419478,234.00383218315528,None,None,None,,,,,,,06_GA,26,F,6,2021_Nov_11_1413,Partial repeat,2021.2.3,120.09883485793212,
8,8,0,1,1,3,3,3,2,1,0,1,0,0,1,0,0,4,4,4,1,0,1,0,,,,,,,,,0.9542496315479707,234.91138449282334,None,"[93. 93. 87. 87. 87. 87. 87. 87. 93. 87. 87. 87. 93. 93. 93. 93. 93. 93.
 87. 87. 87. 87. 93. 87. 87. 87. 87. 87. 93. 93. 93. 93. 87. 93.]",235.94382768036394,None,s,1,0.8392338555158858,235.94382768036394,None,None,None,,,,,,,06_GA,26,F,6,2021_Nov_11_1413,Partial repeat,2021.2.3,120.09883485793212,
8,8,0,1,1,3,3,3,2,1,0,1,0,0,1,0,0,4,4,4,,,,,,,,,,,,,,,,,,,,,,,,,,,,,,,,06_GA,26,F,6,2021_Nov_11_1413,Partial repeat,2021.2.3,120.09883485793212,
8,8,0,1,1,3,2,2,3,0,0,0,0,1,1,0,0,5,5,5,0,0,0,0,,,,,,,236.79308552160273,None,0.9251721754449851,237.58404536658327,None,"[93. 93. 93. 87. 87. 87. 87. 87. 87. 87. 87. 87. 87. 87. 87. 93. 93. 93.
 93. 87. 93. 93. 87. 87. 87. 93. 87. 93. 87. 93. 87. 93. 93. 87.]",238.58320446071411,None,s,1,0.7591002085700893,238.58320446071411,None,None,None,,,,,,,06_GA,26,F,6,2021_Nov_11_1413,Partial repeat,2021.2.3,120.09883485793212,
8,8,0,1,1,3,2,2,3,0,0,0,0,1,1,0,0,5,5,5,1,0,1,0,,,,,,,,,0.8354257809921191,239.41579780543452,None,"[93. 87. 87. 93. 87. 93. 87. 93. 93. 93. 93. 87. 93. 87. 93. 87. 93. 93.
 87. 93. 87. 93. 87. 93. 93. 87. 87. 87. 93. 93. 87. 87. 93. 93.]",240.33170272855023,None,s,1,0.8984336928515404,240.33170272855023,None,None,None,,,,,,,06_GA,26,F,6,2021_Nov_11_1413,Partial repeat,2021.2.3,120.09883485793212,
8,8,0,1,1,3,2,2,3,0,0,0,0,1,1,0,0,5,5,5,,,,,,,,,,,,,,,,,,,,,,,,,,,,,,,,06_GA,26,F,6,2021_Nov_11_1413,Partial repeat,2021.2.3,120.09883485793212,
8,8,0,1,1,3,2,2,2,1,0,0,1,0,1,0,0,6,6,6,0,0,0,0,,,,,,,241.25591728975633,None,0.7902025900971035,241.6971882570806,None,"[87. 87. 93. 93. 87. 93. 87. 93. 93. 93. 93. 87. 87. 93. 87. 87. 93. 93.
 87. 93. 93. 93. 87. 93. 87. 87. 93. 87. 93. 87. 87. 93. 93. 93.]",242.571445569145,None,l,1,0.8516020991646656,242.571445569145,None,None,None,,,,,,,06_GA,26,F,6,2021_Nov_11_1413,Partial repeat,2021.2.3,120.09883485793212,
8,8,0,1,1,3,2,2,2,1,0,0,1,0,1,0,0,6,6,6,1,0,1,0,,,,,,,,,0.8993781452155435,243.4789779946932,None,"[87. 87. 93. 87. 93. 93. 93. 87. 93. 93. 87. 87. 87. 93. 87. 93. 87. 87.
 93. 87. 93. 87. 93. 93. 93. 87. 93. 87. 87. 87. 87. 87. 87. 93.]",244.45315846425365,None,s,1,0.841002580104032,244.45315846425365,None,None,None,,,,,,,06_GA,26,F,6,2021_Nov_11_1413,Partial repeat,2021.2.3,120.09883485793212,
8,8,0,1,1,3,2,2,2,1,0,0,1,0,1,0,0,6,6,6,,,,,,,,,,,,,,,,,,,,,,,,,,,,,,,,06_GA,26,F,6,2021_Nov_11_1413,Partial repeat,2021.2.3,120.09883485793212,
8,8,0,1,1,3,3,3,2,0,0,1,0,1,1,0,0,7,7,7,0,0,0,0,,,,,,,245.31074999695375,None,0.7229693188359738,245.71875483071926,None,"[87. 87. 87. 93. 87. 87. 87. 87. 93. 93. 87. 87. 87. 93. 87. 93. 93. 87.
 93. 93. 87. 87. 87. 93. 93. 87. 87. 87. 87. 87. 87. 93. 93. 87.]",246.51804612217984,None,s,1,1.5121615613434187,246.51804612217984,None,None,None,,,,,,,06_GA,26,F,6,2021_Nov_11_1413,Partial repeat,2021.2.3,120.09883485793212,
8,8,0,1,1,3,3,3,2,0,0,1,0,1,1,0,0,7,7,7,1,0,1,0,,,,,,,,,0.8707293205868702,248.08335968513802,None,"[87. 87. 87. 87. 87. 93. 93. 93. 93. 93. 93. 93. 93. 87. 93. 93. 87. 93.
 93. 87. 87. 87. 93. 87. 93. 93. 93. 93. 93. 87. 93. 87. 93. 93.]",249.03254421170095,None,s,1,0.8376293352775974,249.03254421170095,None,None,None,,,,,,,06_GA,26,F,6,2021_Nov_11_1413,Partial repeat,2021.2.3,120.09883485793212,
8,8,0,1,1,3,3,3,2,0,0,1,0,1,1,0,0,7,7,7,,,,,,,,,,,,,,,,,,,,,,,,,,,,,,,,06_GA,26,F,6,2021_Nov_11_1413,Partial repeat,2021.2.3,120.09883485793212,
8,8,0,1,1,3,3,3,3,1,0,1,1,0,1,0,0,8,8,8,0,0,0,0,,,,,,,249.898463663053,None,0.861617713459577,250.48128679764977,None,"[87. 93. 93. 93. 93. 93. 87. 87. 93. 93. 93. 87. 87. 87. 93. 87. 93. 87.
 93. 87. 93. 87. 93. 93. 87. 87. 87. 87. 87. 93. 93. 87. 93. 87.]",251.43045881645867,None,l,1,0.8877504680576749,251.43045881645867,None,None,None,,,,,,,06_GA,26,F,6,2021_Nov_11_1413,Partial repeat,2021.2.3,120.09883485793212,
8,8,0,1,1,3,3,3,3,1,0,1,1,0,1,0,0,8,8,8,1,0,1,0,,,,,,,,,0.7772070023262909,252.37965873717894,None,"[93. 93. 87. 93. 93. 93. 93. 87. 93. 87. 93. 93. 87. 87. 93. 93. 87. 93.
 93. 87. 93. 93. 87. 87. 87. 93. 93. 87. 87. 87. 93. 87. 93. 87.]",253.23723936568422,None,s,1,0.6960146292394711,253.23723936568422,None,None,None,,,,,,,06_GA,26,F,6,2021_Nov_11_1413,Partial repeat,2021.2.3,120.09883485793212,
8,8,0,1,1,3,3,3,3,1,0,1,1,0,1,0,0,8,8,8,,,,,,,,,,,,,,,,,,,,,,,,,,,,,,,,06_GA,26,F,6,2021_Nov_11_1413,Partial repeat,2021.2.3,120.09883485793212,
8,8,0,1,1,3,2,3,2,0,0,0,0,1,1,0,0,9,9,9,0,0,0,0,,,,,,,253.95329123886404,None,0.9901888722717089,255.01073389723024,None,"[87. 93. 93. 93. 87. 93. 93. 87. 93. 87. 87. 93. 87. 93. 87. 93. 87. 87.
 87. 93. 93. 87. 93. 87. 93. 87. 87. 93. 93. 93. 93. 87. 87. 93.]",256.076472403086,None,s,1,0.7367905461051123,256.076472403086,None,None,None,,,,,,,06_GA,26,F,6,2021_Nov_11_1413,Partial repeat,2021.2.3,120.09883485793212,
8,8,0,1,1,3,2,3,2,0,0,0,0,1,1,0,0,9,9,9,1,0,1,0,,,,,,,,,0.9152365156120713,256.86744956649454,None,"[93. 93. 93. 93. 87. 87. 87. 87. 93. 87. 93. 87. 93. 87. 93. 87. 93. 87.
 93. 93. 93. 87. 87. 93. 93. 93. 87. 93. 93. 93. 93. 87. 87. 93.]",257.8582701584892,None,s,1,1.1470015551094548,257.8582701584892,None,None,None,,,,,,,06_GA,26,F,6,2021_Nov_11_1413,Partial repeat,2021.2.3,120.09883485793212,
8,8,0,1,1,3,2,3,2,0,0,0,0,1,1,0,0,9,9,9,,,,,,,,,,,,,,,,,,,,,,,,,,,,,,,,06_GA,26,F,6,2021_Nov_11_1413,Partial repeat,2021.2.3,120.09883485793212,
8,8,0,1,1,2,2,2,2,0,0,1,1,1,1,0,0,10,10,10,0,0,0,0,,,,,,,259.02393182184096,None,0.8039257294320342,259.3319894447395,None,"[87. 93. 93. 87. 87. 93. 93. 93. 93. 87. 87. 93. 93. 87. 87. 87. 87. 87.
 93. 93. 87. 87. 93. 93. 93. 93. 87. 87. 93. 87. 87. 93. 93. 93.]",260.22288270998797,None,s,1,1.1664331514903097,260.22288270998797,None,None,None,,,,,,,06_GA,26,F,6,2021_Nov_11_1413,Partial repeat,2021.2.3,120.09883485793212,
8,8,0,1,1,2,2,2,2,0,0,1,1,1,1,0,0,10,10,10,1,0,1,0,,,,,,,,,0.9473863191020668,261.4468308239793,None,"[93. 87. 87. 87. 93. 87. 93. 87. 87. 93. 93. 93. 93. 87. 87. 93. 87. 87.
 87. 87. 87. 87. 87. 87. 93. 87. 87. 87. 93. 93. 87. 87. 93. 93.]",262.4709448100202,None,s,1,0.6783735658373189,262.4709448100202,None,None,None,,,,,,,06_GA,26,F,6,2021_Nov_11_1413,Partial repeat,2021.2.3,120.09883485793212,
8,8,0,1,1,2,2,2,2,0,0,1,1,1,1,0,0,10,10,10,,,,,,,,,,,,,,,,,,,,,,,,,,,,,,,,06_GA,26,F,6,2021_Nov_11_1413,Partial repeat,2021.2.3,120.09883485793212,
8,8,0,1,1,3,3,3,3,0,1,1,1,0,1,0,0,11,11,11,0,0,0,0,,,,,,,263.1620302456722,None,0.8841071061690743,263.66992488292453,None,"[87. 93. 87. 93. 87. 87. 93. 93. 87. 87. 87. 87. 93. 93. 87. 87. 87. 93.
 87. 87. 93. 93. 93. 87. 87. 87. 87. 87. 87. 87. 93. 93. 93. 93.]",264.6357620396748,None,s,1,0.7855707835997237,264.6357620396748,None,None,None,,,,,,,06_GA,26,F,6,2021_Nov_11_1413,Partial repeat,2021.2.3,120.09883485793212,
8,8,0,1,1,3,3,3,3,0,1,1,1,0,1,0,0,11,11,11,1,0,1,0,,,,,,,,,0.7467597569667149,265.48506061128955,None,"[93. 93. 87. 93. 93. 87. 93. 87. 93. 87. 87. 87. 93. 93. 87. 93. 93. 93.
 93. 87. 87. 87. 93. 87. 93. 87. 87. 87. 93. 93. 87. 87. 87. 87.]",266.3093119260466,None,l,1,0.9360400167706757,266.3093119260466,None,None,None,,,,,,,06_GA,26,F,6,2021_Nov_11_1413,Partial repeat,2021.2.3,120.09883485793212,
8,8,0,1,1,3,3,3,3,0,1,1,1,0,1,0,0,11,11,11,,,,,,,,,,,,,,,,,,,,,,,,,,,,,,,,06_GA,26,F,6,2021_Nov_11_1413,Partial repeat,2021.2.3,120.09883485793212,
8,8,0,1,1,3,2,2,3,1,0,0,0,0,1,0,0,12,12,12,0,0,0,0,,,,,,,267.26682437126146,None,0.9822407269647304,267.92458786953193,None,"[93. 87. 93. 93. 87. 87. 87. 87. 93. 87. 93. 87. 87. 93. 87. 93. 87. 87.
 87. 93. 87. 87. 87. 87. 93. 87. 87. 87. 93. 93. 87. 87. 87. 93.]",268.98201064377736,None,l,1,1.3823705306213014,268.98201064377736,None,None,None,,,,,,,06_GA,26,F,6,2021_Nov_11_1413,Partial repeat,2021.2.3,120.09883485793212,
8,8,0,1,1,3,2,2,3,1,0,0,0,0,1,0,0,12,12,12,1,0,1,0,,,,,,,,,0.915528134058917,270.43076317178657,None,"[93. 93. 93. 93. 87. 93. 93. 87. 93. 93. 87. 87. 93. 93. 87. 93. 93. 87.
 93. 93. 93. 87. 93. 93. 87. 93. 93. 93. 93. 87. 87. 87. 93. 93.]",271.4215776702613,None,s,1,0.639800617092078,271.4215776702613,None,None,None,,,,,,,06_GA,26,F,6,2021_Nov_11_1413,Partial repeat,2021.2.3,120.09883485793212,
8,8,0,1,1,3,2,2,3,1,0,0,0,0,1,0,0,12,12,12,,,,,,,,,,,,,,,,,,,,,,,,,,,,,,,,06_GA,26,F,6,2021_Nov_11_1413,Partial repeat,2021.2.3,120.09883485793212,
8,8,0,1,1,3,2,3,3,0,1,0,1,0,1,0,0,13,13,13,0,0,0,0,,,,,,,272.0710161362849,None,0.8586643425515884,272.4623494178768,None,"[87. 87. 87. 87. 93. 87. 87. 93. 87. 93. 87. 93. 93. 87. 93. 87. 87. 87.
 87. 93. 93. 87. 87. 87. 93. 87. 93. 87. 87. 87. 93. 87. 93. 87.]",273.4032021772473,None,s,1,0.6731927903174437,273.4032021772473,None,None,None,,,,,,,06_GA,26,F,6,2021_Nov_11_1413,Partial repeat,2021.2.3,120.09883485793212,
8,8,0,1,1,3,2,3,3,0,1,0,1,0,1,0,0,13,13,13,1,0,1,0,,,,,,,,,0.7194436657661963,274.127577158406,None,"[93. 87. 93. 87. 93. 87. 87. 93. 93. 93. 93. 93. 87. 93. 93. 93. 93. 93.
 93. 87. 93. 87. 87. 93. 93. 93. 87. 93. 87. 87. 87. 87. 93. 87.]",274.92688961683325,None,l,1,1.0215683538881422,274.92688961683325,None,None,None,,,,,,,06_GA,26,F,6,2021_Nov_11_1413,Partial repeat,2021.2.3,120.09883485793212,
8,8,0,1,1,3,2,3,3,0,1,0,1,0,1,0,0,13,13,13,,,,,,,,,,,,,,,,,,,,,,,,,,,,,,,,06_GA,26,F,6,2021_Nov_11_1413,Partial repeat,2021.2.3,120.09883485793212,
8,8,0,1,1,3,3,2,3,1,0,1,0,0,1,0,0,14,14,14,0,0,0,0,,,,,,,275.9759831895799,None,0.8013154016567766,276.3506628788491,None,"[87. 87. 93. 93. 93. 87. 87. 87. 93. 87. 93. 87. 93. 93. 93. 87. 87. 93.
 87. 87. 93. 93. 93. 87. 87. 87. 87. 87. 87. 87. 93. 87. 87. 87.]",277.23322116978943,None,l,1,1.6112146282130198,277.23322116978943,None,None,None,,,,,,,06_GA,26,F,6,2021_Nov_11_1413,Partial repeat,2021.2.3,120.09883485793212,
8,8,0,1,1,3,3,2,3,1,0,1,0,0,1,0,0,14,14,14,1,0,1,0,,,,,,,,,0.9088497976934602,278.9151397051892,None,"[87. 93. 93. 93. 93. 87. 87. 93. 93. 93. 93. 93. 93. 87. 93. 87. 93. 87.
 93. 93. 93. 87. 93. 93. 93. 87. 93. 87. 87. 93. 93. 87. 87. 93.]",279.9059214910785,None,s,1,0.6345592270772613,279.9059214910785,None,None,None,,,,,,,06_GA,26,F,6,2021_Nov_11_1413,Partial repeat,2021.2.3,120.09883485793212,
8,8,0,1,1,3,3,2,3,1,0,1,0,0,1,0,0,14,14,14,,,,,,,,,,,,,,,,,,,,,,,,,,,,,,,,06_GA,26,F,6,2021_Nov_11_1413,Partial repeat,2021.2.3,120.09883485793212,
8,8,0,1,1,2,2,3,2,1,1,1,0,1,1,0,0,15,15,15,0,0,0,0,,,,,,,280.572024774332,None,0.9759884781294241,281.1048967533079,None,"[87. 87. 87. 93. 93. 93. 93. 87. 87. 87. 87. 93. 93. 87. 93. 93. 87. 87.
 93. 93. 93. 87. 93. 93. 93. 87. 87. 87. 93. 87. 93. 93. 87. 93.]",282.1623166411491,None,l,1,1.0182095410855254,282.1623166411491,None,None,None,,,,,,,06_GA,26,F,6,2021_Nov_11_1413,Partial repeat,2021.2.3,120.09883485793212,
8,8,0,1,1,2,2,3,2,1,1,1,0,1,1,0,0,15,15,15,1,0,1,0,,,,,,,,,0.7536264858324289,283.23637793427133,None,"[93. 93. 87. 87. 93. 87. 87. 93. 93. 93. 87. 87. 87. 93. 93. 93. 93. 93.
 93. 87. 87. 87. 93. 87. 87. 93. 93. 87. 93. 93. 87. 93. 93. 93.]",284.0690104058094,None,s,0,0.9985335624496656,284.0690104058094,None,285.08480481170045,None,,,,,,,06_GA,26,F,6,2021_Nov_11_1413,Partial repeat,2021.2.3,120.09883485793212,
8,8,0,1,1,2,2,3,2,1,1,1,0,1,1,0,0,15,15,15,,,,,,,,,,,,,,,,,,,,,,,,,,,,,,,,06_GA,26,F,6,2021_Nov_11_1413,Partial repeat,2021.2.3,120.09883485793212,
8,8,0,1,1,3,3,2,3,0,0,1,0,1,1,0,0,16,16,16,0,0,0,0,,,,,,,285.58436768176216,None,0.7843534868952139,286.14225099789473,None,"[93. 87. 93. 93. 93. 87. 93. 93. 87. 93. 93. 87. 93. 87. 87. 93. 93. 93.
 87. 93. 93. 93. 87. 93. 87. 87. 93. 93. 87. 87. 93. 93. 93. 87.]",287.00815184797284,None,s,1,0.811387748346533,287.00815184797284,None,None,None,,,,,,,06_GA,26,F,6,2021_Nov_11_1413,Partial repeat,2021.2.3,120.09883485793212,
8,8,0,1,1,3,3,2,3,0,0,1,0,1,1,0,0,16,16,16,1,0,1,0,,,,,,,,,0.9528742246506554,287.8823921623216,None,"[93. 87. 93. 87. 93. 87. 87. 87. 93. 87. 93. 93. 87. 87. 87. 87. 87. 93.
 87. 87. 87. 93. 93. 87. 87. 93. 93. 93. 93. 87. 93. 93. 87. 93.]",288.92314049798824,None,s,1,0.800426466576937,288.92314049798824,None,None,None,,,,,,,06_GA,26,F,6,2021_Nov_11_1413,Partial repeat,2021.2.3,120.09883485793212,
8,8,0,1,1,3,3,2,3,0,0,1,0,1,1,0,0,16,16,16,,,,,,,,,,,,,,,,,,,,,,,,,,,,,,,,06_GA,26,F,6,2021_Nov_11_1413,Partial repeat,2021.2.3,120.09883485793212,
8,8,0,1,1,2,3,2,2,1,1,0,1,1,1,0,0,17,17,17,0,0,0,0,,,,,,,289.75575789608047,None,0.8589098604402503,290.771565130437,None,"[87. 93. 93. 93. 93. 93. 93. 93. 87. 87. 87. 93. 93. 87. 93. 87. 87. 87.
 87. 87. 93. 93. 87. 93. 87. 87. 93. 87. 93. 87. 87. 87. 93. 93.]",291.7124210969241,None,l,1,0.7631392507200871,291.7124210969241,None,None,None,,,,,,,06_GA,26,F,6,2021_Nov_11_1413,Partial repeat,2021.2.3,120.09883485793212,
8,8,0,1,1,2,3,2,2,1,1,0,1,1,1,0,0,17,17,17,1,0,1,0,,,,,,,,,0.8866552281078841,292.53670768995926,None,"[93. 87. 87. 87. 87. 93. 87. 87. 93. 87. 93. 87. 93. 93. 87. 93. 87. 93.
 93. 87. 87. 93. 93. 93. 87. 93. 93. 87. 87. 93. 93. 87. 93. 93.]",293.5025368289189,None,l,1,0.6690742116852562,293.5025368289189,None,None,None,,,,,,,06_GA,26,F,6,2021_Nov_11_1413,Partial repeat,2021.2.3,120.09883485793212,
8,8,0,1,1,2,3,2,2,1,1,0,1,1,1,0,0,17,17,17,,,,,,,,,,,,,,,,,,,,,,,,,,,,,,,,06_GA,26,F,6,2021_Nov_11_1413,Partial repeat,2021.2.3,120.09883485793212,
8,8,0,1,1,3,3,2,2,1,1,1,1,1,1,0,0,18,18,18,0,0,0,0,,,,,,,294.18531615430857,None,0.9296834503008442,294.7181813983416,None,"[87. 93. 93. 87. 93. 93. 87. 93. 93. 87. 93. 87. 87. 87. 93. 93. 93. 93.
 87. 87. 93. 93. 87. 87. 93. 87. 87. 93. 93. 93. 87. 93. 87. 93.]",295.7339536751306,None,l,1,1.0616941882990432,295.7339536751306,None,None,None,,,,,,,06_GA,26,F,6,2021_Nov_11_1413,Partial repeat,2021.2.3,120.09883485793212,
8,8,0,1,1,3,3,2,2,1,1,1,1,1,1,0,0,18,18,18,1,0,1,0,,,,,,,,,0.9057656533437191,296.84964558158845,None,"[87. 93. 87. 93. 87. 93. 93. 87. 93. 93. 87. 93. 87. 87. 93. 87. 93. 93.
 93. 93. 93. 87. 87. 93. 87. 93. 93. 87. 93. 93. 87. 93. 93. 93.]",297.83213793421965,None,l,1,1.411800953198508,297.83213793421965,None,None,None,,,,,,,06_GA,26,F,6,2021_Nov_11_1413,Partial repeat,2021.2.3,120.09883485793212,
8,8,0,1,1,3,3,2,2,1,1,1,1,1,1,0,0,18,18,18,,,,,,,,,,,,,,,,,,,,,,,,,,,,,,,,06_GA,26,F,6,2021_Nov_11_1413,Partial repeat,2021.2.3,120.09883485793212,
8,8,0,1,1,3,2,2,2,1,1,0,1,1,1,0,0,19,19,19,0,0,0,0,,,,,,,299.26424584983124,None,0.832748911613895,299.8554145422195,None,"[93. 93. 87. 93. 93. 93. 87. 87. 87. 87. 93. 93. 87. 87. 93. 93. 87. 93.
 87. 87. 87. 93. 87. 87. 87. 87. 93. 87. 87. 93. 87. 93. 87. 93.]",300.7629517784426,None,l,1,0.6237829959136434,300.7629517784426,None,None,None,,,,,,,06_GA,26,F,6,2021_Nov_11_1413,Partial repeat,2021.2.3,120.09883485793212,
8,8,0,1,1,3,2,2,2,1,1,0,1,1,1,0,0,19,19,19,1,0,1,0,,,,,,,,,0.7700926509056913,301.4456817142427,None,"[93. 93. 93. 87. 93. 93. 87. 93. 93. 93. 93. 87. 93. 93. 93. 93. 93. 87.
 87. 93. 87. 93. 87. 93. 87. 93. 93. 93. 93. 87. 87. 93. 93. 87.]",302.29495462892737,None,l,1,0.8677470428574452,302.29495462892737,None,None,None,,,,,,,06_GA,26,F,6,2021_Nov_11_1413,Partial repeat,2021.2.3,120.09883485793212,
8,8,0,1,1,3,2,2,2,1,1,0,1,1,1,0,0,19,19,19,,,,,,,,,,,,,,,,,,,,,,,,,,,,,,,,06_GA,26,F,6,2021_Nov_11_1413,Partial repeat,2021.2.3,120.09883485793212,
8,8,0,1,1,3,3,2,3,0,1,1,0,0,1,0,0,20,20,20,0,0,0,0,,,,,,,303.1858629676217,None,0.8653168970346131,303.5522140968151,None,"[87. 93. 93. 93. 87. 93. 93. 93. 93. 87. 93. 93. 93. 93. 87. 87. 87. 87.
 93. 87. 87. 93. 93. 93. 87. 93. 93. 87. 87. 87. 93. 87. 87. 93.]",304.4930630076469,None,s,1,0.6536572833720129,304.4930630076469,None,None,None,,,,,,,06_GA,26,F,6,2021_Nov_11_1413,Partial repeat,2021.2.3,120.09883485793212,
8,8,0,1,1,3,3,2,3,0,1,1,0,0,1,0,0,20,20,20,1,0,1,0,,,,,,,,,0.8803469555120162,305.2091190500778,None,"[93. 93. 93. 93. 87. 87. 87. 87. 87. 93. 93. 93. 93. 87. 93. 93. 87. 87.
 93. 87. 93. 87. 87. 87. 87. 87. 87. 87. 87. 93. 87. 87. 93. 87.]",306.17495556540507,None,l,1,0.9877759325599982,306.17495556540507,None,None,None,,,,,,,06_GA,26,F,6,2021_Nov_11_1413,Partial repeat,2021.2.3,120.09883485793212,
8,8,0,1,1,3,3,2,3,0,1,1,0,0,1,0,0,20,20,20,,,,,,,,,,,,,,,,,,,,,,,,,,,,,,,,06_GA,26,F,6,2021_Nov_11_1413,Partial repeat,2021.2.3,120.09883485793212,
8,8,0,1,1,2,2,2,2,1,0,1,1,0,1,0,0,21,21,21,0,0,0,0,,,,,,,307.1740925304339,None,0.8866895504445211,307.6320321635276,None,"[87. 87. 93. 87. 87. 87. 87. 87. 93. 87. 87. 87. 87. 87. 93. 87. 87. 87.
 87. 87. 87. 93. 87. 93. 87. 93. 87. 87. 87. 93. 93. 93. 87. 93.]",308.5978548882549,None,l,1,0.7089264790847665,308.5978548882549,None,None,None,,,,,,,06_GA,26,F,6,2021_Nov_11_1413,Partial repeat,2021.2.3,120.09883485793212,
8,8,0,1,1,2,2,2,2,1,0,1,1,0,1,0,0,21,21,21,1,0,1,0,,,,,,,,,0.8120987588775346,309.36387010409726,None,"[93. 87. 87. 87. 93. 87. 93. 87. 93. 87. 93. 93. 93. 93. 87. 93. 87. 87.
 87. 93. 93. 93. 87. 93. 93. 87. 93. 93. 87. 93. 87. 87. 93. 93.]",310.25477074571245,None,s,1,0.6674629565031864,310.25477074571245,None,None,None,,,,,,,06_GA,26,F,6,2021_Nov_11_1413,Partial repeat,2021.2.3,120.09883485793212,
8,8,0,1,1,2,2,2,2,1,0,1,1,0,1,0,0,21,21,21,,,,,,,,,,,,,,,,,,,,,,,,,,,,,,,,06_GA,26,F,6,2021_Nov_11_1413,Partial repeat,2021.2.3,120.09883485793212,
8,8,0,1,1,2,2,3,3,1,1,1,1,1,1,0,0,22,22,22,0,0,0,0,,,,,,,310.94583982507174,None,0.9457929141015677,311.37879890932436,None,"[87. 87. 93. 87. 93. 87. 87. 87. 87. 93. 87. 87. 87. 87. 93. 87. 87. 93.
 93. 87. 93. 93. 93. 87. 87. 87. 87. 93. 93. 87. 93. 93. 87. 93.]",312.4029093675381,None,l,1,0.5531651834608056,312.4029093675381,None,None,None,,,,,,,06_GA,26,F,6,2021_Nov_11_1413,Partial repeat,2021.2.3,120.09883485793212,
8,8,0,1,1,2,2,3,3,1,1,1,1,1,1,0,0,22,22,22,1,0,1,0,,,,,,,,,0.9481639838372764,313.0107297279792,None,"[93. 93. 93. 87. 93. 93. 93. 93. 87. 87. 87. 93. 93. 93. 87. 87. 87. 87.
 93. 93. 87. 87. 93. 93. 93. 93. 93. 87. 93. 87. 93. 93. 87. 93.]",314.03484788327114,None,l,1,1.0799599979400227,314.03484788327114,None,None,None,,,,,,,06_GA,26,F,6,2021_Nov_11_1413,Partial repeat,2021.2.3,120.09883485793212,
8,8,0,1,1,2,2,3,3,1,1,1,1,1,1,0,0,22,22,22,,,,,,,,,,,,,,,,,,,,,,,,,,,,,,,,06_GA,26,F,6,2021_Nov_11_1413,Partial repeat,2021.2.3,120.09883485793212,
8,8,0,1,1,2,2,2,2,0,1,1,1,0,1,0,0,23,23,23,0,0,0,0,,,,,,,315.13389613946674,None,0.8688446435466355,315.6917486672828,None,"[93. 87. 93. 93. 87. 93. 93. 87. 87. 93. 87. 93. 93. 93. 87. 87. 87. 93.
 93. 87. 93. 93. 93. 93. 93. 93. 93. 87. 87. 87. 87. 87. 87. 93.]",316.6409335145563,None,s,1,0.7129049067389133,316.6409335145563,None,None,None,,,,,,,06_GA,26,F,6,2021_Nov_11_1413,Partial repeat,2021.2.3,120.09883485793212,
8,8,0,1,1,2,2,2,2,0,1,1,1,0,1,0,0,23,23,23,1,0,1,0,,,,,,,,,0.971872296496179,317.41527280051196,None,"[87. 93. 93. 93. 87. 87. 87. 87. 87. 87. 87. 87. 87. 87. 87. 87. 87. 87.
 93. 87. 93. 93. 93. 93. 93. 87. 93. 87. 87. 87. 87. 93. 87. 93.]",318.4643471305608,None,l,1,0.985511067096013,318.4643471305608,None,None,None,,,,,,,06_GA,26,F,6,2021_Nov_11_1413,Partial repeat,2021.2.3,120.09883485793212,
8,8,0,1,1,2,2,2,2,0,1,1,1,0,1,0,0,23,23,23,,,,,,,,,,,,,,,,,,,,,,,,,,,,,,,,06_GA,26,F,6,2021_Nov_11_1413,Partial repeat,2021.2.3,120.09883485793212,
8,8,0,1,1,2,3,3,3,0,0,0,1,1,1,0,0,24,24,24,0,0,0,0,,,,,,,319.46352514667706,None,0.7548144566130898,319.87147898729563,None,"[93. 87. 93. 87. 93. 87. 93. 93. 93. 93. 87. 87. 93. 87. 93. 93. 93. 93.
 93. 93. 93. 87. 93. 93. 93. 93. 93. 87. 87. 93. 93. 93. 87. 93.]",320.7040976682347,None,s,1,0.713779487326974,320.7040976682347,None,None,None,,,,,,,06_GA,26,F,6,2021_Nov_11_1413,Partial repeat,2021.2.3,120.09883485793212,
8,8,0,1,1,2,3,3,3,0,0,0,1,1,1,0,0,24,24,24,1,0,1,0,,,,,,,,,0.9179335646560673,321.4700904342626,None,"[87. 87. 93. 93. 93. 87. 93. 93. 93. 87. 87. 87. 93. 93. 87. 87. 87. 93.
 87. 87. 87. 93. 93. 87. 87. 93. 87. 87. 93. 87. 93. 87. 87. 93.]",322.46924503843184,None,s,1,0.8846379617807543,322.46924503843184,None,None,None,,,,,,,06_GA,26,F,6,2021_Nov_11_1413,Partial repeat,2021.2.3,120.09883485793212,
8,8,0,1,1,2,3,3,3,0,0,0,1,1,1,0,0,24,24,24,,,,,,,,,,,,,,,,,,,,,,,,,,,,,,,,06_GA,26,F,6,2021_Nov_11_1413,Partial repeat,2021.2.3,120.09883485793212,
8,8,0,1,1,3,2,2,2,0,0,0,1,1,1,0,0,25,25,25,0,0,0,0,,,,,,,323.3767604662644,None,0.9335548887717511,323.70982878489485,None,"[93. 93. 87. 93. 93. 93. 93. 87. 87. 93. 93. 87. 87. 87. 87. 93. 87. 87.
 87. 87. 93. 87. 87. 87. 87. 93. 87. 93. 87. 93. 93. 87. 93. 93.]",324.72565590337035,None,s,1,0.7242093499426119,324.72565590337035,None,None,None,,,,,,,06_GA,26,F,6,2021_Nov_11_1413,Partial repeat,2021.2.3,120.09883485793212,
8,8,0,1,1,3,2,2,2,0,0,0,1,1,1,0,0,25,25,25,1,0,1,0,,,,,,,,,0.8576901902323404,325.499949648276,None,"[93. 93. 93. 93. 93. 87. 87. 93. 87. 87. 87. 87. 93. 87. 87. 87. 93. 93.
 93. 87. 93. 87. 87. 87. 93. 93. 87. 93. 87. 93. 93. 93. 87. 93.]",326.4324927695561,None,s,1,0.6814645844369807,326.4324927695561,None,None,None,,,,,,,06_GA,26,F,6,2021_Nov_11_1413,Partial repeat,2021.2.3,120.09883485793212,
8,8,0,1,1,3,2,2,2,0,0,0,1,1,1,0,0,25,25,25,,,,,,,,,,,,,,,,,,,,,,,,,,,,,,,,06_GA,26,F,6,2021_Nov_11_1413,Partial repeat,2021.2.3,120.09883485793212,
8,8,0,1,1,3,2,3,3,0,0,0,1,1,1,0,0,26,26,26,0,0,0,0,,,,,,,327.14021415839125,None,0.9226385642006145,327.8396470761054,None,"[87. 93. 93. 93. 87. 93. 93. 87. 87. 87. 87. 93. 93. 93. 93. 87. 87. 87.
 87. 87. 93. 93. 93. 87. 87. 93. 87. 93. 87. 87. 87. 87. 93. 93.]",328.83875261139474,None,s,1,0.5951844992796396,328.83875261139474,None,None,None,,,,,,,06_GA,26,F,6,2021_Nov_11_1413,Partial repeat,2021.2.3,120.09883485793212,
8,8,0,1,1,3,2,3,3,0,0,0,1,1,1,0,0,26,26,26,1,0,1,0,,,,,,,,,0.8435229391461201,329.4965161096661,None,"[87. 93. 93. 93. 87. 93. 87. 93. 93. 87. 87. 93. 87. 87. 93. 93. 87. 93.
 87. 87. 93. 93. 93. 87. 87. 87. 93. 93. 87. 87. 87. 93. 87. 87.]",330.4207422164891,None,s,1,0.6762696976056759,330.4207422164891,None,None,None,,,,,,,06_GA,26,F,6,2021_Nov_11_1413,Partial repeat,2021.2.3,120.09883485793212,
8,8,0,1,1,3,2,3,3,0,0,0,1,1,1,0,0,26,26,26,,,,,,,,,,,,,,,,,,,,,,,,,,,,,,,,06_GA,26,F,6,2021_Nov_11_1413,Partial repeat,2021.2.3,120.09883485793212,
8,8,0,1,1,2,2,2,3,1,1,1,0,1,1,0,0,27,27,27,0,0,0,0,,,,,,,331.11178403535996,None,0.7520431732910922,331.4198240191199,None,"[87. 93. 93. 87. 93. 93. 93. 93. 87. 93. 87. 93. 93. 93. 93. 87. 87. 87.
 93. 93. 93. 87. 93. 87. 87. 87. 87. 87. 87. 93. 93. 87. 93. 87.]",332.25248150616426,None,l,1,1.1325111626665603,332.25248150616426,None,None,None,,,,,,,06_GA,26,F,6,2021_Nov_11_1413,Partial repeat,2021.2.3,120.09883485793212,
8,8,0,1,1,2,2,2,3,1,1,1,0,1,1,0,0,27,27,27,1,0,1,0,,,,,,,,,0.7711345217398277,333.44311345558526,None,"[87. 93. 93. 93. 87. 93. 87. 87. 87. 93. 93. 87. 87. 87. 93. 87. 87. 87.
 87. 87. 87. 93. 93. 87. 93. 87. 93. 93. 87. 87. 87. 87. 93. 87.]",334.29238412528866,None,l,1,1.1406277323621907,334.29238412528866,None,None,None,,,,,,,06_GA,26,F,6,2021_Nov_11_1413,Partial repeat,2021.2.3,120.09883485793212,
8,8,0,1,1,2,2,2,3,1,1,1,0,1,1,0,0,27,27,27,,,,,,,,,,,,,,,,,,,,,,,,,,,,,,,,06_GA,26,F,6,2021_Nov_11_1413,Partial repeat,2021.2.3,120.09883485793212,
8,8,0,1,1,3,3,3,3,0,0,1,1,1,1,0,0,28,28,28,0,0,0,0,,,,,,,335.44969093021064,None,0.8944693796260077,335.75777388932875,None,"[87. 87. 87. 87. 93. 93. 93. 93. 93. 87. 93. 87. 93. 87. 93. 87. 93. 87.
 87. 93. 87. 93. 87. 93. 87. 93. 87. 87. 87. 87. 87. 93. 87. 93.]",336.7319540381759,None,s,1,0.6370838689545053,336.7319540381759,None,None,None,,,,,,,06_GA,26,F,6,2021_Nov_11_1413,Partial repeat,2021.2.3,120.09883485793212,
8,8,0,1,1,3,3,3,3,0,0,1,1,1,1,0,0,28,28,28,1,0,1,0,,,,,,,,,0.7243539437161177,337.423016061879,None,"[87. 93. 93. 87. 93. 87. 87. 87. 87. 87. 93. 87. 87. 93. 93. 93. 93. 93.
 93. 87. 93. 87. 87. 93. 87. 87. 93. 93. 87. 93. 87. 93. 87. 87.]",338.2223201818051,None,s,1,0.6187314671769855,338.2223201818051,None,None,None,,,,,,,06_GA,26,F,6,2021_Nov_11_1413,Partial repeat,2021.2.3,120.09883485793212,
8,8,0,1,1,3,3,3,3,0,0,1,1,1,1,0,0,28,28,28,,,,,,,,,,,,,,,,,,,,,,,,,,,,,,,,06_GA,26,F,6,2021_Nov_11_1413,Partial repeat,2021.2.3,120.09883485793212,
8,8,0,1,1,2,3,3,3,0,1,0,1,0,1,0,0,29,29,29,0,0,0,0,,,,,,,338.86344451977675,None,0.9490188113138398,339.19647691870523,None,"[87. 87. 93. 93. 93. 87. 87. 93. 93. 87. 87. 87. 93. 87. 93. 87. 87. 87.
 87. 87. 93. 87. 87. 87. 93. 87. 87. 93. 93. 93. 87. 87. 93. 87.]",340.2206024503648,None,s,1,0.5244589277244813,340.2206024503648,None,None,None,,,,,,,06_GA,26,F,6,2021_Nov_11_1413,Partial repeat,2021.2.3,120.09883485793212,
8,8,0,1,1,2,3,3,3,0,1,0,1,0,1,0,0,29,29,29,1,0,1,0,,,,,,,,,0.9477334516865749,340.8034566939896,None,"[87. 87. 93. 87. 87. 93. 87. 87. 87. 93. 87. 93. 93. 93. 93. 87. 93. 87.
 93. 87. 87. 87. 93. 87. 93. 93. 93. 87. 87. 93. 87. 93. 93. 93.]",341.8275398917158,None,l,1,0.6615451856814616,341.8275398917158,None,None,None,,,,,,,06_GA,26,F,6,2021_Nov_11_1413,Partial repeat,2021.2.3,120.09883485793212,
8,8,0,1,1,2,3,3,3,0,1,0,1,0,1,0,0,29,29,29,,,,,,,,,,,,,,,,,,,,,,,,,,,,,,,,06_GA,26,F,6,2021_Nov_11_1413,Partial repeat,2021.2.3,120.09883485793212,
8,8,0,1,1,3,2,2,2,0,1,0,1,0,1,0,0,30,30,30,0,0,0,0,,,,,,,342.5103067093514,None,0.9270457286596984,342.9099544397068,None,"[87. 93. 87. 87. 93. 87. 93. 93. 87. 87. 93. 87. 87. 93. 93. 87. 93. 87.
 93. 87. 87. 93. 93. 93. 93. 93. 87. 87. 93. 93. 87. 87. 87. 87.]",343.9257526941383,None,s,1,0.7081497155395482,343.9257526941383,None,None,None,,,,,,,06_GA,26,F,6,2021_Nov_11_1413,Partial repeat,2021.2.3,120.09883485793212,
8,8,0,1,1,3,2,2,2,0,1,0,1,0,1,0,0,30,30,30,1,0,1,0,,,,,,,,,0.9194583891318255,344.6834165793807,None,"[87. 93. 87. 87. 87. 93. 87. 93. 87. 87. 93. 93. 93. 87. 93. 93. 87. 93.
 93. 87. 93. 87. 87. 87. 93. 93. 93. 87. 87. 93. 93. 93. 93. 87.]",345.6825577136606,None,s,0,1.7501449779883842,345.6825577136606,None,347.4560342853547,None,,,,,,,06_GA,26,F,6,2021_Nov_11_1413,Partial repeat,2021.2.3,120.09883485793212,
8,8,0,1,1,3,2,2,2,0,1,0,1,0,1,0,0,30,30,30,,,,,,,,,,,,,,,,,,,,,,,,,,,,,,,,06_GA,26,F,6,2021_Nov_11_1413,Partial repeat,2021.2.3,120.09883485793212,
8,8,0,1,1,2,3,3,2,0,0,0,0,1,1,0,0,31,31,31,0,0,0,0,,,,,,,347.95560773890065,None,0.7966483773807376,348.20538853250764,None,"[87. 87. 93. 93. 93. 87. 87. 87. 93. 87. 93. 93. 93. 87. 93. 93. 87. 93.
 87. 87. 87. 93. 93. 87. 87. 87. 87. 87. 93. 93. 93. 93. 87. 87.]",349.0796080006003,None,s,1,0.5925386284106935,349.0796080006003,None,None,None,,,,,,,06_GA,26,F,6,2021_Nov_11_1413,Partial repeat,2021.2.3,120.09883485793212,
8,8,0,1,1,2,3,3,2,0,0,0,0,1,1,0,0,31,31,31,1,0,1,0,,,,,,,,,0.9837673341838367,349.7290692371498,None,"[87. 87. 87. 93. 93. 93. 93. 87. 93. 93. 93. 93. 87. 93. 93. 87. 87. 93.
 93. 93. 87. 93. 93. 87. 93. 87. 93. 93. 93. 87. 87. 87. 93. 87.]",350.79480485660133,None,s,1,0.8293241871524515,350.79480485660133,None,None,None,,,,,,,06_GA,26,F,6,2021_Nov_11_1413,Partial repeat,2021.2.3,120.09883485793212,
8,8,0,1,1,2,3,3,2,0,0,0,0,1,1,0,0,31,31,31,,,,,,,,,,,,,,,,,,,,,,,,,,,,,,,,06_GA,26,F,6,2021_Nov_11_1413,Partial repeat,2021.2.3,120.09883485793212,
8,8,0,1,1,2,3,3,3,1,0,0,1,0,1,0,0,32,32,32,0,0,0,0,,,,,,,351.6440777712851,None,0.9765494846200982,352.21859928558297,None,"[87. 93. 93. 87. 87. 87. 93. 93. 93. 87. 87. 87. 93. 93. 87. 93. 87. 87.
 87. 93. 87. 87. 93. 93. 87. 93. 87. 93. 87. 87. 93. 87. 93. 87.]",353.27600634495866,None,l,1,0.6361942149178503,353.27600634495866,None,None,None,,,,,,,06_GA,26,F,6,2021_Nov_11_1413,Partial repeat,2021.2.3,120.09883485793212,
8,8,0,1,1,2,3,3,3,1,0,0,1,0,1,0,0,32,32,32,1,0,1,0,,,,,,,,,0.8231608630113043,353.97542226495534,None,"[93. 93. 87. 93. 93. 87. 93. 87. 93. 87. 93. 87. 93. 87. 93. 93. 87. 87.
 93. 93. 93. 87. 87. 93. 93. 93. 87. 87. 93. 87. 93. 87. 87. 87.]",354.87463350679536,None,s,1,0.6855841252017854,354.87463350679536,None,None,None,,,,,,,06_GA,26,F,6,2021_Nov_11_1413,Partial repeat,2021.2.3,120.09883485793212,
8,8,0,1,1,2,3,3,3,1,0,0,1,0,1,0,0,32,32,32,,,,,,,,,,,,,,,,,,,,,,,,,,,,,,,,06_GA,26,F,6,2021_Nov_11_1413,Partial repeat,2021.2.3,120.09883485793212,
8,8,0,1,1,3,3,3,2,0,1,1,0,0,1,0,0,33,33,33,0,0,0,0,,,,,,,355.58236868623135,None,0.7771162549548452,355.9986789888353,None,"[93. 87. 87. 93. 87. 87. 87. 87. 93. 93. 87. 87. 87. 93. 93. 87. 87. 93.
 93. 87. 87. 93. 87. 87. 87. 87. 93. 87. 87. 93. 93. 93. 93. 93.]",356.8645868945696,None,s,1,0.5196020709427103,356.8645868945696,None,None,None,,,,,,,06_GA,26,F,6,2021_Nov_11_1413,Partial repeat,2021.2.3,120.09883485793212,
8,8,0,1,1,3,3,3,2,0,1,1,0,0,1,0,0,33,33,33,1,0,1,0,,,,,,,,,0.8637151506089549,357.44741483984035,None,"[93. 93. 87. 93. 87. 87. 93. 87. 93. 93. 93. 87. 87. 93. 87. 87. 93. 87.
 93. 87. 93. 93. 87. 87. 87. 87. 87. 93. 93. 93. 87. 87. 87. 87.]",358.3882801069649,None,l,1,0.81996614277341,358.3882801069649,None,None,None,,,,,,,06_GA,26,F,6,2021_Nov_11_1413,Partial repeat,2021.2.3,120.09883485793212,
8,8,0,1,1,3,3,3,2,0,1,1,0,0,1,0,0,33,33,33,,,,,,,,,,,,,,,,,,,,,,,,,,,,,,,,06_GA,26,F,6,2021_Nov_11_1413,Partial repeat,2021.2.3,120.09883485793212,
8,8,0,1,1,3,3,2,2,0,1,1,1,0,1,0,0,34,34,34,0,0,0,0,,,,,,,359.229226065132,None,0.859356177058564,359.5872515206538,None,"[93. 93. 87. 87. 87. 87. 93. 87. 93. 87. 93. 93. 93. 93. 87. 93. 93. 93.
 93. 87. 93. 87. 93. 87. 87. 93. 87. 87. 93. 93. 87. 87. 93. 87.]",360.52810524215965,None,s,1,0.6481628518886282,360.52810524215965,None,None,None,,,,,,,06_GA,26,F,6,2021_Nov_11_1413,Partial repeat,2021.2.3,120.09883485793212,
8,8,0,1,1,3,3,2,2,0,1,1,1,0,1,0,0,34,34,34,1,0,1,0,,,,,,,,,0.7451715587380412,361.2358231031667,None,"[87. 93. 93. 87. 87. 87. 93. 93. 93. 87. 87. 87. 87. 87. 87. 87. 93. 93.
 87. 93. 93. 93. 87. 93. 87. 93. 93. 87. 87. 93. 87. 93. 93. 93.]",362.0601138654547,None,l,1,0.9551489772620698,362.0601138654547,None,None,None,,,,,,,06_GA,26,F,6,2021_Nov_11_1413,Partial repeat,2021.2.3,120.09883485793212,
8,8,0,1,1,3,3,2,2,0,1,1,1,0,1,0,0,34,34,34,,,,,,,,,,,,,,,,,,,,,,,,,,,,,,,,06_GA,26,F,6,2021_Nov_11_1413,Partial repeat,2021.2.3,120.09883485793212,
8,8,0,1,1,3,3,3,3,1,1,1,1,1,1,0,0,35,35,35,0,0,0,0,,,,,,,363.03427284733516,None,0.912528995729054,363.4505805842473,None,"[93. 93. 93. 93. 93. 93. 93. 87. 93. 87. 93. 93. 93. 87. 93. 87. 93. 93.
 87. 87. 93. 93. 93. 93. 93. 93. 93. 93. 87. 93. 93. 87. 87. 93.]",364.44139476201053,None,l,1,1.1819004315275379,364.44139476201053,None,None,None,,,,,,,06_GA,26,F,6,2021_Nov_11_1413,Partial repeat,2021.2.3,120.09883485793212,
8,8,0,1,1,3,3,3,3,1,1,1,1,1,1,0,0,35,35,35,1,0,1,0,,,,,,,,,0.9850214635733099,365.69031701060885,None,"[93. 93. 87. 87. 87. 93. 93. 93. 87. 87. 87. 87. 87. 93. 87. 93. 93. 93.
 87. 93. 93. 93. 93. 87. 93. 93. 93. 93. 87. 87. 93. 93. 87. 93.]",366.756064817102,None,l,1,0.7072433844987245,366.756064817102,None,None,None,,,,,,,06_GA,26,F,6,2021_Nov_11_1413,Partial repeat,2021.2.3,120.09883485793212,
8,8,0,1,1,3,3,3,3,1,1,1,1,1,1,0,0,35,35,35,,,,,,,,,,,,,,,,,,,,,,,,,,,,,,,,06_GA,26,F,6,2021_Nov_11_1413,Partial repeat,2021.2.3,120.09883485793212,
8,8,0,1,1,3,2,2,3,1,1,0,0,1,1,0,0,36,36,36,0,0,0,0,,,,,,,367.4804391568359,None,0.9856818099923736,367.83845114247197,None,"[87. 87. 87. 93. 93. 87. 87. 93. 87. 93. 93. 93. 93. 93. 93. 87. 93. 87.
 87. 93. 93. 93. 87. 93. 87. 93. 87. 93. 93. 93. 93. 87. 93. 93.]",368.9125393753693,None,l,1,0.6627889053452236,368.9125393753693,None,None,None,,,,,,,06_GA,26,F,6,2021_Nov_11_1413,Partial repeat,2021.2.3,120.09883485793212,
8,8,0,1,1,3,2,2,3,1,1,0,0,1,1,0,0,36,36,36,1,0,1,0,,,,,,,,,0.8901652674948063,369.62858964499173,None,"[87. 87. 87. 87. 87. 93. 87. 93. 87. 93. 87. 87. 87. 93. 93. 87. 93. 93.
 93. 93. 93. 93. 87. 87. 87. 93. 93. 87. 93. 93. 93. 93. 93. 87.]",370.59441461470124,None,l,1,0.5489349971867341,370.59441461470124,None,None,None,,,,,,,06_GA,26,F,6,2021_Nov_11_1413,Partial repeat,2021.2.3,120.09883485793212,
8,8,0,1,1,3,2,2,3,1,1,0,0,1,1,0,0,36,36,36,,,,,,,,,,,,,,,,,,,,,,,,,,,,,,,,06_GA,26,F,6,2021_Nov_11_1413,Partial repeat,2021.2.3,120.09883485793212,
8,8,0,1,1,2,2,3,3,1,0,1,1,0,1,0,0,37,37,37,0,0,0,0,,,,,,,371.1689261869378,None,0.8264277677591179,371.58523071673335,None,"[87. 87. 93. 87. 93. 87. 93. 87. 87. 87. 93. 87. 87. 93. 87. 93. 93. 93.
 87. 87. 93. 93. 93. 87. 87. 87. 87. 93. 93. 93. 93. 87. 87. 87.]",372.49277436718876,None,l,1,0.6669443658138334,372.49277436718876,None,None,None,,,,,,,06_GA,26,F,6,2021_Nov_11_1413,Partial repeat,2021.2.3,120.09883485793212,
8,8,0,1,1,2,2,3,3,1,0,1,1,0,1,0,0,37,37,37,1,0,1,0,,,,,,,,,0.8315090566618809,373.22548752977127,None,"[93. 87. 93. 93. 93. 93. 93. 87. 87. 93. 87. 87. 93. 93. 93. 87. 87. 93.
 87. 87. 93. 93. 87. 93. 93. 93. 93. 93. 87. 93. 93. 93. 87. 93.]",374.13306357209876,None,s,1,0.6754140390021348,374.13306357209876,None,None,None,,,,,,,06_GA,26,F,6,2021_Nov_11_1413,Partial repeat,2021.2.3,120.09883485793212,
8,8,0,1,1,2,2,3,3,1,0,1,1,0,1,0,0,37,37,37,,,,,,,,,,,,,,,,,,,,,,,,,,,,,,,,06_GA,26,F,6,2021_Nov_11_1413,Partial repeat,2021.2.3,120.09883485793212,
8,8,0,1,1,2,3,2,2,0,1,0,1,0,1,0,0,38,38,38,0,0,0,0,,,,,,,374.8241057116811,None,0.9930230888578568,375.2154373897156,None,"[93. 87. 93. 93. 87. 87. 87. 93. 87. 87. 93. 93. 93. 87. 87. 93. 87. 87.
 87. 87. 93. 93. 87. 93. 87. 93. 87. 93. 87. 93. 87. 93. 87. 93.]",376.2895134355731,None,s,1,0.5489754068494221,376.2895134355731,None,None,None,,,,,,,06_GA,26,F,6,2021_Nov_11_1413,Partial repeat,2021.2.3,120.09883485793212,
8,8,0,1,1,2,3,2,2,0,1,0,1,0,1,0,0,38,38,38,1,0,1,0,,,,,,,,,0.9694022408445189,376.8973437380737,None,"[93. 93. 93. 87. 87. 87. 87. 87. 93. 93. 93. 87. 93. 93. 93. 93. 87. 93.
 93. 93. 87. 87. 93. 87. 93. 93. 93. 87. 87. 93. 87. 93. 93. 93.]",377.9547456660639,None,l,1,0.6756558555625816,377.9547456660639,None,None,None,,,,,,,06_GA,26,F,6,2021_Nov_11_1413,Partial repeat,2021.2.3,120.09883485793212,
8,8,0,1,1,2,3,2,2,0,1,0,1,0,1,0,0,38,38,38,,,,,,,,,,,,,,,,,,,,,,,,,,,,,,,,06_GA,26,F,6,2021_Nov_11_1413,Partial repeat,2021.2.3,120.09883485793212,
8,8,0,1,1,2,2,3,2,1,0,1,0,0,1,0,0,39,39,39,0,0,0,0,,,,,,,378.64581538684615,None,0.9780339250416585,379.003840200945,None,"[93. 87. 93. 87. 93. 93. 87. 87. 87. 87. 87. 87. 93. 93. 93. 93. 87. 87.
 93. 87. 93. 87. 93. 93. 93. 87. 87. 93. 87. 93. 87. 93. 87. 87.]",380.06127035155805,None,l,1,0.617154848849168,380.06127035155805,None,None,None,,,,,,,06_GA,26,F,6,2021_Nov_11_1413,Partial repeat,2021.2.3,120.09883485793212,
8,8,0,1,1,2,2,3,2,1,0,1,0,0,1,0,0,39,39,39,1,0,1,0,,,,,,,,,0.9774539323796487,380.7439900245863,None,"[87. 93. 87. 93. 93. 87. 87. 93. 93. 87. 87. 93. 87. 87. 93. 87. 87. 87.
 93. 87. 93. 87. 93. 93. 93. 93. 87. 93. 87. 93. 93. 87. 93. 93.]",381.80143043797034,None,s,1,0.6530306128643133,381.80143043797034,None,None,None,,,,,,,06_GA,26,F,6,2021_Nov_11_1413,Partial repeat,2021.2.3,120.09883485793212,
8,8,0,1,1,2,2,3,2,1,0,1,0,0,1,0,0,39,39,39,,,,,,,,,,,,,,,,,,,,,,,,,,,,,,,,06_GA,26,F,6,2021_Nov_11_1413,Partial repeat,2021.2.3,120.09883485793212,
8,8,0,1,1,3,3,3,2,1,1,1,0,1,1,0,0,40,40,40,0,0,0,0,,,,,,,382.48417191938825,None,0.7170731967813218,382.80888473816776,None,"[87. 93. 87. 93. 93. 87. 93. 93. 93. 87. 93. 93. 93. 93. 93. 93. 93. 93.
 87. 93. 87. 93. 87. 87. 87. 87. 87. 87. 87. 93. 93. 93. 93. 87.]",383.6082074593669,None,l,1,1.1665255164371047,383.6082074593669,None,None,None,,,,,,,06_GA,26,F,6,2021_Nov_11_1413,Partial repeat,2021.2.3,120.09883485793212,
8,8,0,1,1,3,3,3,2,1,1,1,0,1,1,0,0,40,40,40,1,0,1,0,,,,,,,,,0.7891962334640932,384.8487886401381,None,"[93. 93. 93. 93. 87. 87. 87. 93. 87. 87. 93. 93. 87. 87. 87. 87. 93. 87.
 87. 87. 93. 93. 87. 93. 93. 93. 87. 93. 87. 87. 93. 93. 87. 93.]",385.7147247684952,None,l,1,0.8677733412114321,385.7147247684952,None,None,None,,,,,,,06_GA,26,F,6,2021_Nov_11_1413,Partial repeat,2021.2.3,120.09883485793212,
8,8,0,1,1,3,3,3,2,1,1,1,0,1,1,0,0,40,40,40,,,,,,,,,,,,,,,,,,,,,,,,,,,,,,,,06_GA,26,F,6,2021_Nov_11_1413,Partial repeat,2021.2.3,120.09883485793212,
8,8,0,1,1,2,2,2,3,0,0,1,0,1,1,0,0,41,41,41,0,0,0,0,,,,,,,386.5972913979367,None,0.9015775883068633,386.9886214724138,None,"[93. 87. 87. 87. 87. 93. 87. 87. 93. 93. 93. 93. 93. 93. 93. 87. 93. 87.
 87. 93. 87. 93. 87. 87. 93. 87. 93. 87. 87. 87. 93. 87. 87. 87.]",387.97110965579304,None,s,1,0.723368764784027,387.97110965579304,None,None,None,,,,,,,06_GA,26,F,6,2021_Nov_11_1413,Partial repeat,2021.2.3,120.09883485793212,
8,8,0,1,1,2,2,2,3,0,0,1,0,1,1,0,0,41,41,41,1,0,1,0,,,,,,,,,0.8287270712092452,388.7454418860925,None,"[87. 93. 87. 87. 87. 87. 93. 93. 93. 93. 93. 87. 87. 93. 93. 93. 93. 87.
 87. 93. 93. 93. 93. 93. 87. 87. 93. 93. 87. 93. 87. 87. 87. 93.]",389.6529941957615,None,s,1,0.5454860644167638,389.6529941957615,None,None,None,,,,,,,06_GA,26,F,6,2021_Nov_11_1413,Partial repeat,2021.2.3,120.09883485793212,
8,8,0,1,1,2,2,2,3,0,0,1,0,1,1,0,0,41,41,41,,,,,,,,,,,,,,,,,,,,,,,,,,,,,,,,06_GA,26,F,6,2021_Nov_11_1413,Partial repeat,2021.2.3,120.09883485793212,
8,8,0,1,1,3,3,2,2,1,0,1,1,0,1,0,0,42,42,42,0,0,0,0,,,,,,,390.21084672357756,None,0.709825411896166,390.56053848763986,None,"[93. 87. 93. 93. 87. 87. 93. 93. 93. 87. 87. 87. 87. 87. 93. 93. 93. 87.
 93. 87. 93. 93. 87. 93. 87. 87. 87. 93. 87. 87. 93. 93. 87. 93.]",391.3515140474901,None,l,1,0.6870215546859981,391.3515140474901,None,None,None,,,,,,,06_GA,26,F,6,2021_Nov_11_1413,Partial repeat,2021.2.3,120.09883485793212,
8,8,0,1,1,3,3,2,2,1,0,1,1,0,1,0,0,42,42,42,1,0,1,0,,,,,,,,,0.8482233529634642,392.1008824059536,None,"[87. 87. 93. 93. 87. 93. 93. 93. 93. 87. 93. 87. 87. 87. 93. 93. 93. 87.
 87. 87. 87. 93. 87. 87. 93. 87. 87. 93. 93. 87. 93. 93. 87. 87.]",393.0250873458099,None,s,1,0.5645324861416157,393.0250873458099,None,None,None,,,,,,,06_GA,26,F,6,2021_Nov_11_1413,Partial repeat,2021.2.3,120.09883485793212,
8,8,0,1,1,3,3,2,2,1,0,1,1,0,1,0,0,42,42,42,,,,,,,,,,,,,,,,,,,,,,,,,,,,,,,,06_GA,26,F,6,2021_Nov_11_1413,Partial repeat,2021.2.3,120.09883485793212,
8,8,0,1,1,2,2,3,3,0,1,1,1,0,1,0,0,43,43,43,0,0,0,0,,,,,,,393.5995909002577,None,0.946566963769162,393.94928266431816,None,"[93. 87. 93. 87. 93. 93. 93. 93. 93. 93. 93. 87. 87. 93. 93. 87. 93. 93.
 93. 87. 93. 93. 93. 87. 93. 93. 87. 93. 93. 87. 87. 87. 93. 93.]",394.9734062717089,None,s,1,0.552080536759604,394.9734062717089,None,None,None,,,,,,,06_GA,26,F,6,2021_Nov_11_1413,Partial repeat,2021.2.3,120.09883485793212,
8,8,0,1,1,2,2,3,3,0,1,1,1,0,1,0,0,43,43,43,1,0,1,0,,,,,,,,,0.9606923470228133,395.5812138036854,None,"[87. 93. 93. 87. 93. 87. 93. 87. 87. 93. 93. 93. 87. 93. 93. 93. 93. 87.
 87. 93. 93. 87. 87. 93. 87. 93. 87. 93. 87. 87. 87. 93. 87. 87.]",396.62197689208733,None,l,1,0.5837014197059034,396.62197689208733,None,None,None,,,,,,,06_GA,26,F,6,2021_Nov_11_1413,Partial repeat,2021.2.3,120.09883485793212,
8,8,0,1,1,2,2,3,3,0,1,1,1,0,1,0,0,43,43,43,,,,,,,,,,,,,,,,,,,,,,,,,,,,,,,,06_GA,26,F,6,2021_Nov_11_1413,Partial repeat,2021.2.3,120.09883485793212,
8,8,0,1,1,2,3,3,2,0,1,0,0,0,1,0,0,44,44,44,0,0,0,0,,,,,,,397.23812292619914,None,0.9110356849723638,397.54618920831126,None,"[93. 93. 87. 87. 93. 87. 93. 93. 93. 87. 93. 87. 87. 93. 87. 93. 87. 93.
 93. 93. 93. 87. 87. 87. 93. 87. 87. 87. 93. 87. 87. 87. 87. 93.]",398.5370117245766,None,s,1,0.6045973853470059,398.5370117245766,None,None,None,,,,,,,06_GA,26,F,6,2021_Nov_11_1413,Partial repeat,2021.2.3,120.09883485793212,
8,8,0,1,1,2,3,3,2,0,1,0,0,0,1,0,0,44,44,44,1,0,1,0,,,,,,,,,0.989395224764128,399.19475437659094,None,"[87. 87. 93. 93. 87. 87. 87. 93. 93. 87. 93. 87. 93. 93. 87. 87. 87. 87.
 87. 93. 87. 93. 93. 93. 93. 87. 93. 87. 87. 87. 93. 93. 87. 87.]",400.2605002588152,None,l,1,0.9611475674137182,400.2605002588152,None,None,None,,,,,,,06_GA,26,F,6,2021_Nov_11_1413,Partial repeat,2021.2.3,120.09883485793212,
8,8,0,1,1,2,3,3,2,0,1,0,0,0,1,0,0,44,44,44,,,,,,,,,,,,,,,,,,,,,,,,,,,,,,,,06_GA,26,F,6,2021_Nov_11_1413,Partial repeat,2021.2.3,120.09883485793212,
8,8,0,1,1,2,2,2,3,0,1,1,0,0,1,0,0,45,45,45,0,0,0,0,,,,,,,401.2430009499476,None,0.9549429376332634,401.5760474601884,None,"[93. 93. 93. 93. 87. 87. 87. 87. 93. 93. 93. 93. 87. 93. 93. 93. 93. 93.
 87. 87. 93. 93. 93. 93. 93. 87. 93. 87. 87. 93. 93. 87. 87. 93.]",402.6084874406133,None,s,1,0.6131555749416293,402.6084874406133,None,None,None,,,,,,,06_GA,26,F,6,2021_Nov_11_1413,Partial repeat,2021.2.3,120.09883485793212,
8,8,0,1,1,2,2,2,3,0,1,1,0,0,1,0,0,45,45,45,1,0,1,0,,,,,,,,,0.935032254460238,403.27458366820974,None,"[87. 93. 93. 87. 87. 87. 93. 87. 87. 87. 87. 87. 93. 87. 87. 93. 87. 87.
 93. 93. 87. 93. 87. 93. 87. 93. 93. 93. 87. 93. 93. 87. 87. 93.]",404.29037871552464,None,s,0,1.0432994525872346,404.29037871552464,None,405.34780181048154,None,,,,,,,06_GA,26,F,6,2021_Nov_11_1413,Partial repeat,2021.2.3,120.09883485793212,
8,8,0,1,1,2,2,2,3,0,1,1,0,0,1,0,0,45,45,45,,,,,,,,,,,,,,,,,,,,,,,,,,,,,,,,06_GA,26,F,6,2021_Nov_11_1413,Partial repeat,2021.2.3,120.09883485793212,
8,8,0,1,1,3,3,2,3,1,1,1,0,1,1,0,0,46,46,46,0,0,0,0,,,,,,,405.8473733397568,None,0.8090001355082528,406.0555193507771,None,"[93. 93. 87. 93. 87. 93. 87. 93. 87. 87. 93. 87. 87. 93. 93. 87. 93. 93.
 87. 93. 87. 87. 87. 87. 93. 87. 87. 87. 93. 87. 87. 93. 93. 87.]",406.9464231995098,None,l,1,0.9472338144641981,406.9464231995098,None,None,None,,,,,,,06_GA,26,F,6,2021_Nov_11_1413,Partial repeat,2021.2.3,120.09883485793212,
8,8,0,1,1,3,3,2,3,1,1,1,0,1,1,0,0,46,46,46,1,0,1,0,,,,,,,,,0.9372654124467803,407.953871085474,None,"[87. 93. 93. 87. 93. 87. 87. 93. 87. 93. 87. 87. 93. 93. 93. 93. 93. 87.
 87. 93. 87. 87. 87. 93. 87. 87. 93. 93. 87. 87. 93. 87. 93. 93.]",408.96968056481273,None,l,1,1.2271916473000601,408.96968056481273,None,None,None,,,,,,,06_GA,26,F,6,2021_Nov_11_1413,Partial repeat,2021.2.3,120.09883485793212,
8,8,0,1,1,3,3,2,3,1,1,1,0,1,1,0,0,46,46,46,,,,,,,,,,,,,,,,,,,,,,,,,,,,,,,,06_GA,26,F,6,2021_Nov_11_1413,Partial repeat,2021.2.3,120.09883485793212,
8,8,0,1,1,2,2,2,3,1,0,1,0,0,1,0,0,47,47,47,0,0,0,0,,,,,,,410.2185909470809,None,0.8439806477275338,410.6015914993459,None,"[87. 93. 87. 87. 87. 87. 87. 87. 87. 93. 87. 87. 87. 93. 87. 87. 93. 93.
 93. 87. 93. 93. 87. 87. 93. 87. 93. 87. 93. 87. 93. 87. 93. 93.]",411.52580541912903,None,l,1,1.19973777044288,411.52580541912903,None,None,None,,,,,,,06_GA,26,F,6,2021_Nov_11_1413,Partial repeat,2021.2.3,120.09883485793212,
8,8,0,1,1,2,2,2,3,1,0,1,0,0,1,0,0,47,47,47,1,0,1,0,,,,,,,,,0.8259560335596475,412.77473247840135,None,"[87. 87. 87. 93. 93. 87. 93. 93. 93. 93. 87. 93. 93. 87. 93. 93. 87. 93.
 93. 87. 87. 87. 93. 93. 87. 93. 87. 93. 87. 87. 87. 93. 87. 93.]",413.68228286380145,None,s,1,0.9145064764288691,413.68228286380145,None,None,None,,,,,,,06_GA,26,F,6,2021_Nov_11_1413,Partial repeat,2021.2.3,120.09883485793212,
8,8,0,1,1,2,2,2,3,1,0,1,0,0,1,0,0,47,47,47,,,,,,,,,,,,,,,,,,,,,,,,,,,,,,,,06_GA,26,F,6,2021_Nov_11_1413,Partial repeat,2021.2.3,120.09883485793212,
8,8,0,1,1,2,3,2,3,0,1,0,0,0,1,0,0,48,48,48,0,0,0,0,,,,,,,414.61480000744086,None,0.7987621278165764,414.90623354348463,None,"[87. 93. 93. 87. 87. 93. 93. 93. 93. 87. 87. 87. 93. 87. 87. 93. 93. 93.
 87. 87. 87. 93. 87. 87. 93. 93. 93. 87. 93. 93. 93. 93. 93. 87.]",415.7887960036769,None,s,1,0.9359393133217964,415.7887960036769,None,None,None,,,,,,,06_GA,26,F,6,2021_Nov_11_1413,Partial repeat,2021.2.3,120.09883485793212,
8,8,0,1,1,2,3,2,3,0,1,0,0,0,1,0,0,48,48,48,1,0,1,0,,,,,,,,,0.7042274279341502,416.7879377793797,None,"[93. 93. 93. 87. 87. 93. 87. 87. 87. 87. 87. 93. 87. 87. 87. 93. 87. 87.
 87. 93. 93. 87. 93. 93. 87. 93. 93. 87. 93. 87. 87. 87. 87. 87.]",417.5705969661958,None,l,1,1.0742083557361184,417.5705969661958,None,None,None,,,,,,,06_GA,26,F,6,2021_Nov_11_1413,Partial repeat,2021.2.3,120.09883485793212,
8,8,0,1,1,2,3,2,3,0,1,0,0,0,1,0,0,48,48,48,,,,,,,,,,,,,,,,,,,,,,,,,,,,,,,,06_GA,26,F,6,2021_Nov_11_1413,Partial repeat,2021.2.3,120.09883485793212,
8,8,0,1,1,2,3,2,2,1,0,0,1,0,1,0,0,49,49,49,0,0,0,0,,,,,,,418.6613208315666,None,0.9406343574967142,418.92775746247935,None,"[87. 87. 87. 93. 93. 93. 93. 93. 93. 87. 93. 87. 93. 93. 87. 87. 87. 87.
 87. 87. 87. 87. 87. 87. 93. 87. 93. 93. 87. 87. 93. 87. 93. 93.]",419.94355667904347,None,l,1,1.437271870106997,419.94355667904347,None,None,None,,,,,,,06_GA,26,F,6,2021_Nov_11_1413,Partial repeat,2021.2.3,120.09883485793212,
8,8,0,1,1,2,3,2,2,1,0,0,1,0,1,0,0,49,49,49,1,0,1,0,,,,,,,,,0.7407467044541891,421.43393789611946,None,"[93. 93. 87. 93. 93. 93. 93. 87. 87. 87. 93. 93. 87. 87. 87. 87. 93. 93.
 87. 93. 87. 87. 93. 87. 93. 87. 93. 87. 87. 93. 93. 87. 93. 87.]",422.24989464623286,None,s,1,1.881966113267481,422.24989464623286,None,None,None,,,,,,,06_GA,26,F,6,2021_Nov_11_1413,Partial repeat,2021.2.3,120.09883485793212,
8,8,0,1,1,2,3,2,2,1,0,0,1,0,1,0,0,49,49,49,,,,,,,,,,,,,,,,,,,,,,,,,,,,,,,,06_GA,26,F,6,2021_Nov_11_1413,Partial repeat,2021.2.3,120.09883485793212,
8,8,0,1,1,2,3,2,2,0,0,0,1,1,1,0,0,50,50,50,0,0,0,0,,,,,,,424.14826786860795,None,0.892001798252099,424.55622619918904,None,"[93. 87. 93. 93. 87. 93. 87. 87. 93. 93. 87. 93. 87. 93. 87. 93. 93. 93.
 87. 87. 93. 93. 87. 87. 93. 87. 87. 93. 87. 93. 93. 93. 93. 93.]",425.53038935032237,None,s,1,0.6336573859989585,425.53038935032237,None,None,None,,,,,,,06_GA,26,F,6,2021_Nov_11_1413,Partial repeat,2021.2.3,120.09883485793212,
8,8,0,1,1,2,3,2,2,0,0,0,1,1,1,0,0,50,50,50,1,0,1,0,,,,,,,,,0.8536356300933777,426.22980366675984,None,"[93. 87. 87. 93. 87. 93. 87. 93. 93. 93. 87. 93. 87. 93. 87. 93. 93. 93.
 93. 87. 93. 93. 93. 93. 87. 93. 93. 87. 87. 87. 93. 93. 93. 93.]",427.162317282573,None,s,1,0.5375446032685431,427.162317282573,None,None,None,,,,,,,06_GA,26,F,6,2021_Nov_11_1413,Partial repeat,2021.2.3,120.09883485793212,
8,8,0,1,1,2,3,2,2,0,0,0,1,1,1,0,0,50,50,50,,,,,,,,,,,,,,,,,,,,,,,,,,,,,,,,06_GA,26,F,6,2021_Nov_11_1413,Partial repeat,2021.2.3,120.09883485793212,
8,8,0,1,1,2,2,3,2,0,0,1,0,1,1,0,0,51,51,51,0,0,0,0,,,,,,,427.72849901188783,None,0.803898737991144,428.0448980233268,None,"[87. 87. 93. 87. 87. 87. 93. 93. 87. 87. 93. 93. 93. 87. 93. 93. 93. 93.
 87. 87. 93. 87. 93. 87. 93. 93. 93. 93. 87. 87. 93. 87. 93. 93.]",428.9274726705589,None,s,1,0.613978841671269,428.9274726705589,None,None,None,,,,,,,06_GA,26,F,6,2021_Nov_11_1413,Partial repeat,2021.2.3,120.09883485793212,
8,8,0,1,1,2,2,3,2,0,0,1,0,1,1,0,0,51,51,51,1,0,1,0,,,,,,,,,0.743853183865659,429.5935894237009,None,"[87. 93. 93. 93. 87. 93. 93. 93. 87. 93. 93. 87. 93. 87. 93. 87. 87. 93.
 87. 93. 93. 93. 93. 93. 87. 93. 87. 93. 87. 87. 93. 87. 87. 93.]",430.41785356692344,None,s,1,0.7384184782913508,430.41785356692344,None,None,None,,,,,,,06_GA,26,F,6,2021_Nov_11_1413,Partial repeat,2021.2.3,120.09883485793212,
8,8,0,1,1,2,2,3,2,0,0,1,0,1,1,0,0,51,51,51,,,,,,,,,,,,,,,,,,,,,,,,,,,,,,,,06_GA,26,F,6,2021_Nov_11_1413,Partial repeat,2021.2.3,120.09883485793212,
8,8,0,1,1,3,2,3,2,1,1,0,0,1,1,0,0,52,52,52,0,0,0,0,,,,,,,431.16720685194014,None,0.9195956675627622,431.48359688345226,None,"[93. 93. 93. 93. 93. 93. 93. 87. 93. 93. 93. 87. 93. 87. 87. 93. 93. 93.
 93. 87. 93. 93. 87. 93. 93. 93. 87. 93. 87. 87. 87. 93. 87. 93.]",432.482742186985,None,l,1,0.8652220802687225,432.482742186985,None,None,None,,,,,,,06_GA,26,F,6,2021_Nov_11_1413,Partial repeat,2021.2.3,120.09883485793212,
8,8,0,1,1,3,2,3,2,1,1,0,0,1,1,0,0,52,52,52,1,0,1,0,,,,,,,,,0.7281916345918629,433.40694424043613,None,"[87. 87. 93. 87. 87. 87. 87. 93. 93. 93. 93. 87. 87. 87. 87. 93. 93. 93.
 93. 93. 87. 93. 93. 93. 87. 93. 87. 93. 87. 87. 93. 93. 87. 93.]",434.22290900834014,None,l,1,0.5970690007634403,434.22290900834014,None,None,None,,,,,,,06_GA,26,F,6,2021_Nov_11_1413,Partial repeat,2021.2.3,120.09883485793212,
8,8,0,1,1,3,2,3,2,1,1,0,0,1,1,0,0,52,52,52,,,,,,,,,,,,,,,,,,,,,,,,,,,,,,,,06_GA,26,F,6,2021_Nov_11_1413,Partial repeat,2021.2.3,120.09883485793212,
8,8,0,1,1,2,3,3,3,1,1,0,1,1,1,0,0,53,53,53,0,0,0,0,,,,,,,434.83072423739577,None,0.9036916334812307,435.1137958593572,None,"[87. 93. 87. 93. 93. 87. 87. 87. 87. 87. 93. 87. 93. 93. 87. 93. 87. 87.
 93. 93. 87. 93. 93. 93. 87. 87. 93. 93. 93. 87. 93. 87. 87. 87.]",436.0962785906395,None,l,1,0.867659809297038,436.0962785906395,None,None,None,,,,,,,06_GA,26,F,6,2021_Nov_11_1413,Partial repeat,2021.2.3,120.09883485793212,
8,8,0,1,1,2,3,3,3,1,1,0,1,1,1,0,0,53,53,53,1,0,1,0,,,,,,,,,0.7714445455155375,437.02882267405585,None,"[87. 93. 87. 87. 93. 93. 93. 87. 87. 93. 93. 87. 93. 87. 93. 93. 93. 87.
 87. 93. 87. 87. 93. 87. 87. 87. 87. 93. 87. 93. 93. 87. 87. 87.]",437.8780798738717,None,l,1,0.7819249338954251,437.8780798738717,None,None,None,,,,,,,06_GA,26,F,6,2021_Nov_11_1413,Partial repeat,2021.2.3,120.09883485793212,
8,8,0,1,1,2,3,3,3,1,1,0,1,1,1,0,0,53,53,53,,,,,,,,,,,,,,,,,,,,,,,,,,,,,,,,06_GA,26,F,6,2021_Nov_11_1413,Partial repeat,2021.2.3,120.09883485793212,
8,8,0,1,1,2,3,3,2,1,0,0,0,0,1,0,0,54,54,54,0,0,0,0,,,,,,,438.6857250616249,None,0.8284587791437688,439.0021189416784,None,"[93. 87. 87. 87. 87. 93. 93. 87. 87. 87. 87. 93. 93. 93. 87. 87. 93. 93.
 87. 87. 87. 93. 93. 87. 93. 93. 87. 93. 87. 87. 87. 93. 93. 87.]",439.91800847063496,None,l,1,0.5810260433663643,439.91800847063496,None,None,None,,,,,,,06_GA,26,F,6,2021_Nov_11_1413,Partial repeat,2021.2.3,120.09883485793212,
8,8,0,1,1,2,3,3,2,1,0,0,0,0,1,0,0,54,54,54,1,0,1,0,,,,,,,,,0.7254056312452097,440.55077538448495,None,"[87. 93. 93. 93. 87. 87. 93. 93. 93. 93. 93. 87. 93. 93. 93. 87. 87. 93.
 87. 93. 87. 93. 93. 87. 87. 93. 93. 93. 93. 87. 93. 93. 93. 87.]",441.36673534171496,None,s,1,0.9563048219424672,441.36673534171496,None,None,None,,,,,,,06_GA,26,F,6,2021_Nov_11_1413,Partial repeat,2021.2.3,120.09883485793212,
8,8,0,1,1,2,3,3,2,1,0,0,0,0,1,0,0,54,54,54,,,,,,,,,,,,,,,,,,,,,,,,,,,,,,,,06_GA,26,F,6,2021_Nov_11_1413,Partial repeat,2021.2.3,120.09883485793212,
8,8,0,1,1,2,2,3,2,0,1,1,0,0,1,0,0,55,55,55,0,0,0,0,,,,,,,442.3325808369682,None,0.9460995660871978,442.64897535844284,None,"[93. 87. 93. 87. 87. 93. 87. 93. 93. 87. 93. 87. 93. 93. 87. 87. 93. 93.
 93. 93. 87. 87. 87. 87. 87. 93. 87. 87. 87. 87. 93. 93. 87. 93.]",443.68139769972913,None,s,1,1.0096632178210712,443.68139769972913,None,None,None,,,,,,,06_GA,26,F,6,2021_Nov_11_1413,Partial repeat,2021.2.3,120.09883485793212,
8,8,0,1,1,2,2,3,2,0,1,1,0,0,1,0,0,55,55,55,1,0,1,0,,,,,,,,,0.8110224369103182,444.74716410749534,None,"[87. 93. 93. 93. 93. 93. 87. 87. 87. 93. 93. 87. 93. 87. 93. 87. 87. 87.
 87. 87. 87. 87. 93. 87. 93. 87. 87. 87. 93. 87. 87. 93. 93. 93.]",445.6463734250665,None,l,1,1.3168815384069603,445.6463734250665,None,None,None,,,,,,,06_GA,26,F,6,2021_Nov_11_1413,Partial repeat,2021.2.3,120.09883485793212,
8,8,0,1,1,2,2,3,2,0,1,1,0,0,1,0,0,55,55,55,,,,,,,,,,,,,,,,,,,,,,,,,,,,,,,,06_GA,26,F,6,2021_Nov_11_1413,Partial repeat,2021.2.3,120.09883485793212,
8,8,0,1,1,2,2,3,3,0,0,1,1,1,1,0,0,56,56,56,0,0,0,0,,,,,,,446.98690919307046,None,0.9285860445463956,449.318223539849,None,"[87. 93. 93. 87. 93. 93. 87. 87. 93. 93. 93. 87. 93. 87. 93. 93. 87. 93.
 87. 93. 87. 87. 93. 87. 93. 93. 87. 93. 87. 93. 87. 93. 93. 93.]",450.33402371854936,None,s,1,0.6301282753265696,450.33402371854936,None,None,None,,,,,,,06_GA,26,F,6,2021_Nov_11_1413,Partial repeat,2021.2.3,120.09883485793212,
8,8,0,1,1,2,2,3,3,0,0,1,1,1,1,0,0,56,56,56,1,0,1,0,,,,,,,,,0.9125641152592742,451.01677193491196,None,"[93. 93. 93. 93. 93. 93. 93. 93. 87. 93. 87. 93. 93. 93. 87. 87. 93. 87.
 87. 87. 87. 87. 93. 87. 93. 93. 87. 93. 93. 87. 93. 93. 93. 87.]",452.01589959930243,None,s,1,0.659224516393806,452.01589959930243,None,None,None,,,,,,,06_GA,26,F,6,2021_Nov_11_1413,Partial repeat,2021.2.3,120.09883485793212,
8,8,0,1,1,2,2,3,3,0,0,1,1,1,1,0,0,56,56,56,,,,,,,,,,,,,,,,,,,,,,,,,,,,,,,,06_GA,26,F,6,2021_Nov_11_1413,Partial repeat,2021.2.3,120.09883485793212,
8,8,0,1,1,3,2,3,2,0,1,0,0,0,1,0,0,57,57,57,0,0,0,0,,,,,,,452.6986433257025,None,0.8490096669603058,453.04832963766603,None,"[93. 93. 87. 93. 87. 93. 93. 93. 87. 87. 93. 93. 93. 87. 93. 93. 87. 93.
 87. 93. 87. 87. 93. 87. 93. 93. 87. 93. 93. 93. 93. 93. 93. 93.]",453.98087307965943,None,s,1,0.5179119207004987,453.98087307965943,None,None,None,,,,,,,06_GA,26,F,6,2021_Nov_11_1413,Partial repeat,2021.2.3,120.09883485793212,
8,8,0,1,1,3,2,3,2,0,1,0,0,0,1,0,0,57,57,57,1,0,1,0,,,,,,,,,0.9862220536843826,454.56368851717707,None,"[87. 93. 87. 87. 93. 87. 93. 87. 93. 93. 87. 93. 93. 87. 87. 87. 93. 93.
 93. 93. 87. 87. 93. 87. 93. 93. 93. 87. 93. 93. 93. 87. 87. 87.]",455.6377802779025,None,l,1,0.7006466671773524,455.6377802779025,None,None,None,,,,,,,06_GA,26,F,6,2021_Nov_11_1413,Partial repeat,2021.2.3,120.09883485793212,
8,8,0,1,1,3,2,3,2,0,1,0,0,0,1,0,0,57,57,57,,,,,,,,,,,,,,,,,,,,,,,,,,,,,,,,06_GA,26,F,6,2021_Nov_11_1413,Partial repeat,2021.2.3,120.09883485793212,
8,8,0,1,1,2,3,3,2,1,1,0,0,1,1,0,0,58,58,58,0,0,0,0,,,,,,,456.37048125344336,None,0.835826925944582,456.64524548229565,None,"[87. 87. 93. 93. 93. 93. 93. 87. 87. 93. 93. 93. 87. 93. 93. 87. 87. 93.
 87. 93. 87. 87. 93. 87. 87. 93. 93. 93. 93. 93. 87. 93. 93. 87.]",457.56945362926854,None,l,1,0.7367292901872133,457.56945362926854,None,None,None,,,,,,,06_GA,26,F,6,2021_Nov_11_1413,Partial repeat,2021.2.3,120.09883485793212,
8,8,0,1,1,2,3,3,2,1,1,0,0,1,1,0,0,58,58,58,1,0,1,0,,,,,,,,,0.7432714708202954,458.36875614563724,None,"[93. 87. 87. 93. 93. 87. 93. 87. 87. 93. 93. 93. 93. 87. 87. 87. 87. 87.
 87. 87. 93. 87. 87. 87. 93. 87. 93. 93. 93. 93. 93. 87. 93. 87.]",459.2013732230171,None,l,1,0.688827161109657,459.2013732230171,None,None,None,,,,,,,06_GA,26,F,6,2021_Nov_11_1413,Partial repeat,2021.2.3,120.09883485793212,
8,8,0,1,1,2,3,3,2,1,1,0,0,1,1,0,0,58,58,58,,,,,,,,,,,,,,,,,,,,,,,,,,,,,,,,06_GA,26,F,6,2021_Nov_11_1413,Partial repeat,2021.2.3,120.09883485793212,
8,8,0,1,1,3,2,3,3,1,0,0,1,0,1,0,0,59,59,59,0,0,0,0,,,,,,,459.90075322331177,None,0.8367758702866247,460.217158007561,None,"[93. 87. 93. 93. 87. 93. 93. 87. 93. 87. 93. 87. 93. 87. 87. 93. 93. 93.
 93. 93. 87. 87. 87. 87. 93. 93. 87. 87. 87. 87. 93. 87. 93. 87.]",461.14136839951425,None,l,1,0.7648861669167673,461.14136839951425,None,None,None,,,,,,,06_GA,26,F,6,2021_Nov_11_1413,Partial repeat,2021.2.3,120.09883485793212,
8,8,0,1,1,3,2,3,3,1,0,0,1,0,1,0,0,59,59,59,1,0,1,0,,,,,,,,,0.8807437555728223,461.9656585203775,None,"[87. 93. 93. 93. 93. 87. 93. 93. 93. 93. 87. 93. 93. 93. 93. 87. 87. 87.
 87. 93. 93. 87. 87. 87. 87. 93. 87. 87. 93. 93. 93. 93. 87. 87.]",462.931488300761,None,s,1,0.4627322035321413,462.931488300761,None,None,None,,,,,,,06_GA,26,F,6,2021_Nov_11_1413,Partial repeat,2021.2.3,120.09883485793212,
8,8,0,1,1,3,2,3,3,1,0,0,1,0,1,0,0,59,59,59,,,,,,,,,,,,,,,,,,,,,,,,,,,,,,,,06_GA,26,F,6,2021_Nov_11_1413,Partial repeat,2021.2.3,120.09883485793212,
8,8,0,1,1,2,3,2,3,1,0,0,0,0,1,0,0,60,60,60,0,0,0,0,,,,,,,463.42274024988546,None,0.9639193154171184,463.63920423749914,None,"[87. 93. 93. 87. 93. 87. 93. 93. 93. 93. 93. 93. 93. 87. 93. 87. 87. 87.
 87. 93. 93. 87. 93. 87. 87. 93. 87. 93. 93. 87. 87. 87. 93. 87.]",464.6882978102458,None,l,1,0.9779525356207159,464.6882978102458,None,None,None,,,,,,,06_GA,26,F,6,2021_Nov_11_1413,Partial repeat,2021.2.3,120.09883485793212,
8,8,0,1,1,2,3,2,3,1,0,0,0,0,1,0,0,60,60,60,1,0,1,0,,,,,,,,,0.7537302236764699,465.72076056119477,None,"[87. 87. 93. 93. 87. 93. 93. 93. 87. 87. 87. 93. 87. 87. 87. 93. 93. 87.
 93. 87. 93. 87. 87. 87. 87. 93. 93. 87. 87. 87. 87. 87. 87. 93.]",466.5616824659901,None,s,1,1.0725897241864004,466.5616824659901,None,None,None,,,,,,,06_GA,26,F,6,2021_Nov_11_1413,Partial repeat,2021.2.3,120.09883485793212,
8,8,0,1,1,2,3,2,3,1,0,0,0,0,1,0,0,60,60,60,,,,,,,,,,,,,,,,,,,,,,,,,,,,,,,,06_GA,26,F,6,2021_Nov_11_1413,Partial repeat,2021.2.3,120.09883485793212,
8,8,0,1,1,2,3,2,3,0,0,0,0,1,1,0,0,61,61,61,0,0,0,0,,,,,,,467.6607438713618,None,0.9511060296404128,467.9604844798032,None,"[87. 93. 93. 93. 93. 93. 87. 93. 93. 93. 87. 87. 93. 93. 87. 93. 93. 87.
 93. 87. 87. 87. 87. 93. 93. 87. 87. 93. 87. 87. 93. 87. 93. 87.]",469.001259113822,None,s,1,0.6178209668869385,469.001259113822,None,None,None,,,,,,,06_GA,26,F,6,2021_Nov_11_1413,Partial repeat,2021.2.3,120.09883485793212,
8,8,0,1,1,2,3,2,3,0,0,0,0,1,1,0,0,61,61,61,1,0,1,0,,,,,,,,,0.8542021234670543,469.6840288178628,None,"[93. 93. 93. 93. 87. 93. 93. 93. 93. 87. 87. 93. 87. 87. 93. 93. 93. 93.
 87. 87. 87. 93. 93. 87. 93. 93. 87. 93. 87. 93. 93. 93. 87. 93.]",470.62486297596115,None,s,1,0.4964819702145178,470.62486297596115,None,None,None,,,,,,,06_GA,26,F,6,2021_Nov_11_1413,Partial repeat,2021.2.3,120.09883485793212,
8,8,0,1,1,2,3,2,3,0,0,0,0,1,1,0,0,61,61,61,,,,,,,,,,,,,,,,,,,,,,,,,,,,,,,,06_GA,26,F,6,2021_Nov_11_1413,Partial repeat,2021.2.3,120.09883485793212,
8,8,0,1,1,3,2,3,2,1,0,0,0,0,1,0,0,62,62,62,0,0,0,0,,,,,,,471.13275119898026,None,0.860628292303032,471.39917371858064,None,"[93. 87. 87. 93. 87. 87. 87. 87. 87. 87. 93. 93. 93. 87. 93. 87. 87. 93.
 93. 93. 87. 93. 93. 87. 93. 93. 93. 87. 93. 93. 93. 93. 93. 87.]",472.3483499066406,None,l,1,0.7254043214397825,472.3483499066406,None,None,None,,,,,,,06_GA,26,F,6,2021_Nov_11_1413,Partial repeat,2021.2.3,120.09883485793212,
8,8,0,1,1,3,2,3,2,1,0,0,0,0,1,0,0,62,62,62,1,0,1,0,,,,,,,,,0.799758831680552,473.1393408606491,None,"[93. 93. 87. 87. 93. 87. 87. 93. 87. 93. 87. 93. 93. 93. 93. 93. 93. 93.
 87. 87. 87. 87. 87. 93. 87. 87. 87. 87. 87. 93. 87. 93. 93. 93.]",474.02192961919354,None,s,1,0.5714082225749735,474.02192961919354,None,None,None,,,,,,,06_GA,26,F,6,2021_Nov_11_1413,Partial repeat,2021.2.3,120.09883485793212,
8,8,0,1,1,3,2,3,2,1,0,0,0,0,1,0,0,62,62,62,,,,,,,,,,,,,,,,,,,,,,,,,,,,,,,,06_GA,26,F,6,2021_Nov_11_1413,Partial repeat,2021.2.3,120.09883485793212,
8,8,0,1,1,3,3,2,2,0,0,1,1,1,1,0,0,63,63,63,0,0,0,0,,,,,,,474.6130935009078,None,0.8658037542594482,474.8878423356018,None,"[93. 93. 87. 87. 93. 93. 87. 93. 87. 93. 93. 87. 93. 87. 87. 87. 87. 87.
 87. 93. 87. 93. 93. 87. 87. 87. 87. 87. 87. 87. 87. 87. 93. 93.]",475.8370303899919,None,s,1,0.644328103040607,475.8370303899919,None,None,None,,,,,,,06_GA,26,F,6,2021_Nov_11_1413,Partial repeat,2021.2.3,120.09883485793212,
8,8,0,1,1,3,3,2,2,0,0,1,1,1,1,0,0,63,63,63,1,0,1,0,,,,,,,,,0.9543086184953857,476.54475338238626,None,"[93. 87. 87. 93. 87. 93. 93. 93. 93. 87. 93. 87. 93. 87. 93. 87. 93. 93.
 93. 87. 87. 87. 87. 93. 87. 93. 87. 93. 93. 87. 87. 87. 87. 87.]",477.5855228850196,None,s,1,0.5448872958204447,477.5855228850196,None,None,None,,,,,,,06_GA,26,F,6,2021_Nov_11_1413,Partial repeat,2021.2.3,120.09883485793212,
8,8,0,1,1,3,3,2,2,0,0,1,1,1,1,0,0,63,63,63,,,,,,,,,,,,,,,,,,,,,,,,,,,,,,,,06_GA,26,F,6,2021_Nov_11_1413,Partial repeat,2021.2.3,120.09883485793212,
2,3,0,1,1,3,2,3,3,1,0,0,1,0,0,0,0,64,64,64,0,0,0,0,,,,,,,479.2091142394038,None,0.8057868400320479,499.1419488875472,None,"[93. 93. 93. 87. 93. 87. 87. 93. 93. 87. 87. 93. 87. 87. 93. 87. 93. 87.
 87. 93. 87. 93. 93. 93. 93. 87. 87. 93. 93. 93. 87. 87. 93. 87.]",500.03284183208416,None,l,1,0.7357341220285889,500.03284183208416,None,None,None,,,,,,,06_GA,26,F,6,2021_Nov_11_1413,Partial repeat,2021.2.3,120.09883485793212,
2,3,0,1,1,3,2,3,3,1,0,0,1,0,0,0,0,64,64,64,1,0,1,0,,,,,,,,,0.9956560641530767,500.8238225233217,None,"[87. 87. 87. 87. 87. 87. 93. 87. 87. 93. 87. 87. 93. 87. 87. 87. 87. 93.
 87. 93. 87. 93. 93. 87. 93. 87. 87. 87. 93. 87. 87. 87. 87. 87.]",501.9062361091783,None,s,1,1.8693752957551624,501.9062361091783,None,None,None,,,,,,,06_GA,26,F,6,2021_Nov_11_1413,Partial repeat,2021.2.3,120.09883485793212,
2,3,0,1,1,3,2,3,3,1,0,0,1,0,0,0,0,64,64,64,,,,,,,,,,,,,,,,,,,,,,,,,,,,,,,,06_GA,26,F,6,2021_Nov_11_1413,Partial repeat,2021.2.3,120.09883485793212,
5,8,0,1,1,3,2,2,3,1,1,0,0,1,0,0,0,65,65,65,0,0,0,0,,,,,,,503.78795541852014,None,0.9015775695156413,504.5955794393067,None,"[87. 93. 87. 93. 87. 87. 87. 93. 87. 93. 93. 87. 87. 93. 87. 87. 93. 93.
 87. 87. 87. 87. 87. 87. 87. 87. 93. 93. 93. 93. 87. 93. 87. 87.]",505.5863743743721,None,l,1,0.6692637522537552,505.5863743743721,None,None,None,,,,,,,06_GA,26,F,6,2021_Nov_11_1413,Partial repeat,2021.2.3,120.09883485793212,
5,8,0,1,1,3,2,2,3,1,1,0,0,1,0,0,0,65,65,65,1,0,1,0,,,,,,,,,0.9960010622302875,506.3190830469921,None,"[93. 87. 87. 93. 93. 87. 87. 87. 87. 87. 93. 87. 87. 93. 87. 93. 93. 93.
 87. 87. 87. 93. 93. 87. 93. 93. 87. 93. 93. 93. 87. 87. 93. 87.]",507.4014969535601,None,l,1,0.9021491369767318,507.4014969535601,None,None,None,,,,,,,06_GA,26,F,6,2021_Nov_11_1413,Partial repeat,2021.2.3,120.09883485793212,
5,8,0,1,1,3,2,2,3,1,1,0,0,1,0,0,0,65,65,65,,,,,,,,,,,,,,,,,,,,,,,,,,,,,,,,06_GA,26,F,6,2021_Nov_11_1413,Partial repeat,2021.2.3,120.09883485793212,
5,4,0,1,1,3,3,3,2,1,1,1,0,1,0,0,0,66,66,66,0,0,0,0,,,,,,,508.32568681997145,None,0.9667363102616708,508.83358498505186,None,"[87. 87. 87. 93. 93. 87. 87. 87. 87. 93. 93. 87. 87. 93. 93. 93. 87. 87.
 87. 93. 93. 87. 93. 93. 87. 93. 87. 93. 87. 93. 87. 87. 93. 93.]",509.8826901034172,None,l,1,0.7254642945135856,509.8826901034172,None,None,None,,,,,,,06_GA,26,F,6,2021_Nov_11_1413,Partial repeat,2021.2.3,120.09883485793212,
5,4,0,1,1,3,3,3,2,1,1,1,0,1,0,0,0,66,66,66,1,0,1,0,,,,,,,,,0.735982984776692,510.6570104673865,None,"[87. 93. 93. 87. 93. 87. 93. 87. 87. 87. 87. 93. 93. 87. 87. 93. 87. 87.
 87. 93. 93. 87. 93. 93. 93. 87. 93. 87. 87. 93. 93. 93. 93. 93.]",511.4813021918071,None,l,1,0.8543467492145282,511.4813021918071,None,None,None,,,,,,,06_GA,26,F,6,2021_Nov_11_1413,Partial repeat,2021.2.3,120.09883485793212,
5,4,0,1,1,3,3,3,2,1,1,1,0,1,0,0,0,66,66,66,,,,,,,,,,,,,,,,,,,,,,,,,,,,,,,,06_GA,26,F,6,2021_Nov_11_1413,Partial repeat,2021.2.3,120.09883485793212,
1,8,0,1,1,2,3,2,2,0,1,0,1,0,0,0,0,67,67,67,0,0,0,0,,,,,,,512.3555457132734,None,0.7491372533336015,512.8051487685007,None,"[87. 87. 93. 93. 93. 93. 87. 87. 87. 93. 93. 87. 93. 87. 87. 93. 93. 87.
 93. 93. 87. 87. 93. 87. 93. 87. 87. 93. 87. 93. 87. 93. 87. 93.]",513.6377850885783,None,s,1,1.0339237690732261,513.6377850885783,None,None,None,,,,,,,06_GA,26,F,6,2021_Nov_11_1413,Partial repeat,2021.2.3,120.09883485793212,
1,8,0,1,1,2,3,2,2,0,1,0,1,0,0,0,0,67,67,67,1,0,1,0,,,,,,,,,0.8955704336958359,514.7284842591525,None,"[87. 87. 87. 87. 93. 87. 87. 87. 87. 87. 93. 93. 93. 93. 87. 93. 87. 93.
 93. 87. 87. 87. 87. 87. 93. 87. 87. 87. 93. 93. 87. 87. 87. 93.]",515.7109881574033,None,l,1,0.6887569252648973,515.7109881574033,None,None,None,,,,,,,06_GA,26,F,6,2021_Nov_11_1413,Partial repeat,2021.2.3,120.09883485793212,
1,8,0,1,1,2,3,2,2,0,1,0,1,0,0,0,0,67,67,67,,,,,,,,,,,,,,,,,,,,,,,,,,,,,,,,06_GA,26,F,6,2021_Nov_11_1413,Partial repeat,2021.2.3,120.09883485793212,
4,3,0,1,1,3,3,3,3,0,0,1,1,1,0,0,0,68,68,68,0,0,0,0,,,,,,,516.4187101876614,None,0.9666138015094581,516.6268282967721,None,"[93. 93. 93. 93. 93. 87. 93. 87. 87. 87. 93. 93. 93. 93. 93. 87. 87. 93.
 93. 93. 87. 87. 87. 93. 93. 93. 93. 93. 93. 87. 93. 87. 93. 87.]",517.6759581099304,None,s,1,0.9627844795249985,517.6759581099304,None,None,None,,,,,,,06_GA,26,F,6,2021_Nov_11_1413,Partial repeat,2021.2.3,120.09883485793212,
4,3,0,1,1,3,3,3,3,0,0,1,1,1,0,0,0,68,68,68,1,0,1,0,,,,,,,,,0.9041497688445068,518.6917547608045,None,"[87. 87. 87. 87. 93. 93. 87. 93. 87. 93. 87. 93. 93. 93. 87. 87. 87. 93.
 93. 87. 93. 87. 93. 87. 87. 87. 87. 87. 93. 87. 87. 93. 93. 87.]",519.6825670142971,None,s,1,1.4202209160848724,519.6825670142971,None,None,None,,,,,,,06_GA,26,F,6,2021_Nov_11_1413,Partial repeat,2021.2.3,120.09883485793212,
4,3,0,1,1,3,3,3,3,0,0,1,1,1,0,0,0,68,68,68,,,,,,,,,,,,,,,,,,,,,,,,,,,,,,,,06_GA,26,F,6,2021_Nov_11_1413,Partial repeat,2021.2.3,120.09883485793212,
2,5,0,1,1,2,2,3,3,1,1,1,1,1,0,0,0,69,69,69,0,0,0,0,,,,,,,521.1229951514815,None,0.7081147808133247,521.3144830802175,None,"[87. 93. 93. 87. 93. 87. 93. 87. 87. 93. 87. 93. 87. 93. 87. 93. 87. 87.
 87. 93. 87. 87. 87. 93. 87. 87. 93. 87. 93. 93. 93. 87. 93. 87.]",522.1054887869595,None,l,1,0.8053109045595193,522.1054887869595,None,None,None,,,,,,,06_GA,26,F,6,2021_Nov_11_1413,Partial repeat,2021.2.3,120.09883485793212,
2,5,0,1,1,2,2,3,3,1,1,1,1,1,0,0,0,69,69,69,1,0,1,0,,,,,,,,,0.8352564601104834,522.963068774041,None,"[87. 87. 93. 93. 87. 87. 87. 93. 87. 93. 93. 93. 93. 87. 87. 87. 87. 87.
 87. 93. 87. 87. 87. 93. 93. 93. 87. 87. 87. 87. 87. 87. 87. 87.]",523.8872486983928,None,l,1,1.0235169976949692,523.8872486983928,None,None,None,,,,,,,06_GA,26,F,6,2021_Nov_11_1413,Partial repeat,2021.2.3,120.09883485793212,
2,5,0,1,1,2,2,3,3,1,1,1,1,1,0,0,0,69,69,69,,,,,,,,,,,,,,,,,,,,,,,,,,,,,,,,06_GA,26,F,6,2021_Nov_11_1413,Partial repeat,2021.2.3,120.09883485793212,
6,6,0,1,1,2,3,3,2,0,1,0,0,0,0,0,0,70,70,70,0,0,0,0,,,,,,,524.9280265395282,None,0.8267137279193699,525.652400879264,None,"[87. 87. 87. 87. 93. 93. 87. 87. 87. 93. 93. 87. 87. 87. 87. 87. 87. 93.
 93. 87. 93. 93. 87. 87. 87. 87. 93. 93. 87. 93. 87. 93. 87. 87.]",526.5599640931268,None,s,1,0.8467561465768085,526.5599640931268,None,None,None,,,,,,,06_GA,26,F,6,2021_Nov_11_1413,Partial repeat,2021.2.3,120.09883485793212,
6,6,0,1,1,2,3,3,2,0,1,0,0,0,0,0,0,70,70,70,1,0,1,0,,,,,,,,,0.7978395768392486,527.4591929741073,None,"[87. 87. 87. 93. 87. 87. 87. 87. 93. 87. 93. 93. 93. 93. 87. 87. 87. 87.
 87. 87. 87. 93. 87. 87. 93. 87. 87. 87. 87. 93. 87. 93. 93. 87.]",528.341770828456,None,l,1,1.3690812031982205,528.341770828456,None,None,None,,,,,,,06_GA,26,F,6,2021_Nov_11_1413,Partial repeat,2021.2.3,120.09883485793212,
6,6,0,1,1,2,3,3,2,0,1,0,0,0,0,0,0,70,70,70,,,,,,,,,,,,,,,,,,,,,,,,,,,,,,,,06_GA,26,F,6,2021_Nov_11_1413,Partial repeat,2021.2.3,120.09883485793212,
5,2,0,1,1,2,2,2,3,1,0,1,0,0,0,0,0,71,71,71,0,0,0,0,,,,,,,529.732233698709,None,0.7693779149275558,529.9320473011157,None,"[87. 93. 93. 87. 93. 93. 93. 87. 93. 87. 87. 93. 87. 93. 93. 87. 93. 87.
 93. 87. 93. 93. 87. 93. 93. 87. 93. 87. 93. 87. 87. 93. 87. 87.]",530.7896564729544,None,l,1,0.6972083178916364,530.7896564729544,None,None,None,,,,,,,06_GA,26,F,6,2021_Nov_11_1413,Partial repeat,2021.2.3,120.09883485793212,
5,2,0,1,1,2,2,2,3,1,0,1,0,0,0,0,0,71,71,71,1,0,1,0,,,,,,,,,0.8422157283981363,531.5390091165482,None,"[87. 87. 87. 87. 93. 93. 87. 93. 93. 93. 93. 93. 93. 93. 87. 93. 93. 87.
 87. 87. 93. 87. 87. 87. 93. 87. 93. 87. 87. 93. 87. 93. 87. 87.]",532.4715727633738,None,s,1,0.9664588725609065,532.4715727633738,None,None,None,,,,,,,06_GA,26,F,6,2021_Nov_11_1413,Partial repeat,2021.2.3,120.09883485793212,
5,2,0,1,1,2,2,2,3,1,0,1,0,0,0,0,0,71,71,71,,,,,,,,,,,,,,,,,,,,,,,,,,,,,,,,06_GA,26,F,6,2021_Nov_11_1413,Partial repeat,2021.2.3,120.09883485793212,
8,1,0,1,1,2,3,2,3,0,1,0,0,0,0,0,0,72,72,72,0,0,0,0,,,,,,,533.4706677151808,None,0.7673137214236252,533.6205356140636,None,"[93. 93. 87. 87. 87. 93. 87. 87. 87. 87. 87. 87. 93. 87. 93. 87. 93. 87.
 93. 87. 93. 87. 87. 93. 93. 93. 93. 87. 87. 93. 87. 93. 93. 93.]",534.47814606875,None,s,1,0.9757800351017067,534.47814606875,None,None,None,,,,,,,06_GA,26,F,6,2021_Nov_11_1413,Partial repeat,2021.2.3,120.09883485793212,
8,1,0,1,1,2,3,2,3,0,1,0,0,0,0,0,0,72,72,72,1,0,1,0,,,,,,,,,0.7294962719753011,535.5189027429187,None,"[87. 87. 87. 87. 87. 93. 87. 93. 93. 93. 87. 93. 93. 87. 93. 93. 93. 87.
 93. 93. 87. 93. 87. 87. 87. 93. 93. 87. 87. 93. 87. 93. 93. 93.]",536.3348873949435,None,l,1,0.8150371258761879,536.3348873949435,None,None,None,,,,,,,06_GA,26,F,6,2021_Nov_11_1413,Partial repeat,2021.2.3,120.09883485793212,
8,1,0,1,1,2,3,2,3,0,1,0,0,0,0,0,0,72,72,72,,,,,,,,,,,,,,,,,,,,,,,,,,,,,,,,06_GA,26,F,6,2021_Nov_11_1413,Partial repeat,2021.2.3,120.09883485793212,
1,2,0,1,1,2,3,2,3,1,0,0,0,0,0,0,0,73,73,73,0,0,0,0,,,,,,,537.1674890781669,None,0.8088119200159973,537.3506561439044,None,"[87. 87. 87. 93. 93. 93. 87. 87. 87. 93. 93. 93. 93. 93. 93. 87. 87. 87.
 87. 87. 93. 93. 93. 87. 93. 93. 87. 93. 93. 87. 87. 87. 93. 93.]",538.2498898355589,None,l,1,0.8361107657547109,538.2498898355589,None,None,None,,,,,,,06_GA,26,F,6,2021_Nov_11_1413,Partial repeat,2021.2.3,120.09883485793212,
1,2,0,1,1,2,3,2,3,1,0,0,0,0,0,0,0,73,73,73,1,0,1,0,,,,,,,,,0.8957065558602019,539.1407885529043,None,"[93. 87. 87. 93. 87. 93. 87. 87. 93. 93. 87. 93. 87. 87. 87. 87. 93. 93.
 87. 87. 87. 87. 87. 93. 87. 87. 93. 87. 93. 93. 93. 87. 87. 87.]",540.1232966204061,None,s,1,0.6587293376505841,540.1232966204061,None,None,None,,,,,,,06_GA,26,F,6,2021_Nov_11_1413,Partial repeat,2021.2.3,120.09883485793212,
1,2,0,1,1,2,3,2,3,1,0,0,0,0,0,0,0,73,73,73,,,,,,,,,,,,,,,,,,,,,,,,,,,,,,,,06_GA,26,F,6,2021_Nov_11_1413,Partial repeat,2021.2.3,120.09883485793212,
5,5,0,1,1,3,3,2,2,0,0,1,1,1,0,0,0,74,74,74,0,0,0,0,,,,,,,540.8060050685272,None,0.9102730980086007,540.9808814181615,None,"[87. 93. 93. 93. 87. 87. 93. 93. 87. 93. 87. 93. 87. 87. 93. 93. 87. 93.
 93. 93. 87. 93. 87. 93. 87. 93. 93. 93. 93. 93. 87. 93. 87. 87.]",541.9800097239768,None,s,1,0.8498292053263867,541.9800097239768,None,None,None,,,,,,,06_GA,26,F,6,2021_Nov_11_1413,Partial repeat,2021.2.3,120.09883485793212,
5,5,0,1,1,3,3,2,2,0,0,1,1,1,0,0,0,74,74,74,1,0,1,0,,,,,,,,,0.7447705779950706,542.8792277007615,None,"[87. 87. 93. 93. 87. 87. 87. 87. 93. 93. 93. 87. 93. 87. 87. 93. 87. 93.
 93. 87. 93. 87. 87. 87. 87. 93. 87. 87. 93. 93. 93. 87. 87. 87.]",543.7035232737217,None,s,1,0.6305840065397206,543.7035232737217,None,None,None,,,,,,,06_GA,26,F,6,2021_Nov_11_1413,Partial repeat,2021.2.3,120.09883485793212,
5,5,0,1,1,3,3,2,2,0,0,1,1,1,0,0,0,74,74,74,,,,,,,,,,,,,,,,,,,,,,,,,,,,,,,,06_GA,26,F,6,2021_Nov_11_1413,Partial repeat,2021.2.3,120.09883485793212,
3,8,0,1,1,2,3,2,3,1,1,0,0,1,0,0,0,75,75,75,0,0,0,0,,,,,,,544.344637028209,None,0.7235723962421825,544.5194848345091,None,"[93. 93. 93. 87. 93. 87. 87. 87. 93. 93. 87. 87. 93. 87. 93. 93. 93. 93.
 93. 87. 93. 93. 87. 93. 93. 93. 93. 93. 87. 93. 93. 87. 87. 87.]",545.3271229666079,None,l,1,0.6548923438222118,545.3271229666079,None,None,None,,,,,,,06_GA,26,F,6,2021_Nov_11_1413,Partial repeat,2021.2.3,120.09883485793212,
3,8,0,1,1,2,3,2,3,1,1,0,0,1,0,0,0,75,75,75,1,0,1,0,,,,,,,,,0.8391107610754116,546.0431626527479,None,"[93. 93. 93. 93. 93. 87. 87. 93. 93. 93. 93. 93. 93. 87. 93. 93. 93. 93.
 87. 87. 93. 93. 93. 93. 93. 87. 93. 93. 93. 93. 87. 87. 93. 93.]",546.9673849110313,None,l,1,0.6946166472862387,546.9673849110313,None,None,None,,,,,,,06_GA,26,F,6,2021_Nov_11_1413,Partial repeat,2021.2.3,120.09883485793212,
3,8,0,1,1,2,3,2,3,1,1,0,0,1,0,0,0,75,75,75,,,,,,,,,,,,,,,,,,,,,,,,,,,,,,,,06_GA,26,F,6,2021_Nov_11_1413,Partial repeat,2021.2.3,120.09883485793212,
5,7,0,1,1,2,2,2,3,1,1,1,0,1,0,0,0,76,76,76,0,0,0,0,,,,,,,547.6750992442121,None,0.8556210057524342,547.8416207354185,None,"[87. 87. 93. 93. 93. 93. 93. 93. 87. 87. 93. 87. 93. 93. 93. 93. 93. 93.
 87. 87. 87. 93. 93. 93. 87. 87. 93. 87. 87. 87. 93. 93. 93. 93.]",548.78246996696,None,l,1,0.8786618214417103,548.78246996696,None,None,None,,,,,,,06_GA,26,F,6,2021_Nov_11_1413,Partial repeat,2021.2.3,120.09883485793212,
5,7,0,1,1,2,2,2,3,1,1,1,0,1,0,0,0,76,76,76,1,0,1,0,,,,,,,,,0.7148980002264815,549.7150063532972,None,"[87. 87. 93. 93. 93. 87. 87. 87. 93. 93. 87. 93. 87. 87. 93. 87. 87. 87.
 93. 93. 93. 87. 87. 87. 87. 87. 87. 87. 87. 87. 93. 87. 87. 93.]",550.5143281123619,None,l,1,0.6987509407863399,550.5143281123619,None,None,None,,,,,,,06_GA,26,F,6,2021_Nov_11_1413,Partial repeat,2021.2.3,120.09883485793212,
5,7,0,1,1,2,2,2,3,1,1,1,0,1,0,0,0,76,76,76,,,,,,,,,,,,,,,,,,,,,,,,,,,,,,,,06_GA,26,F,6,2021_Nov_11_1413,Partial repeat,2021.2.3,120.09883485793212,
2,8,0,1,1,2,3,3,3,0,1,0,1,0,0,0,0,77,77,77,0,0,0,0,,,,,,,551.2303658742312,None,0.7073954249241922,551.4302038507212,None,"[87. 87. 93. 93. 87. 87. 87. 87. 93. 87. 87. 93. 87. 87. 87. 87. 93. 87.
 87. 87. 87. 87. 93. 93. 93. 87. 93. 93. 93. 87. 87. 87. 87. 93.]",552.2211864662258,None,s,1,0.6719051331619994,552.2211864662258,None,None,None,,,,,,,06_GA,26,F,6,2021_Nov_11_1413,Partial repeat,2021.2.3,120.09883485793212,
2,8,0,1,1,2,3,3,3,0,1,0,1,0,0,0,0,77,77,77,1,0,1,0,,,,,,,,,0.703675111579332,552.9538778204187,None,"[93. 93. 87. 87. 93. 87. 93. 93. 87. 93. 93. 87. 93. 87. 87. 87. 87. 87.
 93. 87. 87. 93. 93. 93. 87. 93. 87. 93. 93. 87. 93. 93. 93. 87.]",553.7448652465991,None,l,1,0.6681771812818624,553.7448652465991,None,None,None,,,,,,,06_GA,26,F,6,2021_Nov_11_1413,Partial repeat,2021.2.3,120.09883485793212,
2,8,0,1,1,2,3,3,3,0,1,0,1,0,0,0,0,77,77,77,,,,,,,,,,,,,,,,,,,,,,,,,,,,,,,,06_GA,26,F,6,2021_Nov_11_1413,Partial repeat,2021.2.3,120.09883485793212,
2,6,0,1,1,2,3,3,2,0,0,0,0,1,0,0,0,78,78,78,0,0,0,0,,,,,,,554.4359510029626,None,0.7534489072005418,554.6274456666415,None,"[93. 93. 87. 87. 93. 87. 93. 87. 93. 93. 87. 93. 87. 93. 87. 87. 93. 87.
 87. 87. 87. 87. 87. 87. 93. 87. 93. 87. 87. 93. 87. 93. 87. 87.]",555.4683730235356,None,s,1,0.7047383060307766,555.4683730235356,None,None,None,,,,,,,06_GA,26,F,6,2021_Nov_11_1413,Partial repeat,2021.2.3,120.09883485793212,
2,6,0,1,1,2,3,3,2,0,0,0,0,1,0,0,0,78,78,78,1,0,1,0,,,,,,,,,0.883989616520023,556.2343853529728,None,"[87. 93. 93. 93. 93. 93. 93. 93. 93. 87. 87. 93. 93. 87. 93. 93. 93. 93.
 87. 87. 87. 93. 93. 87. 93. 93. 87. 87. 87. 93. 93. 87. 93. 93.]",557.2002212268762,None,l,0,0.6848843324460177,557.2002212268762,None,557.9079426157114,None,,,,,,,06_GA,26,F,6,2021_Nov_11_1413,Partial repeat,2021.2.3,120.09883485793212,
2,6,0,1,1,2,3,3,2,0,0,0,0,1,0,0,0,78,78,78,,,,,,,,,,,,,,,,,,,,,,,,,,,,,,,,06_GA,26,F,6,2021_Nov_11_1413,Partial repeat,2021.2.3,120.09883485793212,
4,8,0,1,1,3,2,3,2,1,1,0,0,1,0,0,0,79,79,79,0,0,0,0,,,,,,,558.4074961851347,None,0.8008187117460673,558.8154843418961,None,"[87. 93. 93. 87. 93. 87. 87. 87. 93. 93. 87. 87. 93. 87. 93. 87. 93. 87.
 93. 93. 93. 93. 93. 87. 93. 87. 93. 87. 87. 93. 93. 93. 87. 93.]",559.706395246285,None,l,1,0.8027474565751618,559.706395246285,None,None,None,,,,,,,06_GA,26,F,6,2021_Nov_11_1413,Partial repeat,2021.2.3,120.09883485793212,
4,8,0,1,1,3,2,3,2,1,1,0,0,1,0,0,0,79,79,79,1,0,1,0,,,,,,,,,0.8279562706331217,560.572328488237,None,"[87. 93. 87. 93. 93. 93. 87. 93. 93. 87. 87. 93. 93. 93. 93. 87. 87. 93.
 93. 93. 93. 87. 87. 93. 93. 93. 93. 93. 93. 93. 87. 93. 87. 93.]",561.4881913981299,None,l,1,1.1000840107080876,561.4881913981299,None,None,None,,,,,,,06_GA,26,F,6,2021_Nov_11_1413,Partial repeat,2021.2.3,120.09883485793212,
4,8,0,1,1,3,2,3,2,1,1,0,0,1,0,0,0,79,79,79,,,,,,,,,,,,,,,,,,,,,,,,,,,,,,,,06_GA,26,F,6,2021_Nov_11_1413,Partial repeat,2021.2.3,120.09883485793212,
2,1,0,1,1,2,3,2,2,1,0,0,1,0,0,0,0,80,80,80,0,0,0,0,,,,,,,562.6205272755615,None,0.8851051020982452,562.803710376882,None,"[93. 93. 87. 87. 87. 93. 93. 93. 93. 87. 87. 87. 93. 87. 93. 87. 93. 93.
 93. 87. 93. 87. 93. 93. 87. 87. 87. 93. 93. 87. 87. 93. 93. 93.]",563.7778946949802,None,l,1,0.6983285635833454,563.7778946949802,None,None,None,,,,,,,06_GA,26,F,6,2021_Nov_11_1413,Partial repeat,2021.2.3,120.09883485793212,
2,1,0,1,1,2,3,2,2,1,0,0,1,0,0,0,0,80,80,80,1,0,1,0,,,,,,,,,0.9325773708542554,564.5272341893979,None,"[93. 87. 93. 87. 87. 93. 93. 87. 87. 93. 93. 93. 87. 93. 93. 87. 93. 93.
 93. 87. 87. 93. 87. 93. 93. 87. 93. 87. 87. 93. 87. 87. 93. 93.]",565.5430382166378,None,s,1,0.9811840259098972,565.5430382166378,None,None,None,,,,,,,06_GA,26,F,6,2021_Nov_11_1413,Partial repeat,2021.2.3,120.09883485793212,
2,1,0,1,1,2,3,2,2,1,0,0,1,0,0,0,0,80,80,80,,,,,,,,,,,,,,,,,,,,,,,,,,,,,,,,06_GA,26,F,6,2021_Nov_11_1413,Partial repeat,2021.2.3,120.09883485793212,
7,7,0,1,1,2,2,2,3,0,0,1,0,1,0,0,0,81,81,81,0,0,0,0,,,,,,,566.5421636360497,None,0.90349269194377,566.7253483409277,None,"[93. 93. 93. 87. 87. 87. 93. 87. 93. 87. 87. 87. 93. 93. 87. 93. 93. 93.
 93. 93. 93. 87. 87. 93. 87. 93. 87. 93. 87. 93. 93. 93. 87. 87.]",567.7161413517224,None,s,1,0.8080978885409422,567.7161413517224,None,None,None,,,,,,,06_GA,26,F,6,2021_Nov_11_1413,Partial repeat,2021.2.3,120.09883485793212,
7,7,0,1,1,2,2,2,3,0,0,1,0,1,0,0,0,81,81,81,1,0,1,0,,,,,,,,,0.8990329481869195,568.5820742729629,None,"[87. 87. 93. 93. 93. 87. 87. 93. 87. 87. 87. 87. 87. 93. 93. 93. 93. 93.
 87. 87. 93. 93. 93. 87. 87. 87. 93. 93. 87. 93. 87. 87. 87. 87.]",569.5645480243202,None,s,1,0.6397181942065799,569.5645480243202,None,None,None,,,,,,,06_GA,26,F,6,2021_Nov_11_1413,Partial repeat,2021.2.3,120.09883485793212,
7,7,0,1,1,2,2,2,3,0,0,1,0,1,0,0,0,81,81,81,,,,,,,,,,,,,,,,,,,,,,,,,,,,,,,,06_GA,26,F,6,2021_Nov_11_1413,Partial repeat,2021.2.3,120.09883485793212,
8,4,0,1,1,3,3,2,3,0,0,1,0,1,0,0,0,82,82,82,0,0,0,0,,,,,,,570.2139993188084,None,0.9411665118045451,570.388850332225,None,"[87. 93. 93. 93. 87. 87. 87. 87. 93. 93. 87. 87. 93. 93. 93. 93. 87. 87.
 87. 93. 93. 93. 93. 87. 87. 87. 87. 87. 93. 87. 87. 87. 87. 87.]",571.4129736189043,None,s,1,0.7752999939493748,571.4129736189043,None,None,None,,,,,,,06_GA,26,F,6,2021_Nov_11_1413,Partial repeat,2021.2.3,120.09883485793212,
8,4,0,1,1,3,3,2,3,0,0,1,0,1,0,0,0,82,82,82,1,0,1,0,,,,,,,,,0.7440881292178176,572.2455698500289,None,"[87. 87. 87. 87. 93. 93. 93. 87. 93. 87. 87. 93. 93. 93. 87. 93. 93. 93.
 93. 93. 93. 93. 87. 87. 93. 87. 93. 87. 93. 87. 93. 93. 93. 93.]",573.0782068115295,None,s,1,0.9829800109855569,573.0782068115295,None,None,None,,,,,,,06_GA,26,F,6,2021_Nov_11_1413,Partial repeat,2021.2.3,120.09883485793212,
8,4,0,1,1,3,3,2,3,0,0,1,0,1,0,0,0,82,82,82,,,,,,,,,,,,,,,,,,,,,,,,,,,,,,,,06_GA,26,F,6,2021_Nov_11_1413,Partial repeat,2021.2.3,120.09883485793212,
7,5,0,1,1,3,2,3,3,1,1,0,1,1,0,0,0,83,83,83,0,0,0,0,,,,,,,574.077340890155,None,0.7007733029623242,574.2605233500508,None,"[87. 87. 93. 93. 93. 93. 93. 87. 93. 87. 93. 87. 87. 87. 93. 87. 87. 93.
 93. 93. 87. 87. 93. 93. 93. 87. 87. 87. 87. 93. 87. 87. 93. 93.]",575.0514780636458,None,l,1,0.8327904383477289,575.0514780636458,None,None,None,,,,,,,06_GA,26,F,6,2021_Nov_11_1413,Partial repeat,2021.2.3,120.09883485793212,
7,5,0,1,1,3,2,3,3,1,1,0,1,1,0,0,0,83,83,83,1,0,1,0,,,,,,,,,0.7225814739662991,575.9424030793452,None,"[93. 93. 93. 93. 93. 87. 87. 93. 87. 93. 93. 87. 87. 93. 87. 93. 87. 93.
 93. 93. 87. 93. 87. 87. 93. 87. 87. 87. 87. 87. 87. 87. 87. 87.]",576.7500184409182,None,l,1,0.5903241146697837,576.7500184409182,None,None,None,,,,,,,06_GA,26,F,6,2021_Nov_11_1413,Partial repeat,2021.2.3,120.09883485793212,
7,5,0,1,1,3,2,3,3,1,1,0,1,1,0,0,0,83,83,83,,,,,,,,,,,,,,,,,,,,,,,,,,,,,,,,06_GA,26,F,6,2021_Nov_11_1413,Partial repeat,2021.2.3,120.09883485793212,
6,2,0,1,1,3,3,3,2,0,1,1,0,0,0,0,0,84,84,84,0,0,0,0,,,,,,,577.3578420084759,None,0.837844084293726,577.5410270340653,None,"[93. 87. 87. 87. 93. 87. 87. 93. 93. 93. 87. 93. 87. 87. 87. 87. 93. 87.
 87. 87. 87. 87. 87. 87. 87. 93. 87. 87. 93. 93. 93. 87. 93. 87.]",578.4652011856069,None,s,1,1.7701714944250853,578.4652011856069,None,None,None,,,,,,,06_GA,26,F,6,2021_Nov_11_1413,Partial repeat,2021.2.3,120.09883485793212,
6,2,0,1,1,3,3,3,2,0,1,1,0,0,0,0,0,84,84,84,1,0,1,0,,,,,,,,,0.9287310472843616,580.305296616556,None,"[93. 87. 93. 87. 87. 87. 87. 93. 93. 87. 93. 93. 87. 93. 93. 87. 87. 93.
 93. 93. 93. 93. 87. 87. 93. 87. 87. 93. 87. 93. 93. 87. 87. 87.]",581.3210987195271,None,s,0,1.9542763209410623,581.3210987195271,None,583.2860606542654,None,,,,,,,06_GA,26,F,6,2021_Nov_11_1413,Partial repeat,2021.2.3,120.09883485793212,
6,2,0,1,1,3,3,3,2,0,1,1,0,0,0,0,0,84,84,84,,,,,,,,,,,,,,,,,,,,,,,,,,,,,,,,06_GA,26,F,6,2021_Nov_11_1413,Partial repeat,2021.2.3,120.09883485793212,
3,1,0,1,1,3,2,2,3,0,0,0,0,1,0,0,0,85,85,85,0,0,0,0,,,,,,,583.7856312214044,None,0.845303461256988,584.593276088448,None,"[93. 87. 93. 93. 93. 87. 93. 87. 87. 93. 93. 87. 87. 93. 93. 93. 93. 87.
 93. 93. 87. 93. 87. 87. 93. 93. 87. 93. 93. 93. 93. 93. 87. 87.]",585.5257999670303,None,s,1,0.821587981439734,585.5257999670303,None,None,None,,,,,,,06_GA,26,F,6,2021_Nov_11_1413,Partial repeat,2021.2.3,120.09883485793212,
3,1,0,1,1,3,2,2,3,0,0,0,0,1,0,0,0,85,85,85,1,0,1,0,,,,,,,,,0.8969742967750395,586.4083787835152,None,"[87. 87. 93. 93. 87. 87. 93. 87. 93. 87. 93. 93. 93. 87. 87. 93. 93. 93.
 87. 87. 87. 87. 93. 93. 93. 87. 93. 93. 87. 93. 93. 87. 93. 87.]",587.3908586283942,None,s,1,0.8125544972208445,587.3908586283942,None,None,None,,,,,,,06_GA,26,F,6,2021_Nov_11_1413,Partial repeat,2021.2.3,120.09883485793212,
3,1,0,1,1,3,2,2,3,0,0,0,0,1,0,0,0,85,85,85,,,,,,,,,,,,,,,,,,,,,,,,,,,,,,,,06_GA,26,F,6,2021_Nov_11_1413,Partial repeat,2021.2.3,120.09883485793212,
7,1,0,1,1,2,3,2,2,1,1,0,1,1,0,0,0,86,86,86,0,0,0,0,,,,,,,588.2318190185852,None,0.7293287382761005,588.3983379440979,None,"[93. 87. 93. 93. 93. 93. 93. 87. 87. 87. 87. 93. 87. 87. 87. 87. 87. 87.
 93. 93. 93. 93. 93. 87. 93. 87. 93. 87. 93. 87. 87. 87. 87. 93.]",589.2142943734998,None,l,1,0.9891412019296695,589.2142943734998,None,None,None,,,,,,,06_GA,26,F,6,2021_Nov_11_1413,Partial repeat,2021.2.3,120.09883485793212,
7,1,0,1,1,2,3,2,2,1,1,0,1,1,0,0,0,86,86,86,1,0,1,0,,,,,,,,,0.75441854200723,590.2550548962081,None,"[93. 93. 87. 93. 93. 87. 93. 93. 93. 87. 87. 93. 93. 87. 87. 87. 87. 87.
 93. 87. 87. 93. 87. 93. 93. 87. 87. 93. 93. 93. 87. 87. 87. 87.]",591.0876748599931,None,l,1,1.2277933023015066,591.0876748599931,None,None,None,,,,,,,06_GA,26,F,6,2021_Nov_11_1413,Partial repeat,2021.2.3,120.09883485793212,
7,1,0,1,1,2,3,2,2,1,1,0,1,1,0,0,0,86,86,86,,,,,,,,,,,,,,,,,,,,,,,,,,,,,,,,06_GA,26,F,6,2021_Nov_11_1413,Partial repeat,2021.2.3,120.09883485793212,
4,6,0,1,1,2,2,3,3,0,1,1,1,0,0,0,0,87,87,87,0,0,0,0,,,,,,,592.3365999949965,None,0.924748062453428,592.4947852290497,None,"[87. 87. 87. 87. 93. 87. 87. 93. 93. 87. 87. 93. 87. 93. 87. 87. 87. 93.
 87. 93. 87. 87. 87. 93. 87. 87. 87. 93. 93. 93. 87. 93. 93. 93.]",593.5022632619075,None,s,1,0.9253327386068122,593.5022632619075,None,None,None,,,,,,,06_GA,26,F,6,2021_Nov_11_1413,Partial repeat,2021.2.3,120.09883485793212,
4,6,0,1,1,2,2,3,3,0,1,1,1,0,0,0,0,87,87,87,1,0,1,0,,,,,,,,,0.9475014790366385,594.4930533862989,None,"[87. 87. 87. 87. 93. 93. 87. 93. 93. 87. 87. 93. 87. 93. 93. 93. 93. 87.
 87. 87. 93. 93. 87. 93. 93. 93. 93. 87. 87. 93. 93. 87. 87. 87.]",595.5254827832377,None,l,1,1.157045280931925,595.5254827832377,None,None,None,,,,,,,06_GA,26,F,6,2021_Nov_11_1413,Partial repeat,2021.2.3,120.09883485793212,
4,6,0,1,1,2,2,3,3,0,1,1,1,0,0,0,0,87,87,87,,,,,,,,,,,,,,,,,,,,,,,,,,,,,,,,06_GA,26,F,6,2021_Nov_11_1413,Partial repeat,2021.2.3,120.09883485793212,
3,6,0,1,1,3,2,3,3,0,1,0,1,0,0,0,0,88,88,88,0,0,0,0,,,,,,,596.6994993050175,None,0.8619790894319421,596.8826753506819,None,"[93. 87. 93. 93. 93. 87. 93. 93. 87. 93. 93. 87. 87. 87. 87. 93. 93. 87.
 93. 93. 93. 93. 87. 93. 87. 87. 87. 93. 87. 87. 87. 87. 87. 87.]",597.8318618015146,None,s,1,1.362658632284365,597.8318618015146,None,None,None,,,,,,,06_GA,26,F,6,2021_Nov_11_1413,Partial repeat,2021.2.3,120.09883485793212,
3,6,0,1,1,3,2,3,3,0,1,0,1,0,0,0,0,88,88,88,1,0,1,0,,,,,,,,,0.8545091743362585,599.2556071616182,None,"[93. 93. 93. 87. 87. 93. 87. 87. 87. 93. 93. 87. 87. 93. 93. 93. 87. 87.
 93. 87. 93. 93. 87. 93. 87. 87. 87. 87. 87. 93. 87. 87. 87. 93.]",600.1964778808397,None,l,1,0.8700815027441422,600.1964778808397,None,None,None,,,,,,,06_GA,26,F,6,2021_Nov_11_1413,Partial repeat,2021.2.3,120.09883485793212,
3,6,0,1,1,3,2,3,3,0,1,0,1,0,0,0,0,88,88,88,,,,,,,,,,,,,,,,,,,,,,,,,,,,,,,,06_GA,26,F,6,2021_Nov_11_1413,Partial repeat,2021.2.3,120.09883485793212,
5,3,0,1,1,3,2,3,2,0,1,0,0,0,0,0,0,89,89,89,0,0,0,0,,,,,,,601.0873807674379,None,0.9810377290500125,601.228928444747,None,"[93. 87. 93. 87. 87. 87. 87. 87. 87. 87. 93. 93. 87. 93. 93. 87. 87. 93.
 87. 93. 87. 87. 93. 93. 93. 93. 87. 93. 87. 87. 87. 87. 93. 87.]",602.294645783637,None,l,0,2.9171584408195486,602.294645783637,None,605.2254807948266,None,,,,,,,06_GA,26,F,6,2021_Nov_11_1413,Partial repeat,2021.2.3,120.09883485793212,
5,3,0,1,1,3,2,3,2,0,1,0,0,0,0,0,0,89,89,89,1,0,1,0,,,,,,,,,0.9090612087072603,605.7666710711073,None,"[93. 87. 87. 87. 87. 93. 87. 93. 87. 87. 87. 93. 93. 93. 93. 87. 87. 93.
 87. 87. 87. 93. 87. 93. 93. 87. 93. 93. 87. 87. 87. 93. 87. 87.]",606.7658141296561,None,l,1,0.9087564377841773,606.7658141296561,None,None,None,,,,,,,06_GA,26,F,6,2021_Nov_11_1413,Partial repeat,2021.2.3,120.09883485793212,
5,3,0,1,1,3,2,3,2,0,1,0,0,0,0,0,0,89,89,89,,,,,,,,,,,,,,,,,,,,,,,,,,,,,,,,06_GA,26,F,6,2021_Nov_11_1413,Partial repeat,2021.2.3,120.09883485793212,
6,4,0,1,1,2,2,2,2,1,0,1,1,0,0,0,0,90,90,90,0,0,0,0,,,,,,,607.6900177866664,None,0.7793650812034993,607.9065064690749,None,"[87. 87. 93. 93. 93. 93. 87. 87. 87. 93. 87. 87. 87. 87. 93. 93. 93. 93.
 93. 93. 87. 93. 93. 87. 87. 87. 87. 93. 93. 87. 87. 87. 87. 87.]",608.7724323346592,None,l,1,1.989324328264047,608.7724323346592,None,None,None,,,,,,,06_GA,26,F,6,2021_Nov_11_1413,Partial repeat,2021.2.3,120.09883485793212,
6,4,0,1,1,2,2,2,2,1,0,1,1,0,0,0,0,90,90,90,1,0,1,0,,,,,,,,,0.7539743221706386,610.8206647967036,None,"[87. 93. 87. 87. 93. 93. 87. 87. 93. 93. 93. 93. 87. 93. 93. 87. 93. 87.
 93. 93. 87. 87. 93. 87. 87. 87. 93. 87. 87. 93. 93. 87. 87. 87.]",611.653274818429,None,s,1,0.7415521515376895,611.653274818429,None,None,None,,,,,,,06_GA,26,F,6,2021_Nov_11_1413,Partial repeat,2021.2.3,120.09883485793212,
6,4,0,1,1,2,2,2,2,1,0,1,1,0,0,0,0,90,90,90,,,,,,,,,,,,,,,,,,,,,,,,,,,,,,,,06_GA,26,F,6,2021_Nov_11_1413,Partial repeat,2021.2.3,120.09883485793212,
2,2,0,1,1,3,3,3,2,0,0,1,0,1,0,0,0,91,91,91,0,0,0,0,,,,,,,612.4109351758434,None,0.9429763602970181,612.577477513305,None,"[87. 87. 93. 93. 93. 87. 87. 93. 93. 87. 93. 87. 93. 87. 87. 87. 93. 93.
 87. 93. 93. 87. 93. 93. 87. 87. 87. 87. 93. 93. 87. 93. 93. 93.]",613.6099293600582,None,s,1,0.6237345684585307,613.6099293600582,None,None,None,,,,,,,06_GA,26,F,6,2021_Nov_11_1413,Partial repeat,2021.2.3,120.09883485793212,
2,2,0,1,1,3,3,3,2,0,0,1,0,1,0,0,0,91,91,91,1,0,1,0,,,,,,,,,0.9234102068603731,614.2843551098667,None,"[87. 87. 87. 87. 93. 93. 93. 87. 93. 87. 87. 93. 87. 93. 93. 93. 87. 87.
 87. 93. 87. 93. 87. 93. 93. 87. 87. 93. 93. 87. 87. 93. 87. 93.]",615.2917709246703,None,s,1,0.6859067610930651,615.2917709246703,None,None,None,,,,,,,06_GA,26,F,6,2021_Nov_11_1413,Partial repeat,2021.2.3,120.09883485793212,
2,2,0,1,1,3,3,3,2,0,0,1,0,1,0,0,0,91,91,91,,,,,,,,,,,,,,,,,,,,,,,,,,,,,,,,06_GA,26,F,6,2021_Nov_11_1413,Partial repeat,2021.2.3,120.09883485793212,
7,6,0,1,1,2,3,3,3,0,0,0,1,1,0,0,0,92,92,92,0,0,0,0,,,,,,,616.0078500583386,None,0.7542177343930356,616.141072061977,None,"[87. 93. 87. 87. 87. 93. 93. 87. 93. 93. 93. 93. 87. 87. 93. 87. 87. 87.
 87. 87. 93. 87. 87. 87. 87. 87. 87. 93. 93. 93. 93. 87. 87. 93.]",616.9820164165867,None,s,1,0.8517294216781011,616.9820164165867,None,None,None,,,,,,,06_GA,26,F,6,2021_Nov_11_1413,Partial repeat,2021.2.3,120.09883485793212,
7,6,0,1,1,2,3,3,3,0,0,0,1,1,0,0,0,92,92,92,1,0,1,0,,,,,,,,,0.9706524123034512,617.8978886271179,None,"[93. 93. 87. 87. 87. 87. 87. 87. 87. 93. 87. 93. 87. 93. 87. 93. 93. 87.
 93. 87. 87. 93. 87. 87. 93. 87. 93. 87. 87. 87. 87. 93. 87. 87.]",618.9553056285531,None,s,1,0.9264250823853217,618.9553056285531,None,None,None,,,,,,,06_GA,26,F,6,2021_Nov_11_1413,Partial repeat,2021.2.3,120.09883485793212,
7,6,0,1,1,2,3,3,3,0,0,0,1,1,0,0,0,92,92,92,,,,,,,,,,,,,,,,,,,,,,,,,,,,,,,,06_GA,26,F,6,2021_Nov_11_1413,Partial repeat,2021.2.3,120.09883485793212,
7,8,0,1,1,3,3,3,3,0,1,1,1,0,0,0,0,93,93,93,0,0,0,0,,,,,,,619.8961657642922,None,0.9813131859831394,620.1126451460623,None,"[87. 93. 87. 93. 87. 87. 87. 93. 87. 87. 93. 93. 87. 93. 93. 93. 93. 87.
 87. 87. 93. 87. 93. 87. 93. 93. 93. 93. 87. 87. 93. 93. 93. 93.]",621.1784227787357,None,s,1,0.7193168941685144,621.1784227787357,None,None,None,,,,,,,06_GA,26,F,6,2021_Nov_11_1413,Partial repeat,2021.2.3,120.09883485793212,
7,8,0,1,1,3,3,3,3,0,1,1,1,0,0,0,0,93,93,93,1,0,1,0,,,,,,,,,0.9013582793685491,621.9610534222174,None,"[87. 87. 93. 87. 87. 93. 87. 93. 93. 87. 87. 87. 93. 93. 93. 87. 87. 87.
 93. 93. 87. 93. 87. 87. 87. 93. 93. 93. 93. 87. 87. 93. 93. 87.]",622.9518688828266,None,l,1,0.9299282154170214,622.9518688828266,None,None,None,,,,,,,06_GA,26,F,6,2021_Nov_11_1413,Partial repeat,2021.2.3,120.09883485793212,
7,8,0,1,1,3,3,3,3,0,1,1,1,0,0,0,0,93,93,93,,,,,,,,,,,,,,,,,,,,,,,,,,,,,,,,06_GA,26,F,6,2021_Nov_11_1413,Partial repeat,2021.2.3,120.09883485793212,
4,1,0,1,1,2,2,3,3,1,0,1,1,0,0,0,0,94,94,94,0,0,0,0,,,,,,,623.909376838079,None,0.7727085162954597,624.0842220786872,None,"[87. 87. 93. 93. 87. 93. 93. 93. 87. 93. 93. 93. 87. 87. 93. 93. 87. 93.
 87. 93. 93. 87. 93. 87. 87. 93. 93. 93. 93. 93. 93. 87. 87. 87.]",624.9417937272665,None,l,1,0.9719388720222923,624.9417937272665,None,None,None,,,,,,,06_GA,26,F,6,2021_Nov_11_1413,Partial repeat,2021.2.3,120.09883485793212,
4,1,0,1,1,2,2,3,3,1,0,1,1,0,0,0,0,94,94,94,1,0,1,0,,,,,,,,,0.901309413561409,625.9742574403499,None,"[87. 93. 87. 87. 93. 93. 87. 87. 87. 87. 93. 93. 93. 87. 93. 93. 87. 93.
 93. 93. 87. 93. 93. 93. 93. 87. 87. 87. 93. 87. 87. 87. 87. 93.]",626.9650761080757,None,s,1,0.980834450245311,626.9650761080757,None,None,None,,,,,,,06_GA,26,F,6,2021_Nov_11_1413,Partial repeat,2021.2.3,120.09883485793212,
4,1,0,1,1,2,2,3,3,1,0,1,1,0,0,0,0,94,94,94,,,,,,,,,,,,,,,,,,,,,,,,,,,,,,,,06_GA,26,F,6,2021_Nov_11_1413,Partial repeat,2021.2.3,120.09883485793212,
4,4,0,1,1,2,3,3,2,1,0,0,0,0,0,0,0,95,95,95,0,0,0,0,,,,,,,627.955886116586,None,0.8484254903710183,628.1307416199652,None,"[87. 93. 87. 87. 93. 87. 93. 87. 93. 87. 87. 87. 87. 93. 93. 93. 87. 93.
 87. 87. 87. 87. 93. 93. 93. 87. 87. 93. 87. 93. 87. 87. 87. 93.]",629.0632635742804,None,l,1,1.05757689251368,629.0632635742804,None,None,None,,,,,,,06_GA,26,F,6,2021_Nov_11_1413,Partial repeat,2021.2.3,120.09883485793212,
4,4,0,1,1,2,3,3,2,1,0,0,0,0,0,0,0,95,95,95,1,0,1,0,,,,,,,,,0.7367823603372944,630.1706448805126,None,"[93. 93. 93. 87. 87. 87. 87. 87. 93. 93. 93. 87. 93. 87. 93. 93. 87. 93.
 93. 87. 93. 93. 93. 93. 93. 87. 87. 93. 93. 93. 93. 87. 87. 87.]",630.9949199279308,None,s,1,0.9825691794012528,630.9949199279308,None,None,None,,,,,,,06_GA,26,F,6,2021_Nov_11_1413,Partial repeat,2021.2.3,120.09883485793212,
4,4,0,1,1,2,3,3,2,1,0,0,0,0,0,0,0,95,95,95,,,,,,,,,,,,,,,,,,,,,,,,,,,,,,,,06_GA,26,F,6,2021_Nov_11_1413,Partial repeat,2021.2.3,120.09883485793212,
2,4,0,1,1,3,2,2,2,0,1,0,1,0,0,0,0,96,96,96,0,0,0,0,,,,,,,631.9857434063306,None,0.9401643832178188,632.1605918540536,None,"[93. 93. 93. 93. 93. 93. 87. 93. 87. 87. 93. 93. 87. 93. 87. 93. 87. 87.
 93. 87. 93. 93. 87. 93. 87. 87. 87. 93. 93. 87. 87. 87. 87. 93.]",633.1846830695704,None,s,1,0.6321756983106752,633.1846830695704,None,None,None,,,,,,,06_GA,26,F,6,2021_Nov_11_1413,Partial repeat,2021.2.3,120.09883485793212,
2,4,0,1,1,3,2,2,2,0,1,0,1,0,0,0,0,96,96,96,1,0,1,0,,,,,,,,,0.7307414725140517,633.8757729951831,None,"[93. 93. 93. 87. 93. 87. 87. 87. 93. 87. 87. 93. 87. 93. 87. 93. 87. 87.
 93. 87. 93. 93. 87. 93. 93. 93. 93. 93. 93. 87. 87. 93. 87. 87.]",634.6917416116266,None,l,1,1.0771326042922738,634.6917416116266,None,None,None,,,,,,,06_GA,26,F,6,2021_Nov_11_1413,Partial repeat,2021.2.3,120.09883485793212,
2,4,0,1,1,3,2,2,2,0,1,0,1,0,0,0,0,96,96,96,,,,,,,,,,,,,,,,,,,,,,,,,,,,,,,,06_GA,26,F,6,2021_Nov_11_1413,Partial repeat,2021.2.3,120.09883485793212,
1,5,0,1,1,2,2,3,2,0,0,1,0,1,0,0,0,97,97,97,0,0,0,0,,,,,,,635.7908017341524,None,0.9839126105248732,635.9489914581663,None,"[87. 93. 93. 93. 87. 93. 93. 87. 87. 93. 87. 93. 87. 87. 93. 93. 93. 93.
 93. 93. 93. 87. 87. 93. 87. 93. 93. 87. 93. 87. 87. 87. 87. 93.]",637.0230845017395,None,s,1,0.7298128233760508,637.0230845017395,None,None,None,,,,,,,06_GA,26,F,6,2021_Nov_11_1413,Partial repeat,2021.2.3,120.09883485793212,
1,5,0,1,1,2,2,3,2,0,0,1,0,1,0,0,0,97,97,97,1,0,1,0,,,,,,,,,0.9942742156040939,637.8057234837233,None,"[93. 87. 87. 87. 87. 93. 93. 93. 93. 93. 93. 93. 87. 87. 93. 93. 93. 87.
 93. 93. 87. 93. 87. 93. 93. 93. 87. 93. 93. 87. 87. 93. 93. 87.]",638.8881248825401,None,s,1,0.6089289164920046,638.8881248825401,None,None,None,,,,,,,06_GA,26,F,6,2021_Nov_11_1413,Partial repeat,2021.2.3,120.09883485793212,
1,5,0,1,1,2,2,3,2,0,0,1,0,1,0,0,0,97,97,97,,,,,,,,,,,,,,,,,,,,,,,,,,,,,,,,06_GA,26,F,6,2021_Nov_11_1413,Partial repeat,2021.2.3,120.09883485793212,
1,6,0,1,1,3,3,3,3,1,0,1,1,0,0,0,0,98,98,98,0,0,0,0,,,,,,,639.5209103976631,None,0.8084387519165728,639.6957639767734,None,"[93. 87. 93. 87. 93. 87. 93. 93. 87. 93. 93. 87. 93. 93. 93. 87. 87. 87.
 93. 93. 93. 87. 93. 87. 93. 93. 87. 93. 87. 87. 93. 93. 87. 87.]",640.5866546763282,None,l,1,1.3413746055830416,640.5866546763282,None,None,None,,,,,,,06_GA,26,F,6,2021_Nov_11_1413,Partial repeat,2021.2.3,120.09883485793212,
1,6,0,1,1,3,3,3,3,1,0,1,1,0,0,0,0,98,98,98,1,0,1,0,,,,,,,,,0.9782952050833371,641.9937884573319,None,"[87. 87. 93. 87. 93. 93. 93. 93. 87. 93. 87. 93. 93. 87. 93. 93. 87. 93.
 93. 87. 93. 93. 93. 93. 93. 87. 93. 87. 87. 87. 87. 93. 93. 87.]",643.059532735997,None,s,1,1.3014190690428222,643.059532735997,None,None,None,,,,,,,06_GA,26,F,6,2021_Nov_11_1413,Partial repeat,2021.2.3,120.09883485793212,
1,6,0,1,1,3,3,3,3,1,0,1,1,0,0,0,0,98,98,98,,,,,,,,,,,,,,,,,,,,,,,,,,,,,,,,06_GA,26,F,6,2021_Nov_11_1413,Partial repeat,2021.2.3,120.09883485793212,
5,1,0,1,1,2,2,2,2,0,1,1,1,0,0,0,0,99,99,99,0,0,0,0,,,,,,,644.3833857269219,None,0.7310160277448817,644.5415889208252,None,"[87. 87. 93. 93. 87. 87. 93. 87. 93. 87. 87. 93. 87. 87. 93. 93. 93. 87.
 87. 93. 93. 93. 93. 87. 87. 87. 87. 87. 93. 87. 93. 87. 93. 93.]",645.357547274496,None,s,1,0.9224501825610787,645.357547274496,None,None,None,,,,,,,06_GA,26,F,6,2021_Nov_11_1413,Partial repeat,2021.2.3,120.09883485793212,
5,1,0,1,1,2,2,2,2,0,1,1,1,0,0,0,0,99,99,99,1,0,1,0,,,,,,,,,0.9199112780726231,646.3317155570148,None,"[93. 93. 87. 93. 87. 87. 93. 93. 93. 93. 87. 93. 93. 93. 93. 87. 87. 87.
 87. 93. 87. 87. 93. 87. 87. 93. 87. 87. 87. 93. 93. 87. 93. 87.]",647.339175309311,None,l,1,1.3419448308450228,647.339175309311,None,None,None,,,,,,,06_GA,26,F,6,2021_Nov_11_1413,Partial repeat,2021.2.3,120.09883485793212,
5,1,0,1,1,2,2,2,2,0,1,1,1,0,0,0,0,99,99,99,,,,,,,,,,,,,,,,,,,,,,,,,,,,,,,,06_GA,26,F,6,2021_Nov_11_1413,Partial repeat,2021.2.3,120.09883485793212,
2,7,0,1,1,2,2,2,2,1,1,1,1,1,0,0,0,100,100,100,0,0,0,0,,,,,,,648.7046807219613,None,0.9428984180298232,648.8794958156759,None,"[93. 93. 87. 87. 87. 93. 93. 93. 93. 93. 93. 87. 87. 93. 93. 93. 93. 87.
 87. 93. 87. 93. 87. 87. 87. 87. 93. 87. 87. 93. 93. 87. 93. 93.]",649.9119560009312,None,l,1,0.928048845320518,649.9119560009312,None,None,None,,,,,,,06_GA,26,F,6,2021_Nov_11_1413,Partial repeat,2021.2.3,120.09883485793212,
2,7,0,1,1,2,2,2,2,1,1,1,1,1,0,0,0,100,100,100,1,0,1,0,,,,,,,,,0.8917999633583242,650.9027493324393,None,"[87. 93. 87. 87. 93. 93. 93. 87. 87. 93. 87. 87. 87. 93. 93. 87. 93. 93.
 87. 87. 87. 87. 93. 87. 93. 87. 87. 87. 93. 87. 93. 93. 87. 87.]",651.8769365369426,None,l,1,0.8510995440556144,651.8769365369426,None,None,None,,,,,,,06_GA,26,F,6,2021_Nov_11_1413,Partial repeat,2021.2.3,120.09883485793212,
2,7,0,1,1,2,2,2,2,1,1,1,1,1,0,0,0,100,100,100,,,,,,,,,,,,,,,,,,,,,,,,,,,,,,,,06_GA,26,F,6,2021_Nov_11_1413,Partial repeat,2021.2.3,120.09883485793212,
8,2,0,1,1,2,3,2,3,0,0,0,0,1,0,0,0,101,101,101,0,0,0,0,,,,,,,652.7511685127902,None,0.7246716108807241,652.9260211297642,None,"[87. 87. 87. 87. 87. 93. 87. 87. 93. 93. 93. 93. 93. 93. 93. 87. 87. 87.
 93. 87. 87. 87. 93. 93. 93. 93. 87. 93. 87. 87. 93. 87. 93. 87.]",653.7336608654223,None,s,1,0.8984019424024154,653.7336608654223,None,None,None,,,,,,,06_GA,26,F,6,2021_Nov_11_1413,Partial repeat,2021.2.3,120.09883485793212,
8,2,0,1,1,2,3,2,3,0,0,0,0,1,0,0,0,101,101,101,1,0,1,0,,,,,,,,,0.8938141814587793,654.6911341838186,None,"[93. 93. 87. 87. 87. 93. 87. 87. 93. 87. 87. 87. 93. 87. 87. 93. 93. 93.
