prime_tar_pos,probe_tar_pos,dimension,tar_color,tar_shape,prime_dist_color,probe_dist_color,prime_dist_shape,probe_dist_shape,prime_tar_ori,probe_tar_ori,col_rep,shape_rep,resp_rep,pos_fixed,sparse,MainLoop.thisRepN,MainLoop.thisTrialN,MainLoop.thisN,MainLoop.thisIndex,PrimeProbe.thisRepN,PrimeProbe.thisTrialN,PrimeProbe.thisN,PrimeProbe.thisIndex,Instruction.started,Instruction.stopped,instruction_key.keys,instruction_key.rt,instruction_key.started,instruction_key.stopped,PairStartText.started,PairStartText.stopped,fixdur,FixCross.started,FixCross.stopped,dist_ori,SearchFixCross.started,SearchFixCross.stopped,key_resp.keys,key_resp.corr,key_resp.rt,key_resp.started,key_resp.stopped,feedback_text.started,feedback_text.stopped,text_finish.started,text_finish.stopped,finish_key.keys,finish_key.rt,finish_key.started,finish_key.stopped,participant,age,gender,group,date,expName,psychopyVersion,frameRate,
,,,,,,,,,,,,,,,,,,,,,,,,37.038726248898456,None,space,2.1864581629779423,37.038726248898456,None,,,,,,,,,,,,,,,,,,,,,,07_NS,28,M,7,2021_Oct_29_1659,Partial repeat,2021.2.3,120.08079672068087,
7,4,0,1,1,2,3,3,3,0,1,0,1,0,0,0,0,0,0,0,0,0,0,0,,,,,,,80.42695215559797,None,0.7875948288333476,85.50524491784381,None,"[87. 93. 93. 93. 87. 87. 93. 87. 87. 93. 87. 93. 93. 93. 93. 87. 87. 87.
 87. 93. 93. 87. 87. 93. 93. 87. 87. 87. 93. 93. 87. 87. 93. 93.]",86.3795022299073,None,s,1,0.7951547075663257,86.3795022299073,None,None,None,,,,,,,07_NS,28,M,7,2021_Oct_29_1659,Partial repeat,2021.2.3,120.08079672068087,
7,4,0,1,1,2,3,3,3,0,1,0,1,0,0,0,0,0,0,0,1,0,1,0,,,,,,,,,0.9301816761899748,87.2454438103614,None,"[93. 87. 87. 87. 93. 87. 93. 87. 93. 93. 87. 87. 87. 87. 87. 87. 93. 93.
 93. 87. 87. 93. 93. 87. 87. 93. 87. 93. 87. 93. 87. 93. 93. 93.]",88.26121897355551,None,l,1,0.8339746042602201,88.26121897355551,None,None,None,,,,,,,07_NS,28,M,7,2021_Oct_29_1659,Partial repeat,2021.2.3,120.08079672068087,
7,4,0,1,1,2,3,3,3,0,1,0,1,0,0,0,0,0,0,0,,,,,,,,,,,,,,,,,,,,,,,,,,,,,,,,07_NS,28,M,7,2021_Oct_29_1659,Partial repeat,2021.2.3,120.08079672068087,
4,7,0,1,1,2,2,2,3,1,1,1,0,1,0,0,0,1,1,1,0,0,0,0,,,,,,,89.12713265209823,None,0.8316900092473453,90.38437576369506,None,"[87. 87. 93. 93. 87. 93. 87. 93. 93. 87. 87. 87. 87. 87. 87. 87. 87. 93.
 87. 93. 87. 87. 87. 87. 93. 87. 87. 93. 93. 87. 93. 87. 87. 87.]",91.30024476710787,None,l,1,0.8504595022695867,91.30024476710787,None,None,None,,,,,,,07_NS,28,M,7,2021_Oct_29_1659,Partial repeat,2021.2.3,120.08079672068087,
4,7,0,1,1,2,2,2,3,1,1,1,0,1,0,0,0,1,1,1,1,0,1,0,,,,,,,,,0.9290373705386249,92.22446830823901,None,"[87. 93. 93. 87. 93. 87. 87. 93. 87. 87. 87. 87. 87. 87. 87. 93. 87. 87.
 93. 93. 93. 93. 87. 93. 87. 93. 93. 87. 93. 93. 87. 87. 87. 93.]",93.24025245135817,None,l,1,0.7344751068139885,93.24025245135817,None,None,None,,,,,,,07_NS,28,M,7,2021_Oct_29_1659,Partial repeat,2021.2.3,120.08079672068087,
4,7,0,1,1,2,2,2,3,1,1,1,0,1,0,0,0,1,1,1,,,,,,,,,,,,,,,,,,,,,,,,,,,,,,,,07_NS,28,M,7,2021_Oct_29_1659,Partial repeat,2021.2.3,120.08079672068087,
3,2,0,1,1,2,3,2,2,1,0,0,1,0,0,0,0,2,2,2,0,0,0,0,,,,,,,94.006263177238,None,0.9193167438908126,94.77225786753661,None,"[93. 87. 87. 87. 87. 93. 93. 87. 93. 87. 93. 93. 93. 87. 87. 93. 93. 87.
 87. 93. 93. 87. 93. 87. 87. 87. 87. 87. 93. 87. 87. 93. 93. 87.]",95.77972018552464,None,l,1,0.8030201600631699,95.77972018552464,None,None,None,,,,,,,07_NS,28,M,7,2021_Oct_29_1659,Partial repeat,2021.2.3,120.08079672068087,
3,2,0,1,1,2,3,2,2,1,0,0,1,0,0,0,0,2,2,2,1,0,1,0,,,,,,,,,0.9905786227346791,96.64564059901204,None,"[93. 93. 93. 93. 87. 87. 87. 87. 93. 93. 87. 87. 93. 87. 87. 87. 87. 87.
 87. 87. 87. 87. 87. 93. 93. 93. 93. 87. 93. 87. 87. 87. 93. 93.]",97.71971151348225,None,s,1,0.7181627516565641,97.71971151348225,None,None,None,,,,,,,07_NS,28,M,7,2021_Oct_29_1659,Partial repeat,2021.2.3,120.08079672068087,
3,2,0,1,1,2,3,2,2,1,0,0,1,0,0,0,0,2,2,2,,,,,,,,,,,,,,,,,,,,,,,,,,,,,,,,07_NS,28,M,7,2021_Oct_29_1659,Partial repeat,2021.2.3,120.08079672068087,
4,8,0,1,1,2,2,3,2,0,0,1,0,1,0,0,0,3,3,3,0,0,0,0,,,,,,,98.46908468261972,None,0.9291196410940774,99.03524267927605,None,"[93. 93. 87. 87. 87. 87. 87. 93. 93. 87. 87. 87. 93. 93. 87. 87. 87. 87.
 93. 93. 87. 87. 87. 87. 93. 93. 93. 93. 87. 93. 93. 93. 87. 87.]",100.05106242138572,None,s,1,0.9627351885465032,100.05106242138572,None,None,None,,,,,,,07_NS,28,M,7,2021_Oct_29_1659,Partial repeat,2021.2.3,120.08079672068087,
4,8,0,1,1,2,2,3,2,0,0,1,0,1,0,0,0,3,3,3,1,0,1,0,,,,,,,,,0.8090496398279944,101.06682764251855,None,"[87. 93. 87. 93. 87. 87. 93. 93. 93. 87. 87. 87. 87. 87. 93. 87. 93. 87.
 87. 87. 93. 93. 87. 93. 93. 93. 87. 93. 93. 87. 87. 93. 87. 87.]",101.95772635986577,None,s,1,0.8000955907955358,101.95772635986577,None,None,None,,,,,,,07_NS,28,M,7,2021_Oct_29_1659,Partial repeat,2021.2.3,120.08079672068087,
4,8,0,1,1,2,2,3,2,0,0,1,0,1,0,0,0,3,3,3,,,,,,,,,,,,,,,,,,,,,,,,,,,,,,,,07_NS,28,M,7,2021_Oct_29_1659,Partial repeat,2021.2.3,120.08079672068087,
3,3,0,1,1,3,3,2,2,0,0,1,1,1,0,0,0,4,4,4,0,0,0,0,,,,,,,102.77369112776978,None,0.9971289396588499,103.48141925154778,None,"[87. 93. 93. 93. 87. 93. 93. 87. 87. 93. 87. 93. 93. 87. 87. 87. 87. 87.
 93. 93. 87. 87. 93. 87. 93. 93. 93. 93. 93. 93. 87. 93. 93. 93.]",104.56381648111346,None,s,1,0.8340175796165568,104.56381648111346,None,None,None,,,,,,,07_NS,28,M,7,2021_Oct_29_1659,Partial repeat,2021.2.3,120.08079672068087,
3,3,0,1,1,3,3,2,2,0,0,1,1,1,0,0,0,4,4,4,1,0,1,0,,,,,,,,,0.8799384712656118,105.46305017276791,None,"[93. 87. 93. 87. 87. 87. 87. 93. 87. 93. 87. 87. 87. 93. 93. 87. 93. 93.
 93. 87. 93. 87. 87. 93. 93. 87. 87. 87. 93. 93. 93. 87. 93. 87.]",106.42055492090185,None,s,1,0.8012966558144399,106.42055492090185,None,None,None,,,,,,,07_NS,28,M,7,2021_Oct_29_1659,Partial repeat,2021.2.3,120.08079672068087,
3,3,0,1,1,3,3,2,2,0,0,1,1,1,0,0,0,4,4,4,,,,,,,,,,,,,,,,,,,,,,,,,,,,,,,,07_NS,28,M,7,2021_Oct_29_1659,Partial repeat,2021.2.3,120.08079672068087,
8,3,0,1,1,3,2,3,2,0,1,0,0,0,0,0,0,5,5,5,0,0,0,0,,,,,,,107.2531915616928,None,0.865859563350627,108.39384092575347,None,"[93. 87. 87. 93. 87. 93. 87. 93. 87. 87. 93. 93. 87. 87. 87. 87. 93. 93.
 93. 93. 87. 87. 87. 93. 87. 87. 87. 87. 93. 87. 87. 87. 93. 93.]",109.34303250797166,None,s,1,0.7266173513980902,109.34303250797166,None,None,None,,,,,,,07_NS,28,M,7,2021_Oct_29_1659,Partial repeat,2021.2.3,120.08079672068087,
8,3,0,1,1,3,2,3,2,0,1,0,0,0,0,0,0,5,5,5,1,0,1,0,,,,,,,,,0.8875955382252749,110.13402089628653,None,"[87. 93. 87. 93. 87. 93. 93. 87. 93. 87. 93. 93. 87. 93. 93. 93. 87. 93.
 87. 93. 93. 87. 93. 93. 87. 93. 87. 87. 93. 93. 93. 93. 93. 93.]",111.10819495161377,None,l,1,0.7537203697429504,111.10819495161377,None,None,None,,,,,,,07_NS,28,M,7,2021_Oct_29_1659,Partial repeat,2021.2.3,120.08079672068087,
8,3,0,1,1,3,2,3,2,0,1,0,0,0,0,0,0,5,5,5,,,,,,,,,,,,,,,,,,,,,,,,,,,,,,,,07_NS,28,M,7,2021_Oct_29_1659,Partial repeat,2021.2.3,120.08079672068087,
5,7,0,1,1,2,3,2,2,0,0,0,1,1,0,0,0,6,6,6,0,0,0,0,,,,,,,111.88251884341116,None,0.7123851288975352,112.59025049501724,None,"[93. 87. 87. 93. 93. 87. 87. 93. 87. 87. 93. 93. 93. 93. 93. 93. 93. 93.
 87. 87. 87. 93. 93. 87. 87. 93. 87. 93. 93. 93. 87. 93. 93. 93.]",113.3895632741569,None,s,1,0.679455104031149,113.3895632741569,None,None,None,,,,,,,07_NS,28,M,7,2021_Oct_29_1659,Partial repeat,2021.2.3,120.08079672068087,
5,7,0,1,1,2,3,2,2,0,0,0,1,1,0,0,0,6,6,6,1,0,1,0,,,,,,,,,0.7678146467695752,114.12225623190716,None,"[87. 93. 87. 87. 93. 87. 93. 87. 87. 93. 93. 87. 93. 87. 87. 93. 93. 93.
 93. 87. 93. 87. 87. 87. 87. 93. 87. 93. 87. 93. 93. 87. 93. 87.]",114.9798503303009,None,s,1,0.897252289849348,114.9798503303009,None,None,None,,,,,,,07_NS,28,M,7,2021_Oct_29_1659,Partial repeat,2021.2.3,120.08079672068087,
5,7,0,1,1,2,3,2,2,0,0,0,1,1,0,0,0,6,6,6,,,,,,,,,,,,,,,,,,,,,,,,,,,,,,,,07_NS,28,M,7,2021_Oct_29_1659,Partial repeat,2021.2.3,120.08079672068087,
3,7,0,1,1,2,3,2,3,0,1,0,0,0,0,0,0,7,7,7,0,0,0,0,,,,,,,115.88739782929588,None,0.9921773395711584,117.05305371983741,None,"[87. 87. 87. 93. 87. 93. 87. 93. 87. 87. 87. 93. 87. 93. 93. 93. 87. 93.
 87. 87. 87. 87. 87. 87. 93. 87. 87. 93. 87. 93. 93. 87. 87. 93.]",118.13546890925318,None,s,1,0.701489275212225,118.13546890925318,None,None,None,,,,,,,07_NS,28,M,7,2021_Oct_29_1659,Partial repeat,2021.2.3,120.08079672068087,
3,7,0,1,1,2,3,2,3,0,1,0,0,0,0,0,0,7,7,7,1,0,1,0,,,,,,,,,0.899688383658221,118.89313471876449,None,"[87. 87. 93. 93. 87. 87. 93. 93. 87. 93. 93. 93. 93. 87. 87. 87. 93. 93.
 87. 87. 87. 87. 93. 87. 87. 93. 87. 93. 87. 87. 87. 87. 93. 87.]",119.8756479176518,None,l,1,0.7853284242246446,119.8756479176518,None,None,None,,,,,,,07_NS,28,M,7,2021_Oct_29_1659,Partial repeat,2021.2.3,120.08079672068087,
3,7,0,1,1,2,3,2,3,0,1,0,0,0,0,0,0,7,7,7,,,,,,,,,,,,,,,,,,,,,,,,,,,,,,,,07_NS,28,M,7,2021_Oct_29_1659,Partial repeat,2021.2.3,120.08079672068087,
5,8,0,1,1,3,2,2,3,0,0,0,0,1,0,0,0,8,8,8,0,0,0,0,,,,,,,120.68327033488094,None,0.9852603325122582,121.67409285114445,None,"[93. 93. 87. 87. 93. 87. 93. 93. 93. 87. 87. 93. 87. 93. 87. 93. 87. 93.
 87. 93. 93. 93. 93. 87. 87. 87. 87. 93. 87. 93. 93. 93. 87. 87.]",122.74816312419352,None,s,1,0.8088885412962554,122.74816312419352,None,None,None,,,,,,,07_NS,28,M,7,2021_Oct_29_1659,Partial repeat,2021.2.3,120.08079672068087,
5,8,0,1,1,3,2,2,3,0,0,0,0,1,0,0,0,8,8,8,1,0,1,0,,,,,,,,,0.879349146087162,123.61407872700511,None,"[87. 87. 87. 87. 87. 93. 93. 93. 87. 87. 93. 87. 87. 87. 93. 87. 87. 93.
 93. 87. 87. 87. 87. 93. 87. 87. 87. 87. 93. 87. 93. 93. 87. 93.]",124.57991107308226,None,s,1,0.6411226890013495,124.57991107308226,None,None,None,,,,,,,07_NS,28,M,7,2021_Oct_29_1659,Partial repeat,2021.2.3,120.08079672068087,
5,8,0,1,1,3,2,2,3,0,0,0,0,1,0,0,0,8,8,8,,,,,,,,,,,,,,,,,,,,,,,,,,,,,,,,07_NS,28,M,7,2021_Oct_29_1659,Partial repeat,2021.2.3,120.08079672068087,
7,1,0,1,1,2,3,2,3,0,0,0,0,1,0,0,0,9,9,9,0,0,0,0,,,,,,,125.24599832075364,None,0.7863084881384137,125.87879923003493,None,"[87. 87. 93. 93. 93. 93. 93. 87. 93. 93. 93. 93. 93. 93. 93. 93. 87. 87.
 93. 87. 93. 93. 87. 87. 87. 93. 93. 93. 87. 87. 93. 93. 87. 93.]",126.75302607449521,None,s,1,0.820042250037659,126.75302607449521,None,None,None,,,,,,,07_NS,28,M,7,2021_Oct_29_1659,Partial repeat,2021.2.3,120.08079672068087,
7,1,0,1,1,2,3,2,3,0,0,0,0,1,0,0,0,9,9,9,1,0,1,0,,,,,,,,,0.8380453650260296,127.62727985873244,None,"[87. 93. 87. 87. 93. 87. 87. 93. 87. 87. 93. 87. 93. 87. 87. 93. 87. 87.
 87. 93. 87. 87. 87. 87. 93. 93. 87. 87. 87. 87. 87. 87. 93. 87.]",128.55149281637932,None,s,1,0.6686471224165871,128.55149281637932,None,None,None,,,,,,,07_NS,28,M,7,2021_Oct_29_1659,Partial repeat,2021.2.3,120.08079672068087,
7,1,0,1,1,2,3,2,3,0,0,0,0,1,0,0,0,9,9,9,,,,,,,,,,,,,,,,,,,,,,,,,,,,,,,,07_NS,28,M,7,2021_Oct_29_1659,Partial repeat,2021.2.3,120.08079672068087,
8,7,0,1,1,3,2,2,2,0,1,0,1,0,0,0,0,10,10,10,0,0,0,0,,,,,,,129.2508930215081,None,0.9455858499298555,129.95028296386226,None,"[93. 93. 87. 93. 93. 93. 87. 93. 93. 87. 87. 87. 87. 87. 87. 93. 93. 87.
 87. 87. 87. 93. 93. 87. 87. 93. 93. 87. 93. 87. 87. 87. 93. 87.]",130.9827450733883,None,s,1,1.149341886413822,130.9827450733883,None,None,None,,,,,,,07_NS,28,M,7,2021_Oct_29_1659,Partial repeat,2021.2.3,120.08079672068087,
8,7,0,1,1,3,2,2,2,0,1,0,1,0,0,0,0,10,10,10,1,0,1,0,,,,,,,,,0.7872018389181513,132.19834153606644,None,"[87. 93. 87. 87. 93. 93. 87. 93. 87. 87. 93. 87. 93. 87. 87. 93. 93. 87.
 93. 87. 93. 93. 93. 93. 93. 87. 93. 93. 87. 87. 93. 93. 93. 93.]",133.0642706087674,None,l,1,0.6678382877107651,133.0642706087674,None,None,None,,,,,,,07_NS,28,M,7,2021_Oct_29_1659,Partial repeat,2021.2.3,120.08079672068087,
8,7,0,1,1,3,2,2,2,0,1,0,1,0,0,0,0,10,10,10,,,,,,,,,,,,,,,,,,,,,,,,,,,,,,,,07_NS,28,M,7,2021_Oct_29_1659,Partial repeat,2021.2.3,120.08079672068087,
8,2,0,1,1,2,2,3,3,1,0,1,1,0,0,0,0,11,11,11,0,0,0,0,,,,,,,133.76366311681704,None,0.9769437731599593,134.33816442628267,None,"[93. 87. 93. 93. 93. 87. 93. 87. 87. 93. 93. 87. 93. 87. 87. 87. 87. 93.
 93. 87. 93. 93. 93. 93. 93. 93. 87. 93. 93. 93. 93. 87. 87. 93.]",135.3956048396667,None,l,1,0.9125252186458965,135.3956048396667,None,None,None,,,,,,,07_NS,28,M,7,2021_Oct_29_1659,Partial repeat,2021.2.3,120.08079672068087,
8,2,0,1,1,2,2,3,3,1,0,1,1,0,0,0,0,11,11,11,1,0,1,0,,,,,,,,,0.9418743304811826,136.36975163450734,None,"[87. 93. 93. 87. 87. 87. 87. 93. 87. 87. 87. 87. 87. 93. 93. 93. 87. 87.
 93. 87. 93. 93. 93. 87. 93. 93. 87. 87. 93. 93. 93. 93. 87. 87.]",137.40219097350746,None,s,1,0.5539673818348092,137.40219097350746,None,None,None,,,,,,,07_NS,28,M,7,2021_Oct_29_1659,Partial repeat,2021.2.3,120.08079672068087,
8,2,0,1,1,2,2,3,3,1,0,1,1,0,0,0,0,11,11,11,,,,,,,,,,,,,,,,,,,,,,,,,,,,,,,,07_NS,28,M,7,2021_Oct_29_1659,Partial repeat,2021.2.3,120.08079672068087,
1,7,0,1,1,3,3,3,2,0,1,1,0,0,0,0,0,12,12,12,0,0,0,0,,,,,,,137.97669484866492,None,0.7133295413080393,139.11738718808374,None,"[87. 93. 87. 87. 87. 93. 93. 87. 87. 87. 87. 87. 93. 93. 87. 87. 87. 93.
 87. 93. 87. 87. 87. 93. 93. 87. 93. 93. 87. 87. 87. 93. 93. 93.]",139.90838327347774,None,s,1,0.6728628766686597,139.90838327347774,None,None,None,,,,,,,07_NS,28,M,7,2021_Oct_29_1659,Partial repeat,2021.2.3,120.08079672068087,
1,7,0,1,1,3,3,3,2,0,1,1,0,0,0,0,0,12,12,12,1,0,1,0,,,,,,,,,0.9703836992255972,140.64106436489783,None,"[87. 93. 93. 93. 93. 93. 93. 93. 87. 93. 93. 87. 87. 87. 93. 87. 93. 87.
 93. 87. 87. 93. 87. 87. 87. 87. 87. 93. 87. 93. 87. 87. 93. 93.]",141.69849547764534,None,l,1,0.6422801372409594,141.69849547764534,None,None,None,,,,,,,07_NS,28,M,7,2021_Oct_29_1659,Partial repeat,2021.2.3,120.08079672068087,
1,7,0,1,1,3,3,3,2,0,1,1,0,0,0,0,0,12,12,12,,,,,,,,,,,,,,,,,,,,,,,,,,,,,,,,07_NS,28,M,7,2021_Oct_29_1659,Partial repeat,2021.2.3,120.08079672068087,
5,2,0,1,1,3,2,2,2,1,0,0,1,0,0,0,0,13,13,13,0,0,0,0,,,,,,,142.37292379314567,None,0.7206426481641468,143.35538696102049,None,"[87. 87. 87. 87. 93. 93. 93. 93. 87. 87. 87. 87. 87. 93. 93. 93. 93. 87.
 93. 87. 93. 87. 93. 93. 87. 93. 87. 87. 87. 93. 87. 87. 93. 87.]",144.16303118663927,None,s,0,0.592350790009732,144.16303118663927,None,144.77916439228648,None,,,,,,,07_NS,28,M,7,2021_Oct_29_1659,Partial repeat,2021.2.3,120.08079672068087,
5,2,0,1,1,3,2,2,2,1,0,0,1,0,0,0,0,13,13,13,1,0,1,0,,,,,,,,,0.7015158652983798,145.32038064620792,None,"[93. 87. 87. 87. 93. 93. 87. 87. 87. 93. 93. 87. 93. 93. 93. 87. 93. 93.
 93. 87. 87. 93. 93. 93. 87. 87. 87. 87. 93. 93. 93. 93. 87. 87.]",146.11136967594575,None,s,1,0.8358918183275819,146.11136967594575,None,None,None,,,,,,,07_NS,28,M,7,2021_Oct_29_1659,Partial repeat,2021.2.3,120.08079672068087,
5,2,0,1,1,3,2,2,2,1,0,0,1,0,0,0,0,13,13,13,,,,,,,,,,,,,,,,,,,,,,,,,,,,,,,,07_NS,28,M,7,2021_Oct_29_1659,Partial repeat,2021.2.3,120.08079672068087,
4,1,0,1,1,3,3,3,2,1,0,1,0,0,0,0,0,14,14,14,0,0,0,0,,,,,,,146.96896152935733,None,0.9802125657425493,147.81820429715117,None,"[93. 93. 93. 87. 87. 93. 93. 93. 93. 87. 87. 93. 87. 87. 93. 93. 93. 93.
 87. 93. 93. 87. 93. 93. 87. 93. 87. 87. 87. 93. 87. 93. 93. 87.]",148.88397872270798,None,l,1,0.6232789358546142,148.88397872270798,None,None,None,,,,,,,07_NS,28,M,7,2021_Oct_29_1659,Partial repeat,2021.2.3,120.08079672068087,
4,1,0,1,1,3,3,3,2,1,0,1,0,0,0,0,0,14,14,14,1,0,1,0,,,,,,,,,0.7664860130785001,149.55836919423746,None,"[93. 93. 93. 87. 93. 87. 87. 87. 87. 93. 87. 87. 87. 93. 87. 87. 87. 87.
 87. 93. 93. 93. 93. 87. 87. 87. 87. 87. 87. 93. 87. 87. 87. 93.]",150.4076648794471,None,s,1,0.7316053792328603,150.4076648794471,None,None,None,,,,,,,07_NS,28,M,7,2021_Oct_29_1659,Partial repeat,2021.2.3,120.08079672068087,
4,1,0,1,1,3,3,3,2,1,0,1,0,0,0,0,0,14,14,14,,,,,,,,,,,,,,,,,,,,,,,,,,,,,,,,07_NS,28,M,7,2021_Oct_29_1659,Partial repeat,2021.2.3,120.08079672068087,
5,3,0,1,1,3,2,3,3,0,1,0,1,0,0,0,0,15,15,15,0,0,0,0,,,,,,,151.16534672453963,None,0.9778550596094453,151.75650002276961,None,"[93. 87. 93. 93. 93. 93. 87. 87. 87. 87. 93. 87. 93. 93. 93. 87. 87. 87.
 87. 93. 87. 93. 87. 87. 87. 93. 87. 87. 93. 87. 93. 93. 87. 93.]",152.82223371795226,None,s,1,0.9736172545435693,152.82223371795226,None,None,None,,,,,,,07_NS,28,M,7,2021_Oct_29_1659,Partial repeat,2021.2.3,120.08079672068087,
5,3,0,1,1,3,2,3,3,0,1,0,1,0,0,0,0,15,15,15,1,0,1,0,,,,,,,,,0.7983331241577991,153.85469775174715,None,"[87. 87. 93. 93. 93. 87. 87. 93. 87. 93. 87. 87. 93. 87. 93. 93. 93. 87.
 93. 93. 87. 87. 87. 93. 87. 93. 87. 87. 87. 93. 93. 93. 87. 93.]",154.73724674205005,None,l,1,0.6260678441067284,154.73724674205005,None,None,None,,,,,,,07_NS,28,M,7,2021_Oct_29_1659,Partial repeat,2021.2.3,120.08079672068087,
5,3,0,1,1,3,2,3,3,0,1,0,1,0,0,0,0,15,15,15,,,,,,,,,,,,,,,,,,,,,,,,,,,,,,,,07_NS,28,M,7,2021_Oct_29_1659,Partial repeat,2021.2.3,120.08079672068087,
4,4,0,1,1,2,2,2,2,1,0,1,1,0,0,0,0,16,16,16,0,0,0,0,,,,,,,155.37837460784976,None,0.7512499961664647,157.6431031286702,None,"[93. 87. 87. 87. 93. 93. 87. 87. 93. 93. 87. 87. 93. 93. 93. 93. 93. 87.
 93. 87. 93. 87. 93. 87. 93. 87. 93. 87. 93. 93. 87. 93. 93. 93.]",158.4840673674007,None,l,1,0.6552686371633172,158.4840673674007,None,None,None,,,,,,,07_NS,28,M,7,2021_Oct_29_1659,Partial repeat,2021.2.3,120.08079672068087,
4,4,0,1,1,2,2,2,2,1,0,1,1,0,0,0,0,16,16,16,1,0,1,0,,,,,,,,,0.7082482273677663,159.19176149574741,None,"[93. 87. 93. 87. 87. 93. 93. 87. 87. 87. 93. 93. 87. 87. 93. 93. 93. 87.
 93. 87. 87. 93. 87. 87. 93. 87. 87. 93. 93. 87. 93. 93. 87. 87.]",159.97441651331246,None,s,1,0.7640485667743633,159.97441651331246,None,None,None,,,,,,,07_NS,28,M,7,2021_Oct_29_1659,Partial repeat,2021.2.3,120.08079672068087,
4,4,0,1,1,2,2,2,2,1,0,1,1,0,0,0,0,16,16,16,,,,,,,,,,,,,,,,,,,,,,,,,,,,,,,,07_NS,28,M,7,2021_Oct_29_1659,Partial repeat,2021.2.3,120.08079672068087,
5,1,0,1,1,3,2,2,2,1,1,0,1,1,0,0,0,17,17,17,0,0,0,0,,,,,,,160.75708275578472,None,0.8490901625649931,161.622995472193,None,"[87. 87. 93. 93. 87. 87. 93. 93. 93. 87. 93. 93. 93. 87. 93. 93. 93. 93.
 93. 93. 93. 87. 93. 87. 93. 93. 87. 93. 93. 87. 87. 93. 87. 93.]",162.54720586414805,None,l,1,0.6072039072969346,162.54720586414805,None,None,None,,,,,,,07_NS,28,M,7,2021_Oct_29_1659,Partial repeat,2021.2.3,120.08079672068087,
5,1,0,1,1,3,2,2,2,1,1,0,1,1,0,0,0,17,17,17,1,0,1,0,,,,,,,,,0.9280719207311969,163.20496455174361,None,"[93. 93. 93. 93. 93. 93. 87. 93. 87. 93. 93. 87. 87. 87. 87. 87. 87. 93.
 87. 93. 93. 87. 87. 87. 87. 87. 87. 87. 87. 87. 87. 93. 93. 93.]",164.22076889969503,None,s,0,0.7097373366723332,164.22076889969503,None,164.95345832961902,None,,,,,,,07_NS,28,M,7,2021_Oct_29_1659,Partial repeat,2021.2.3,120.08079672068087,
5,1,0,1,1,3,2,2,2,1,1,0,1,1,0,0,0,17,17,17,,,,,,,,,,,,,,,,,,,,,,,,,,,,,,,,07_NS,28,M,7,2021_Oct_29_1659,Partial repeat,2021.2.3,120.08079672068087,
8,4,0,1,1,3,2,3,3,1,1,0,1,1,0,0,0,18,18,18,0,0,0,0,,,,,,,165.45302601035291,None,0.9134840852518242,166.21902871844213,None,"[87. 87. 93. 87. 87. 87. 93. 93. 93. 93. 93. 87. 87. 87. 93. 87. 93. 87.
 87. 93. 93. 93. 93. 93. 87. 87. 93. 93. 87. 87. 93. 87. 93. 93.]",167.20983648197216,None,l,1,0.8405543238677637,167.20983648197216,None,None,None,,,,,,,07_NS,28,M,7,2021_Oct_29_1659,Partial repeat,2021.2.3,120.08079672068087,
8,4,0,1,1,3,2,3,3,1,1,0,1,1,0,0,0,18,18,18,1,0,1,0,,,,,,,,,0.7281462589856695,168.10907883284017,None,"[87. 93. 87. 87. 93. 93. 87. 87. 93. 93. 87. 87. 87. 87. 87. 93. 93. 87.
 87. 87. 93. 93. 87. 93. 87. 87. 93. 93. 93. 87. 93. 87. 93. 93.]",168.9250301308566,None,l,1,0.6129876206614426,168.9250301308566,None,None,None,,,,,,,07_NS,28,M,7,2021_Oct_29_1659,Partial repeat,2021.2.3,120.08079672068087,
8,4,0,1,1,3,2,3,3,1,1,0,1,1,0,0,0,18,18,18,,,,,,,,,,,,,,,,,,,,,,,,,,,,,,,,07_NS,28,M,7,2021_Oct_29_1659,Partial repeat,2021.2.3,120.08079672068087,
1,6,0,1,1,2,2,3,2,0,1,1,0,0,0,0,0,19,19,19,0,0,0,0,,,,,,,169.5578101938827,None,0.758400878221506,170.2822057005851,None,"[87. 93. 93. 87. 87. 87. 93. 87. 93. 87. 87. 93. 93. 87. 93. 87. 93. 87.
 87. 87. 93. 93. 93. 87. 87. 93. 93. 87. 93. 93. 87. 87. 93. 87.]",171.1231975205137,None,s,1,0.6392676929881418,171.1231975205137,None,None,None,,,,,,,07_NS,28,M,7,2021_Oct_29_1659,Partial repeat,2021.2.3,120.08079672068087,
1,6,0,1,1,2,2,3,2,0,1,1,0,0,0,0,0,19,19,19,1,0,1,0,,,,,,,,,0.7398211785381431,171.8308659919312,None,"[93. 87. 93. 87. 93. 93. 87. 87. 93. 93. 93. 87. 93. 93. 87. 87. 93. 93.
 87. 93. 93. 93. 87. 87. 93. 87. 87. 87. 87. 87. 87. 87. 87. 93.]",172.64684519185903,None,l,1,0.7316339225671982,172.64684519185903,None,None,None,,,,,,,07_NS,28,M,7,2021_Oct_29_1659,Partial repeat,2021.2.3,120.08079672068087,
1,6,0,1,1,2,2,3,2,0,1,1,0,0,0,0,0,19,19,19,,,,,,,,,,,,,,,,,,,,,,,,,,,,,,,,07_NS,28,M,7,2021_Oct_29_1659,Partial repeat,2021.2.3,120.08079672068087,
4,5,0,1,1,2,2,3,2,1,1,1,0,1,0,0,0,20,20,20,0,0,0,0,,,,,,,173.3962055325319,None,0.9225136275316996,174.2953959281167,None,"[93. 93. 87. 87. 93. 87. 87. 87. 93. 87. 87. 87. 87. 87. 87. 87. 87. 87.
 87. 87. 93. 93. 93. 93. 93. 87. 87. 93. 87. 87. 93. 87. 87. 87.]",175.302873640263,None,l,1,0.6516574243159994,175.302873640263,None,None,None,,,,,,,07_NS,28,M,7,2021_Oct_29_1659,Partial repeat,2021.2.3,120.08079672068087,
4,5,0,1,1,2,2,3,2,1,1,1,0,1,0,0,0,20,20,20,1,0,1,0,,,,,,,,,0.7920791604874786,176.01893096553977,None,"[87. 87. 93. 93. 87. 93. 93. 93. 87. 93. 87. 87. 93. 87. 87. 93. 87. 87.
 87. 87. 87. 87. 87. 87. 87. 87. 87. 93. 87. 93. 87. 87. 87. 93.]",176.89317865625708,None,l,1,0.6283763263527362,176.89317865625708,None,None,None,,,,,,,07_NS,28,M,7,2021_Oct_29_1659,Partial repeat,2021.2.3,120.08079672068087,
4,5,0,1,1,2,2,3,2,1,1,1,0,1,0,0,0,20,20,20,,,,,,,,,,,,,,,,,,,,,,,,,,,,,,,,07_NS,28,M,7,2021_Oct_29_1659,Partial repeat,2021.2.3,120.08079672068087,
8,5,0,1,1,2,3,3,3,0,0,0,1,1,0,0,0,21,21,21,0,0,0,0,,,,,,,177.5342917693215,None,0.8191536519008108,178.29194507107968,None,"[93. 93. 87. 93. 87. 87. 87. 87. 93. 93. 93. 93. 87. 87. 93. 93. 93. 93.
 93. 93. 87. 87. 87. 93. 93. 93. 87. 87. 93. 93. 93. 93. 87. 93.]",179.19119896756456,None,s,1,0.6507401890812616,179.19119896756456,None,None,None,,,,,,,07_NS,28,M,7,2021_Oct_29_1659,Partial repeat,2021.2.3,120.08079672068087,
8,5,0,1,1,2,3,3,3,0,0,0,1,1,0,0,0,21,21,21,1,0,1,0,,,,,,,,,0.8352113735786748,179.89057383647378,None,"[87. 93. 87. 87. 93. 93. 87. 87. 93. 93. 87. 87. 87. 87. 93. 87. 87. 93.
 93. 93. 87. 87. 87. 93. 87. 93. 87. 87. 93. 87. 87. 93. 87. 93.]",180.81479737760492,None,s,1,0.9627329435625143,180.81479737760492,None,None,None,,,,,,,07_NS,28,M,7,2021_Oct_29_1659,Partial repeat,2021.2.3,120.08079672068087,
8,5,0,1,1,2,3,3,3,0,0,0,1,1,0,0,0,21,21,21,,,,,,,,,,,,,,,,,,,,,,,,,,,,,,,,07_NS,28,M,7,2021_Oct_29_1659,Partial repeat,2021.2.3,120.08079672068087,
6,2,0,1,1,2,2,2,2,1,1,1,1,1,0,0,0,22,22,22,0,0,0,0,,,,,,,181.80561027252043,None,0.9207818097895113,182.4050667946085,None,"[93. 93. 87. 87. 87. 93. 93. 93. 93. 93. 93. 93. 93. 93. 93. 93. 93. 93.
 87. 93. 87. 87. 87. 87. 93. 93. 87. 93. 93. 87. 93. 87. 87. 93.]",183.41254033750374,None,l,1,0.6210509522261418,183.41254033750374,None,None,None,,,,,,,07_NS,28,M,7,2021_Oct_29_1659,Partial repeat,2021.2.3,120.08079672068087,
6,2,0,1,1,2,2,2,2,1,1,1,1,1,0,0,0,22,22,22,1,0,1,0,,,,,,,,,0.7519951938294951,184.09530747585086,None,"[93. 93. 93. 87. 87. 87. 87. 93. 87. 87. 87. 93. 87. 87. 87. 87. 93. 93.
 93. 93. 93. 93. 87. 87. 93. 93. 93. 87. 93. 87. 93. 93. 93. 93.]",184.93623707772713,None,l,1,0.6654162735503633,184.93623707772713,None,None,None,,,,,,,07_NS,28,M,7,2021_Oct_29_1659,Partial repeat,2021.2.3,120.08079672068087,
6,2,0,1,1,2,2,2,2,1,1,1,1,1,0,0,0,22,22,22,,,,,,,,,,,,,,,,,,,,,,,,,,,,,,,,07_NS,28,M,7,2021_Oct_29_1659,Partial repeat,2021.2.3,120.08079672068087,
5,6,0,1,1,3,3,2,2,0,1,1,1,0,0,0,0,23,23,23,0,0,0,0,,,,,,,185.61065929970755,None,0.9738511484086012,186.42661059772217,None,"[87. 93. 87. 87. 93. 93. 93. 93. 93. 87. 93. 93. 87. 93. 87. 93. 87. 87.
 87. 87. 87. 87. 93. 93. 87. 93. 93. 87. 87. 87. 93. 93. 87. 87.]",187.48404427616333,None,s,1,0.7895823431590543,187.48404427616333,None,None,None,,,,,,,07_NS,28,M,7,2021_Oct_29_1659,Partial repeat,2021.2.3,120.08079672068087,
5,6,0,1,1,3,3,2,2,0,1,1,1,0,0,0,0,23,23,23,1,0,1,0,,,,,,,,,0.9708924122860679,188.33332392579177,None,"[93. 87. 93. 93. 93. 87. 87. 93. 87. 87. 87. 93. 93. 93. 93. 87. 87. 93.
 93. 93. 93. 93. 93. 93. 87. 87. 93. 93. 87. 93. 87. 87. 87. 87.]",189.39073675797772,None,l,1,0.6109212756909983,189.39073675797772,None,None,None,,,,,,,07_NS,28,M,7,2021_Oct_29_1659,Partial repeat,2021.2.3,120.08079672068087,
5,6,0,1,1,3,3,2,2,0,1,1,1,0,0,0,0,23,23,23,,,,,,,,,,,,,,,,,,,,,,,,,,,,,,,,07_NS,28,M,7,2021_Oct_29_1659,Partial repeat,2021.2.3,120.08079672068087,
6,1,0,1,1,2,2,2,3,0,0,1,0,1,0,0,0,24,24,24,0,0,0,0,,,,,,,190.0151959580071,None,0.9934655250707922,191.95519113450428,None,"[93. 93. 93. 93. 87. 87. 93. 93. 93. 93. 87. 87. 93. 87. 93. 87. 93. 93.
 87. 93. 87. 93. 87. 93. 87. 87. 93. 87. 87. 93. 87. 87. 93. 87.]",193.02927070818805,None,s,1,0.7954616285878728,193.02927070818805,None,None,None,,,,,,,07_NS,28,M,7,2021_Oct_29_1659,Partial repeat,2021.2.3,120.08079672068087,
6,1,0,1,1,2,2,2,3,0,0,1,0,1,0,0,0,24,24,24,1,0,1,0,,,,,,,,,0.8305379908709607,193.88685871306006,None,"[87. 93. 87. 87. 87. 87. 93. 93. 87. 87. 87. 87. 87. 87. 93. 87. 87. 87.
 93. 93. 93. 93. 87. 87. 93. 93. 93. 93. 87. 93. 93. 93. 93. 87.]",194.79442192692477,None,s,1,0.6470699652945768,194.79442192692477,None,None,None,,,,,,,07_NS,28,M,7,2021_Oct_29_1659,Partial repeat,2021.2.3,120.08079672068087,
6,1,0,1,1,2,2,2,3,0,0,1,0,1,0,0,0,24,24,24,,,,,,,,,,,,,,,,,,,,,,,,,,,,,,,,07_NS,28,M,7,2021_Oct_29_1659,Partial repeat,2021.2.3,120.08079672068087,
3,6,0,1,1,3,2,2,3,1,0,0,0,0,0,0,0,25,25,25,0,0,0,0,,,,,,,195.46051462669493,None,0.8956110180766061,196.01003699087778,None,"[87. 87. 87. 93. 87. 93. 87. 87. 87. 93. 93. 87. 87. 93. 87. 87. 93. 93.
 93. 87. 93. 87. 93. 87. 93. 87. 87. 87. 93. 93. 87. 87. 93. 87.]",196.99252517425884,None,l,1,0.7361761612519331,196.99252517425884,None,None,None,,,,,,,07_NS,28,M,7,2021_Oct_29_1659,Partial repeat,2021.2.3,120.08079672068087,
3,6,0,1,1,3,2,2,3,1,0,0,0,0,0,0,0,25,25,25,1,0,1,0,,,,,,,,,0.9394421944186986,197.79183506699337,None,"[93. 87. 93. 87. 87. 87. 87. 93. 87. 87. 87. 93. 93. 87. 93. 93. 87. 93.
 87. 87. 87. 87. 87. 93. 93. 93. 93. 93. 93. 87. 93. 87. 87. 93.]",198.81594360093732,None,s,1,0.7687906087958254,198.81594360093732,None,None,None,,,,,,,07_NS,28,M,7,2021_Oct_29_1659,Partial repeat,2021.2.3,120.08079672068087,
3,6,0,1,1,3,2,2,3,1,0,0,0,0,0,0,0,25,25,25,,,,,,,,,,,,,,,,,,,,,,,,,,,,,,,,07_NS,28,M,7,2021_Oct_29_1659,Partial repeat,2021.2.3,120.08079672068087,
4,6,0,1,1,3,3,2,3,1,1,1,0,1,0,0,0,26,26,26,0,0,0,0,,,,,,,199.5986355003388,None,0.8130328306364899,201.43035971656718,None,"[87. 93. 87. 87. 87. 87. 87. 93. 87. 93. 93. 87. 93. 87. 93. 93. 87. 93.
 93. 87. 93. 87. 87. 93. 87. 87. 93. 93. 87. 87. 87. 87. 93. 93.]",202.3295792969093,None,l,1,0.7112106858567131,202.3295792969093,None,None,None,,,,,,,07_NS,28,M,7,2021_Oct_29_1659,Partial repeat,2021.2.3,120.08079672068087,
4,6,0,1,1,3,3,2,3,1,1,1,0,1,0,0,0,26,26,26,1,0,1,0,,,,,,,,,0.7683377130262037,203.10390447155442,None,"[93. 87. 87. 87. 93. 93. 93. 87. 93. 93. 93. 93. 87. 87. 93. 87. 93. 93.
 87. 93. 87. 87. 93. 93. 93. 93. 93. 93. 87. 93. 93. 93. 87. 93.]",203.96152583043477,None,l,1,0.5832528427563375,203.96152583043477,None,None,None,,,,,,,07_NS,28,M,7,2021_Oct_29_1659,Partial repeat,2021.2.3,120.08079672068087,
4,6,0,1,1,3,3,2,3,1,1,1,0,1,0,0,0,26,26,26,,,,,,,,,,,,,,,,,,,,,,,,,,,,,,,,07_NS,28,M,7,2021_Oct_29_1659,Partial repeat,2021.2.3,120.08079672068087,
1,5,0,1,1,2,2,3,3,0,0,1,1,1,0,0,0,27,27,27,0,0,0,0,,,,,,,204.56932374106145,None,0.933870016773156,205.71832539785828,None,"[93. 87. 93. 87. 93. 93. 87. 87. 87. 93. 87. 87. 93. 93. 87. 87. 93. 93.
 87. 87. 87. 87. 87. 87. 87. 87. 87. 87. 87. 87. 87. 87. 87. 87.]",206.74246888936977,None,s,1,0.8103304607429891,206.74246888936977,None,None,None,,,,,,,07_NS,28,M,7,2021_Oct_29_1659,Partial repeat,2021.2.3,120.08079672068087,
1,5,0,1,1,2,2,3,3,0,0,1,1,1,0,0,0,27,27,27,1,0,1,0,,,,,,,,,0.9789475636167377,207.62502269034667,None,"[93. 87. 93. 93. 93. 93. 87. 87. 93. 93. 87. 87. 93. 93. 93. 87. 93. 87.
 93. 87. 87. 87. 93. 87. 87. 93. 87. 93. 87. 93. 87. 87. 87. 93.]",208.69076183762627,None,s,1,0.7173821395717823,208.69076183762627,None,None,None,,,,,,,07_NS,28,M,7,2021_Oct_29_1659,Partial repeat,2021.2.3,120.08079672068087,
1,5,0,1,1,2,2,3,3,0,0,1,1,1,0,0,0,27,27,27,,,,,,,,,,,,,,,,,,,,,,,,,,,,,,,,07_NS,28,M,7,2021_Oct_29_1659,Partial repeat,2021.2.3,120.08079672068087,
2,1,0,1,1,2,2,2,2,0,0,1,1,1,0,0,0,28,28,28,0,0,0,0,,,,,,,209.44012442327949,None,0.9664541541506151,212.78722804456265,None,"[87. 87. 87. 93. 93. 93. 93. 87. 87. 93. 87. 93. 87. 87. 87. 87. 93. 87.
 93. 93. 87. 93. 93. 87. 93. 93. 93. 93. 87. 87. 87. 93. 87. 93.]",213.83634374641224,None,s,1,0.6928111394699954,213.83634374641224,None,None,None,,,,,,,07_NS,28,M,7,2021_Oct_29_1659,Partial repeat,2021.2.3,120.08079672068087,
2,1,0,1,1,2,2,2,2,0,0,1,1,1,0,0,0,28,28,28,1,0,1,0,,,,,,,,,0.7456563433070793,214.59402366723407,None,"[93. 87. 93. 93. 93. 87. 93. 93. 93. 93. 93. 87. 93. 87. 87. 93. 87. 93.
 93. 87. 87. 87. 87. 87. 87. 93. 93. 87. 87. 93. 93. 93. 93. 87.]",215.41831603307946,None,s,1,0.629575467100949,215.41831603307946,None,None,None,,,,,,,07_NS,28,M,7,2021_Oct_29_1659,Partial repeat,2021.2.3,120.08079672068087,
2,1,0,1,1,2,2,2,2,0,0,1,1,1,0,0,0,28,28,28,,,,,,,,,,,,,,,,,,,,,,,,,,,,,,,,07_NS,28,M,7,2021_Oct_29_1659,Partial repeat,2021.2.3,120.08079672068087,
3,4,0,1,1,3,3,3,3,0,0,1,1,1,0,0,0,29,29,29,0,0,0,0,,,,,,,216.06774840558137,None,0.7398940029622348,218.13264215702839,None,"[93. 87. 87. 87. 87. 87. 93. 87. 93. 87. 93. 87. 93. 93. 93. 87. 93. 93.
 93. 87. 87. 93. 87. 87. 93. 93. 93. 93. 93. 87. 93. 93. 87. 93.]",218.95691399733005,None,s,1,0.7710003118609166,218.95691399733005,None,None,None,,,,,,,07_NS,28,M,7,2021_Oct_29_1659,Partial repeat,2021.2.3,120.08079672068087,
3,4,0,1,1,3,3,3,3,0,0,1,1,1,0,0,0,29,29,29,1,0,1,0,,,,,,,,,0.8448287928166233,219.78953652680866,None,"[93. 87. 87. 93. 87. 87. 87. 87. 93. 87. 87. 93. 93. 93. 93. 87. 93. 87.
 87. 87. 87. 93. 93. 87. 93. 87. 87. 87. 87. 87. 93. 93. 87. 87.]",220.7220741959918,None,s,1,0.7658711709136696,220.7220741959918,None,None,None,,,,,,,07_NS,28,M,7,2021_Oct_29_1659,Partial repeat,2021.2.3,120.08079672068087,
3,4,0,1,1,3,3,3,3,0,0,1,1,1,0,0,0,29,29,29,,,,,,,,,,,,,,,,,,,,,,,,,,,,,,,,07_NS,28,M,7,2021_Oct_29_1659,Partial repeat,2021.2.3,120.08079672068087,
1,8,0,1,1,3,2,3,3,1,0,0,1,0,0,0,0,30,30,30,0,0,0,0,,,,,,,221.50472119576625,None,0.94114063619666,222.07088785163614,None,"[87. 93. 87. 93. 87. 87. 93. 93. 93. 87. 93. 87. 93. 87. 93. 87. 93. 87.
 93. 93. 93. 87. 87. 93. 87. 87. 93. 87. 87. 87. 93. 93. 93. 87.]",223.0866755225834,None,l,1,0.5612924352481059,223.0866755225834,None,None,None,,,,,,,07_NS,28,M,7,2021_Oct_29_1659,Partial repeat,2021.2.3,120.08079672068087,
1,8,0,1,1,3,2,3,3,1,0,0,1,0,0,0,0,30,30,30,1,0,1,0,,,,,,,,,0.8097671764407602,223.7194680933626,None,"[93. 93. 87. 87. 87. 87. 93. 87. 87. 93. 87. 93. 93. 87. 93. 93. 93. 87.
 93. 93. 87. 87. 87. 87. 93. 87. 87. 93. 93. 87. 93. 87. 87. 87.]",224.6187264798118,None,s,1,0.6442579658050818,224.6187264798118,None,None,None,,,,,,,07_NS,28,M,7,2021_Oct_29_1659,Partial repeat,2021.2.3,120.08079672068087,
1,8,0,1,1,3,2,3,3,1,0,0,1,0,0,0,0,30,30,30,,,,,,,,,,,,,,,,,,,,,,,,,,,,,,,,07_NS,28,M,7,2021_Oct_29_1659,Partial repeat,2021.2.3,120.08079672068087,
8,1,0,1,1,2,2,2,2,0,1,1,1,0,0,0,0,31,31,31,0,0,0,0,,,,,,,225.2931313833633,None,0.99806712060201,225.80933982795796,None,"[87. 87. 93. 93. 93. 87. 93. 87. 87. 87. 87. 87. 93. 87. 93. 87. 87. 93.
 93. 93. 87. 93. 87. 87. 87. 87. 87. 87. 93. 87. 93. 93. 93. 87.]",226.89174828242903,None,s,1,0.6272477421607618,226.89174828242903,None,None,None,,,,,,,07_NS,28,M,7,2021_Oct_29_1659,Partial repeat,2021.2.3,120.08079672068087,
8,1,0,1,1,2,2,2,2,0,1,1,1,0,0,0,0,31,31,31,1,0,1,0,,,,,,,,,0.9723877164753929,227.5828417358698,None,"[93. 93. 93. 93. 93. 87. 93. 87. 87. 87. 93. 87. 93. 93. 93. 93. 93. 87.
 87. 93. 93. 87. 87. 87. 93. 87. 93. 87. 93. 87. 93. 93. 87. 93.]",228.64024622955367,None,l,1,0.7827691454913293,228.64024622955367,None,None,None,,,,,,,07_NS,28,M,7,2021_Oct_29_1659,Partial repeat,2021.2.3,120.08079672068087,
8,1,0,1,1,2,2,2,2,0,1,1,1,0,0,0,0,31,31,31,,,,,,,,,,,,,,,,,,,,,,,,,,,,,,,,07_NS,28,M,7,2021_Oct_29_1659,Partial repeat,2021.2.3,120.08079672068087,
7,6,0,1,1,2,3,3,3,1,0,0,1,0,0,0,0,32,32,32,0,0,0,0,,,,,,,229.43955997082776,None,0.8269296162926302,230.05570472209365,None,"[87. 87. 93. 93. 93. 87. 93. 93. 87. 93. 93. 87. 93. 93. 93. 93. 93. 93.
 93. 87. 87. 93. 87. 93. 93. 93. 93. 93. 93. 87. 93. 87. 93. 87.]",230.96325446606897,None,l,1,0.6357847647886956,230.96325446606897,None,None,None,,,,,,,07_NS,28,M,7,2021_Oct_29_1659,Partial repeat,2021.2.3,120.08079672068087,
7,6,0,1,1,2,3,3,3,1,0,0,1,0,0,0,0,32,32,32,1,0,1,0,,,,,,,,,0.9954771117732042,231.6709501979749,None,"[93. 87. 93. 93. 87. 87. 87. 93. 93. 87. 87. 93. 93. 93. 87. 87. 93. 93.
 87. 87. 93. 93. 93. 87. 87. 93. 87. 93. 93. 93. 93. 87. 87. 87.]",232.74503169592936,None,s,1,0.8549978924129391,232.74503169592936,None,None,None,,,,,,,07_NS,28,M,7,2021_Oct_29_1659,Partial repeat,2021.2.3,120.08079672068087,
7,6,0,1,1,2,3,3,3,1,0,0,1,0,0,0,0,32,32,32,,,,,,,,,,,,,,,,,,,,,,,,,,,,,,,,07_NS,28,M,7,2021_Oct_29_1659,Partial repeat,2021.2.3,120.08079672068087,
4,3,0,1,1,3,3,3,3,0,1,1,1,0,0,0,0,33,33,33,0,0,0,0,,,,,,,233.61928387660737,None,0.7049010339549807,234.13549328333647,None,"[87. 87. 87. 93. 93. 93. 93. 87. 87. 93. 93. 93. 87. 87. 93. 93. 93. 93.
 93. 93. 87. 87. 87. 93. 87. 87. 87. 87. 93. 93. 93. 93. 93. 93.]",234.926498669367,None,s,1,0.7685369259033905,234.926498669367,None,None,None,,,,,,,07_NS,28,M,7,2021_Oct_29_1659,Partial repeat,2021.2.3,120.08079672068087,
4,3,0,1,1,3,3,3,3,0,1,1,1,0,0,0,0,33,33,33,1,0,1,0,,,,,,,,,0.8131883721271682,235.76743981686013,None,"[87. 87. 87. 87. 87. 93. 87. 93. 87. 87. 87. 87. 87. 93. 87. 93. 87. 93.
 93. 93. 93. 87. 87. 87. 87. 93. 93. 93. 93. 87. 93. 87. 93. 87.]",236.66666356645328,None,l,1,0.5644415026526985,236.66666356645328,None,None,None,,,,,,,07_NS,28,M,7,2021_Oct_29_1659,Partial repeat,2021.2.3,120.08079672068087,
4,3,0,1,1,3,3,3,3,0,1,1,1,0,0,0,0,33,33,33,,,,,,,,,,,,,,,,,,,,,,,,,,,,,,,,07_NS,28,M,7,2021_Oct_29_1659,Partial repeat,2021.2.3,120.08079672068087,
2,5,0,1,1,3,2,2,3,0,1,0,0,0,0,0,0,34,34,34,0,0,0,0,,,,,,,237.24949311528326,None,0.7410010574471727,237.79901515875463,None,"[87. 93. 87. 87. 87. 93. 87. 93. 87. 93. 87. 93. 93. 93. 93. 93. 87. 93.
 87. 87. 93. 93. 87. 93. 93. 87. 93. 93. 93. 87. 93. 93. 87. 93.]",238.6233142595447,None,s,1,0.7668868646160263,238.6233142595447,None,None,None,,,,,,,07_NS,28,M,7,2021_Oct_29_1659,Partial repeat,2021.2.3,120.08079672068087,
2,5,0,1,1,3,2,2,3,0,1,0,0,0,0,0,0,34,34,34,1,0,1,0,,,,,,,,,0.7513662652938914,239.4559403168496,None,"[93. 87. 93. 93. 93. 87. 87. 93. 93. 87. 87. 93. 87. 93. 87. 93. 93. 93.
 87. 93. 87. 93. 87. 93. 93. 93. 93. 93. 93. 87. 87. 87. 87. 87.]",240.288542000073,None,l,1,0.7176550651602156,240.288542000073,None,None,None,,,,,,,07_NS,28,M,7,2021_Oct_29_1659,Partial repeat,2021.2.3,120.08079672068087,
2,5,0,1,1,3,2,2,3,0,1,0,0,0,0,0,0,34,34,34,,,,,,,,,,,,,,,,,,,,,,,,,,,,,,,,07_NS,28,M,7,2021_Oct_29_1659,Partial repeat,2021.2.3,120.08079672068087,
4,2,0,1,1,3,3,3,2,0,0,1,0,1,0,0,0,35,35,35,0,0,0,0,,,,,,,241.0295708942649,None,0.7707047891470804,243.0444980959346,None,"[87. 93. 87. 87. 93. 93. 87. 87. 93. 93. 87. 93. 87. 93. 93. 93. 93. 93.
 87. 87. 93. 87. 87. 93. 87. 93. 87. 87. 87. 87. 93. 93. 93. 87.]",243.90209411859723,None,s,1,0.8480807841806381,243.90209411859723,None,None,None,,,,,,,07_NS,28,M,7,2021_Oct_29_1659,Partial repeat,2021.2.3,120.08079672068087,
4,2,0,1,1,3,3,3,2,0,0,1,0,1,0,0,0,35,35,35,1,0,1,0,,,,,,,,,0.9850377486390318,244.80964129688073,None,"[93. 87. 87. 93. 93. 93. 87. 93. 93. 93. 87. 93. 93. 87. 93. 93. 93. 87.
 93. 87. 93. 87. 93. 93. 87. 93. 93. 87. 93. 87. 87. 93. 93. 87.]",245.88372471910407,None,s,1,0.6744568134236033,245.88372471910407,None,None,None,,,,,,,07_NS,28,M,7,2021_Oct_29_1659,Partial repeat,2021.2.3,120.08079672068087,
4,2,0,1,1,3,3,3,2,0,0,1,0,1,0,0,0,35,35,35,,,,,,,,,,,,,,,,,,,,,,,,,,,,,,,,07_NS,28,M,7,2021_Oct_29_1659,Partial repeat,2021.2.3,120.08079672068087,
2,4,0,1,1,3,3,3,3,1,0,1,1,0,0,0,0,36,36,36,0,0,0,0,,,,,,,246.58311177505493,None,0.8167702417304973,248.51478897496054,None,"[87. 87. 93. 93. 93. 87. 87. 87. 93. 87. 93. 87. 93. 93. 87. 87. 93. 93.
 93. 93. 93. 93. 93. 93. 87. 87. 87. 93. 93. 87. 93. 87. 87. 87.]",249.41400855530264,None,l,1,0.6482088122593268,249.41400855530264,None,None,None,,,,,,,07_NS,28,M,7,2021_Oct_29_1659,Partial repeat,2021.2.3,120.08079672068087,
2,4,0,1,1,3,3,3,3,1,0,1,1,0,0,0,0,36,36,36,1,0,1,0,,,,,,,,,0.7185832026971435,250.1217180778076,None,"[93. 93. 93. 93. 93. 93. 87. 93. 87. 87. 93. 87. 93. 87. 87. 87. 87. 87.
 87. 87. 87. 93. 87. 87. 87. 87. 87. 93. 87. 87. 93. 87. 93. 93.]",250.92939277103142,None,s,1,0.636803986319137,250.92939277103142,None,None,None,,,,,,,07_NS,28,M,7,2021_Oct_29_1659,Partial repeat,2021.2.3,120.08079672068087,
2,4,0,1,1,3,3,3,3,1,0,1,1,0,0,0,0,36,36,36,,,,,,,,,,,,,,,,,,,,,,,,,,,,,,,,07_NS,28,M,7,2021_Oct_29_1659,Partial repeat,2021.2.3,120.08079672068087,
8,6,0,1,1,3,3,2,2,1,1,1,1,1,0,0,0,37,37,37,0,0,0,0,,,,,,,251.58713221593098,None,0.9434082197280298,252.31984954776453,None,"[87. 93. 87. 93. 87. 93. 93. 93. 87. 87. 93. 93. 87. 87. 93. 87. 87. 93.
 87. 93. 87. 93. 93. 87. 87. 87. 93. 93. 87. 93. 93. 93. 87. 87.]",253.3522949802864,None,l,1,0.5170672649037442,253.3522949802864,None,None,None,,,,,,,07_NS,28,M,7,2021_Oct_29_1659,Partial repeat,2021.2.3,120.08079672068087,
8,6,0,1,1,3,3,2,2,1,1,1,1,1,0,0,0,37,37,37,1,0,1,0,,,,,,,,,0.7524427391854185,253.9351123420729,None,"[87. 87. 93. 87. 93. 87. 93. 93. 93. 93. 93. 93. 93. 87. 93. 87. 87. 93.
 87. 93. 87. 87. 93. 93. 87. 93. 93. 87. 87. 87. 93. 87. 93. 93.]",254.77606760087838,None,l,1,0.6452294013051869,254.77606760087838,None,None,None,,,,,,,07_NS,28,M,7,2021_Oct_29_1659,Partial repeat,2021.2.3,120.08079672068087,
8,6,0,1,1,3,3,2,2,1,1,1,1,1,0,0,0,37,37,37,,,,,,,,,,,,,,,,,,,,,,,,,,,,,,,,07_NS,28,M,7,2021_Oct_29_1659,Partial repeat,2021.2.3,120.08079672068087,
8,8,0,1,1,2,2,2,3,0,1,1,0,0,0,0,0,38,38,38,0,0,0,0,,,,,,,255.44214651004768,None,0.9059095492882854,258.03159394316754,None,"[87. 87. 93. 87. 87. 93. 87. 87. 93. 87. 87. 87. 93. 87. 87. 87. 87. 93.
 93. 93. 93. 93. 87. 87. 87. 93. 87. 87. 87. 87. 87. 93. 87. 87.]",259.01409303074433,None,s,1,0.7600598763474409,259.01409303074433,None,None,None,,,,,,,07_NS,28,M,7,2021_Oct_29_1659,Partial repeat,2021.2.3,120.08079672068087,
8,8,0,1,1,2,2,2,3,0,1,1,0,0,0,0,0,38,38,38,1,0,1,0,,,,,,,,,0.9591271277173063,259.83837641666287,None,"[93. 87. 93. 93. 93. 93. 93. 87. 93. 87. 93. 87. 93. 93. 87. 87. 93. 93.
 93. 93. 87. 87. 93. 87. 87. 93. 93. 93. 87. 93. 93. 87. 87. 93.]",260.87912763873464,None,l,1,0.8462940997414989,260.87912763873464,None,None,None,,,,,,,07_NS,28,M,7,2021_Oct_29_1659,Partial repeat,2021.2.3,120.08079672068087,
8,8,0,1,1,2,2,2,3,0,1,1,0,0,0,0,0,38,38,38,,,,,,,,,,,,,,,,,,,,,,,,,,,,,,,,07_NS,28,M,7,2021_Oct_29_1659,Partial repeat,2021.2.3,120.08079672068087,
3,8,0,1,1,2,2,3,3,1,1,1,1,1,0,0,0,39,39,39,0,0,0,0,,,,,,,261.7450663327836,None,0.7375570363658279,264.22625146485007,None,"[93. 93. 93. 87. 93. 87. 93. 87. 87. 93. 87. 93. 93. 93. 93. 87. 87. 87.
 93. 93. 87. 87. 87. 93. 93. 87. 87. 87. 87. 93. 93. 93. 93. 93.]",265.0505329264997,None,l,1,0.8021744435191067,265.0505329264997,None,None,None,,,,,,,07_NS,28,M,7,2021_Oct_29_1659,Partial repeat,2021.2.3,120.08079672068087,
3,8,0,1,1,2,2,3,3,1,1,1,1,1,0,0,0,39,39,39,1,0,1,0,,,,,,,,,0.8727088820917409,265.90814017406956,None,"[93. 93. 93. 93. 87. 87. 87. 87. 93. 87. 93. 87. 87. 93. 87. 87. 93. 87.
 93. 87. 93. 87. 87. 93. 87. 87. 93. 87. 93. 93. 87. 93. 93. 93.]",266.86565197785967,None,l,1,0.7797150087280897,266.86565197785967,None,None,None,,,,,,,07_NS,28,M,7,2021_Oct_29_1659,Partial repeat,2021.2.3,120.08079672068087,
3,8,0,1,1,2,2,3,3,1,1,1,1,1,0,0,0,39,39,39,,,,,,,,,,,,,,,,,,,,,,,,,,,,,,,,07_NS,28,M,7,2021_Oct_29_1659,Partial repeat,2021.2.3,120.08079672068087,
5,4,0,1,1,2,3,2,3,1,0,0,0,0,0,0,0,40,40,40,0,0,0,0,,,,,,,267.6732763193595,None,0.931331871013852,270.2460653494818,None,"[87. 87. 93. 87. 87. 93. 93. 93. 87. 93. 93. 93. 93. 93. 93. 93. 87. 93.
 87. 87. 87. 93. 93. 87. 93. 87. 87. 93. 93. 93. 93. 87. 93. 93.]",271.2535263846239,None,l,1,0.6629118365053728,271.2535263846239,None,None,None,,,,,,,07_NS,28,M,7,2021_Oct_29_1659,Partial repeat,2021.2.3,120.08079672068087,
5,4,0,1,1,2,3,2,3,1,0,0,0,0,0,0,0,40,40,40,1,0,1,0,,,,,,,,,0.7865212333511863,271.9695875584421,None,"[93. 93. 93. 93. 87. 93. 87. 87. 93. 93. 87. 93. 93. 93. 87. 87. 93. 93.
 93. 87. 93. 87. 87. 93. 93. 93. 93. 87. 87. 87. 93. 87. 93. 87.]",272.84382434496183,None,s,1,0.6565874033476575,272.84382434496183,None,None,None,,,,,,,07_NS,28,M,7,2021_Oct_29_1659,Partial repeat,2021.2.3,120.08079672068087,
5,4,0,1,1,2,3,2,3,1,0,0,0,0,0,0,0,40,40,40,,,,,,,,,,,,,,,,,,,,,,,,,,,,,,,,07_NS,28,M,7,2021_Oct_29_1659,Partial repeat,2021.2.3,120.08079672068087,
7,8,0,1,1,3,3,3,3,1,1,1,1,1,0,0,0,41,41,41,0,0,0,0,,,,,,,273.5265603742828,None,0.8122932263226035,274.25928091323294,None,"[93. 87. 93. 87. 93. 87. 87. 93. 93. 93. 87. 87. 93. 93. 87. 87. 87. 93.
 93. 87. 87. 87. 87. 93. 93. 87. 93. 93. 93. 93. 87. 87. 93. 93.]",275.158496324324,None,l,1,0.5986110808444209,275.158496324324,None,None,None,,,,,,,07_NS,28,M,7,2021_Oct_29_1659,Partial repeat,2021.2.3,120.08079672068087,
7,8,0,1,1,3,3,3,3,1,1,1,1,1,0,0,0,41,41,41,1,0,1,0,,,,,,,,,0.8785779126645272,275.8245848548431,None,"[93. 87. 93. 87. 87. 93. 93. 87. 93. 87. 87. 87. 87. 87. 93. 87. 87. 93.
 93. 93. 87. 93. 93. 87. 93. 87. 93. 87. 87. 93. 87. 87. 93. 93.]",276.79040886241637,None,l,1,0.6460699864601338,276.79040886241637,None,None,None,,,,,,,07_NS,28,M,7,2021_Oct_29_1659,Partial repeat,2021.2.3,120.08079672068087,
7,8,0,1,1,3,3,3,3,1,1,1,1,1,0,0,0,41,41,41,,,,,,,,,,,,,,,,,,,,,,,,,,,,,,,,07_NS,28,M,7,2021_Oct_29_1659,Partial repeat,2021.2.3,120.08079672068087,
1,2,0,1,1,2,3,3,2,0,1,0,0,0,0,0,0,42,42,42,0,0,0,0,,,,,,,277.45650156218653,None,0.8408552492999819,278.43068042818777,None,"[93. 87. 93. 87. 93. 93. 93. 87. 93. 93. 93. 87. 87. 87. 93. 87. 93. 87.
 93. 93. 87. 93. 93. 93. 87. 93. 93. 87. 93. 87. 87. 87. 93. 93.]",279.34656129793257,None,s,1,0.6819912915252644,279.34656129793257,None,None,None,,,,,,,07_NS,28,M,7,2021_Oct_29_1659,Partial repeat,2021.2.3,120.08079672068087,
1,2,0,1,1,2,3,3,2,0,1,0,0,0,0,0,0,42,42,42,1,0,1,0,,,,,,,,,0.714993354052764,280.0792616320505,None,"[93. 87. 87. 93. 87. 93. 87. 93. 87. 93. 93. 93. 87. 93. 93. 87. 93. 87.
 87. 93. 93. 87. 87. 87. 93. 93. 93. 87. 93. 93. 87. 93. 93. 87.]",280.8785583756089,None,l,1,0.6379691316378739,280.8785583756089,None,None,None,,,,,,,07_NS,28,M,7,2021_Oct_29_1659,Partial repeat,2021.2.3,120.08079672068087,
1,2,0,1,1,2,3,3,2,0,1,0,0,0,0,0,0,42,42,42,,,,,,,,,,,,,,,,,,,,,,,,,,,,,,,,07_NS,28,M,7,2021_Oct_29_1659,Partial repeat,2021.2.3,120.08079672068087,
6,3,0,1,1,3,2,2,3,1,1,0,0,1,0,0,0,43,43,43,0,0,0,0,,,,,,,281.5363456065388,None,0.8142138955114326,282.2523856133903,None,"[93. 87. 87. 87. 93. 93. 87. 87. 87. 93. 93. 87. 87. 87. 87. 87. 93. 87.
 93. 87. 93. 87. 93. 87. 87. 87. 93. 93. 87. 93. 93. 93. 87. 87.]",283.15161257010004,None,l,1,0.7009299541477958,283.15161257010004,None,None,None,,,,,,,07_NS,28,M,7,2021_Oct_29_1659,Partial repeat,2021.2.3,120.08079672068087,
6,3,0,1,1,3,2,2,3,1,1,0,0,1,0,0,0,43,43,43,1,0,1,0,,,,,,,,,0.9695201857659571,283.90928607668866,None,"[87. 87. 87. 87. 87. 93. 93. 87. 87. 87. 93. 93. 93. 93. 93. 93. 93. 93.
 93. 93. 93. 87. 87. 87. 87. 93. 87. 87. 93. 93. 93. 93. 87. 87.]",284.9583947228821,None,l,1,0.6212619804737187,284.9583947228821,None,None,None,,,,,,,07_NS,28,M,7,2021_Oct_29_1659,Partial repeat,2021.2.3,120.08079672068087,
6,3,0,1,1,3,2,2,3,1,1,0,0,1,0,0,0,43,43,43,,,,,,,,,,,,,,,,,,,,,,,,,,,,,,,,07_NS,28,M,7,2021_Oct_29_1659,Partial repeat,2021.2.3,120.08079672068087,
7,2,0,1,1,3,2,3,2,1,0,0,0,0,0,0,0,44,44,44,0,0,0,0,,,,,,,285.591167088829,None,0.93453280227715,286.3571701176297,None,"[93. 87. 87. 93. 93. 93. 87. 87. 93. 93. 93. 87. 93. 87. 93. 93. 93. 87.
 87. 87. 87. 87. 93. 93. 87. 87. 87. 93. 87. 87. 87. 87. 87. 87.]",287.3729779934092,None,l,1,0.5109233923867578,287.3729779934092,None,None,None,,,,,,,07_NS,28,M,7,2021_Oct_29_1659,Partial repeat,2021.2.3,120.08079672068087,
7,2,0,1,1,3,2,3,2,1,0,0,0,0,0,0,0,44,44,44,1,0,1,0,,,,,,,,,0.7245920333880957,287.9474571737737,None,"[87. 87. 93. 87. 93. 93. 87. 87. 93. 93. 93. 87. 93. 87. 87. 87. 93. 87.
 87. 87. 93. 93. 87. 87. 87. 87. 93. 93. 87. 87. 87. 93. 87. 93.]",288.74677508429886,None,s,1,0.6256855558549432,288.74677508429886,None,None,None,,,,,,,07_NS,28,M,7,2021_Oct_29_1659,Partial repeat,2021.2.3,120.08079672068087,
7,2,0,1,1,3,2,3,2,1,0,0,0,0,0,0,0,44,44,44,,,,,,,,,,,,,,,,,,,,,,,,,,,,,,,,07_NS,28,M,7,2021_Oct_29_1659,Partial repeat,2021.2.3,120.08079672068087,
1,1,0,1,1,3,3,2,3,1,0,1,0,0,0,0,0,45,45,45,0,0,0,0,,,,,,,289.396222850959,None,0.721472942713739,289.98740437181186,None,"[93. 93. 93. 87. 93. 87. 93. 87. 87. 87. 87. 87. 87. 93. 87. 93. 93. 87.
 87. 93. 87. 87. 87. 93. 93. 87. 93. 87. 87. 93. 87. 87. 87. 93.]",290.79502294050144,None,l,1,0.5925926065738167,290.79502294050144,None,None,None,,,,,,,07_NS,28,M,7,2021_Oct_29_1659,Partial repeat,2021.2.3,120.08079672068087,
1,1,0,1,1,3,3,2,3,1,0,1,0,0,0,0,0,45,45,45,1,0,1,0,,,,,,,,,0.998979525888847,291.45279092873534,None,"[87. 87. 87. 87. 87. 87. 93. 87. 93. 87. 87. 87. 87. 93. 93. 93. 87. 87.
 87. 93. 93. 93. 87. 93. 87. 93. 87. 93. 87. 93. 93. 93. 93. 93.]",292.53519072399286,None,s,1,0.7094634489476448,292.53519072399286,None,None,None,,,,,,,07_NS,28,M,7,2021_Oct_29_1659,Partial repeat,2021.2.3,120.08079672068087,
1,1,0,1,1,3,3,2,3,1,0,1,0,0,0,0,0,45,45,45,,,,,,,,,,,,,,,,,,,,,,,,,,,,,,,,07_NS,28,M,7,2021_Oct_29_1659,Partial repeat,2021.2.3,120.08079672068087,
5,5,0,1,1,3,2,3,2,0,0,0,0,1,0,0,0,46,46,46,0,0,0,0,,,,,,,293.26788945455337,None,0.9432757023296874,294.9164751483768,None,"[93. 87. 87. 87. 93. 87. 87. 87. 93. 87. 87. 93. 87. 87. 93. 87. 93. 87.
 93. 93. 93. 93. 93. 87. 87. 93. 93. 93. 93. 87. 93. 87. 93. 87.]",295.9489144873769,None,s,1,0.7502810583246173,295.9489144873769,None,None,None,,,,,,,07_NS,28,M,7,2021_Oct_29_1659,Partial repeat,2021.2.3,120.08079672068087,
5,5,0,1,1,3,2,3,2,0,0,0,0,1,0,0,0,46,46,46,1,0,1,0,,,,,,,,,0.8789453064141688,296.7731985147202,None,"[93. 93. 93. 93. 87. 87. 87. 93. 93. 87. 87. 93. 87. 93. 93. 87. 87. 87.
 93. 87. 93. 87. 87. 87. 87. 93. 93. 93. 93. 87. 87. 87. 93. 93.]",297.73903695431727,None,s,1,0.9286576545873686,297.73903695431727,None,None,None,,,,,,,07_NS,28,M,7,2021_Oct_29_1659,Partial repeat,2021.2.3,120.08079672068087,
5,5,0,1,1,3,2,3,2,0,0,0,0,1,0,0,0,46,46,46,,,,,,,,,,,,,,,,,,,,,,,,,,,,,,,,07_NS,28,M,7,2021_Oct_29_1659,Partial repeat,2021.2.3,120.08079672068087,
6,7,0,1,1,3,3,2,3,0,0,1,0,1,0,0,0,47,47,47,0,0,0,0,,,,,,,298.6882227637252,None,0.989285863546711,301.3442682098448,None,"[87. 93. 87. 93. 93. 87. 87. 93. 93. 87. 93. 93. 87. 87. 87. 93. 93. 87.
 87. 93. 93. 93. 93. 87. 87. 87. 93. 93. 93. 87. 93. 93. 93. 87.]",302.4100134506443,None,s,1,0.8487058511291252,302.4100134506443,None,None,None,,,,,,,07_NS,28,M,7,2021_Oct_29_1659,Partial repeat,2021.2.3,120.08079672068087,
6,7,0,1,1,3,3,2,3,0,0,1,0,1,0,0,0,47,47,47,1,0,1,0,,,,,,,,,0.9118094316719999,303.3175564596768,None,"[93. 93. 93. 93. 87. 93. 87. 93. 87. 87. 87. 93. 93. 87. 87. 87. 87. 87.
 93. 87. 93. 93. 93. 87. 93. 87. 93. 87. 87. 93. 93. 93. 93. 93.]",304.308371278863,None,s,1,0.6143634735126398,304.308371278863,None,None,None,,,,,,,07_NS,28,M,7,2021_Oct_29_1659,Partial repeat,2021.2.3,120.08079672068087,
6,7,0,1,1,3,3,2,3,0,0,1,0,1,0,0,0,47,47,47,,,,,,,,,,,,,,,,,,,,,,,,,,,,,,,,07_NS,28,M,7,2021_Oct_29_1659,Partial repeat,2021.2.3,120.08079672068087,
3,1,0,1,1,2,3,2,2,1,1,0,1,1,0,0,0,48,48,48,0,0,0,0,,,,,,,304.94116417035366,None,0.7211660486528046,306.1484744068912,None,"[87. 87. 87. 93. 93. 87. 93. 87. 93. 93. 87. 87. 87. 87. 87. 87. 87. 93.
 87. 87. 87. 93. 93. 87. 87. 87. 93. 93. 87. 87. 93. 87. 93. 93.]",306.9477557562914,None,l,1,0.647020575705028,306.9477557562914,None,None,None,,,,,,,07_NS,28,M,7,2021_Oct_29_1659,Partial repeat,2021.2.3,120.08079672068087,
3,1,0,1,1,2,3,2,2,1,1,0,1,1,0,0,0,48,48,48,1,0,1,0,,,,,,,,,0.8068856694798079,307.6471649413452,None,"[87. 87. 93. 87. 93. 87. 93. 87. 87. 93. 87. 93. 87. 87. 87. 93. 93. 87.
 87. 87. 87. 87. 93. 93. 93. 93. 87. 93. 87. 93. 93. 87. 87. 93.]",308.52972579797824,None,l,1,0.8730590880386444,308.52972579797824,None,None,None,,,,,,,07_NS,28,M,7,2021_Oct_29_1659,Partial repeat,2021.2.3,120.08079672068087,
3,1,0,1,1,2,3,2,2,1,1,0,1,1,0,0,0,48,48,48,,,,,,,,,,,,,,,,,,,,,,,,,,,,,,,,07_NS,28,M,7,2021_Oct_29_1659,Partial repeat,2021.2.3,120.08079672068087,
6,8,0,1,1,2,3,2,3,1,1,0,0,1,0,0,0,49,49,49,0,0,0,0,,,,,,,309.4289386433775,None,0.8391828707236236,312.6595232429336,None,"[87. 93. 87. 93. 93. 93. 93. 93. 93. 93. 87. 87. 93. 87. 93. 87. 87. 93.
 87. 93. 87. 87. 87. 93. 93. 87. 87. 93. 93. 87. 93. 93. 87. 93.]",313.5837044501295,None,l,1,0.7951245606745942,313.5837044501295,None,None,None,,,,,,,07_NS,28,M,7,2021_Oct_29_1659,Partial repeat,2021.2.3,120.08079672068087,
6,8,0,1,1,2,3,2,3,1,1,0,0,1,0,0,0,49,49,49,1,0,1,0,,,,,,,,,0.8025598296371166,314.4329901932797,None,"[87. 87. 87. 87. 93. 87. 93. 93. 93. 93. 93. 93. 93. 93. 93. 93. 93. 93.
 93. 87. 87. 93. 87. 87. 93. 93. 87. 93. 93. 87. 93. 87. 87. 87.]",315.3155536156064,None,l,1,0.806443115188813,315.3155536156064,None,None,None,,,,,,,07_NS,28,M,7,2021_Oct_29_1659,Partial repeat,2021.2.3,120.08079672068087,
6,8,0,1,1,2,3,2,3,1,1,0,0,1,0,0,0,49,49,49,,,,,,,,,,,,,,,,,,,,,,,,,,,,,,,,07_NS,28,M,7,2021_Oct_29_1659,Partial repeat,2021.2.3,120.08079672068087,
7,5,0,1,1,2,3,3,2,0,0,0,0,1,0,0,0,50,50,50,0,0,0,0,,,,,,,316.13150972429685,None,0.8577050521985075,319.8199909815885,None,"[93. 87. 93. 93. 87. 93. 93. 93. 87. 93. 87. 93. 93. 87. 93. 93. 93. 87.
 93. 87. 87. 87. 93. 93. 93. 93. 93. 87. 87. 93. 87. 87. 87. 93.]",320.76086202152146,None,s,1,0.6090348499383254,320.76086202152146,None,None,None,,,,,,,07_NS,28,M,7,2021_Oct_29_1659,Partial repeat,2021.2.3,120.08079672068087,
7,5,0,1,1,2,3,3,2,0,0,0,0,1,0,0,0,50,50,50,1,0,1,0,,,,,,,,,0.8836543998486008,321.4269569662738,None,"[87. 93. 93. 93. 93. 93. 93. 87. 87. 87. 87. 87. 93. 93. 87. 87. 87. 87.
 93. 87. 93. 87. 87. 93. 87. 87. 87. 87. 87. 87. 93. 87. 87. 93.]",322.3927828981159,None,s,1,0.7691174139381474,322.3927828981159,None,None,None,,,,,,,07_NS,28,M,7,2021_Oct_29_1659,Partial repeat,2021.2.3,120.08079672068087,
7,5,0,1,1,2,3,3,2,0,0,0,0,1,0,0,0,50,50,50,,,,,,,,,,,,,,,,,,,,,,,,,,,,,,,,07_NS,28,M,7,2021_Oct_29_1659,Partial repeat,2021.2.3,120.08079672068087,
1,4,0,1,1,2,2,3,3,0,1,1,1,0,0,0,0,51,51,51,0,0,0,0,,,,,,,323.18377673852956,None,0.8894689358319378,323.8248731745898,None,"[87. 87. 87. 87. 93. 87. 87. 87. 87. 93. 93. 93. 93. 87. 93. 87. 87. 93.
 93. 93. 87. 93. 93. 87. 93. 87. 93. 93. 93. 87. 93. 87. 93. 87.]",324.7990420985316,None,s,1,0.7159928168312035,324.7990420985316,None,None,None,,,,,,,07_NS,28,M,7,2021_Oct_29_1659,Partial repeat,2021.2.3,120.08079672068087,
1,4,0,1,1,2,2,3,3,0,1,1,1,0,0,0,0,51,51,51,1,0,1,0,,,,,,,,,0.8458642724800681,325.5650448066208,None,"[87. 93. 87. 93. 87. 87. 93. 93. 87. 93. 93. 87. 87. 93. 93. 87. 87. 87.
 93. 93. 87. 93. 87. 87. 87. 87. 87. 87. 87. 93. 93. 87. 93. 87.]",326.48926930988637,None,l,1,0.6406419422837644,326.48926930988637,None,None,None,,,,,,,07_NS,28,M,7,2021_Oct_29_1659,Partial repeat,2021.2.3,120.08079672068087,
1,4,0,1,1,2,2,3,3,0,1,1,1,0,0,0,0,51,51,51,,,,,,,,,,,,,,,,,,,,,,,,,,,,,,,,07_NS,28,M,7,2021_Oct_29_1659,Partial repeat,2021.2.3,120.08079672068087,
1,3,0,1,1,2,3,2,2,0,1,0,1,0,0,0,0,52,52,52,0,0,0,0,,,,,,,327.1470270353475,None,0.9813704238161081,328.52917545683704,None,"[87. 93. 93. 87. 93. 93. 93. 87. 87. 93. 87. 93. 93. 93. 93. 93. 87. 87.
 87. 93. 87. 87. 93. 93. 87. 87. 87. 93. 93. 87. 87. 87. 87. 87.]",329.5865796298094,None,s,1,0.6954069793282542,329.5865796298094,None,None,None,,,,,,,07_NS,28,M,7,2021_Oct_29_1659,Partial repeat,2021.2.3,120.08079672068087,
1,3,0,1,1,2,3,2,2,0,1,0,1,0,0,0,0,52,52,52,1,0,1,0,,,,,,,,,0.8744974441821725,330.3442682098448,None,"[87. 87. 87. 93. 93. 87. 93. 87. 87. 93. 87. 87. 93. 87. 93. 87. 87. 87.
 93. 93. 87. 93. 87. 87. 87. 87. 93. 93. 87. 93. 93. 93. 93. 87.]",331.29348031760674,None,l,1,0.7316146798711998,331.29348031760674,None,None,None,,,,,,,07_NS,28,M,7,2021_Oct_29_1659,Partial repeat,2021.2.3,120.08079672068087,
1,3,0,1,1,2,3,2,2,0,1,0,1,0,0,0,0,52,52,52,,,,,,,,,,,,,,,,,,,,,,,,,,,,,,,,07_NS,28,M,7,2021_Oct_29_1659,Partial repeat,2021.2.3,120.08079672068087,
2,7,0,1,1,3,2,3,2,1,1,0,0,1,0,0,0,53,53,53,0,0,0,0,,,,,,,332.05113458149935,None,0.797338383127382,332.83380018254866,None,"[93. 93. 87. 87. 93. 87. 87. 87. 87. 87. 93. 93. 93. 87. 87. 93. 87. 87.
 93. 93. 93. 93. 87. 87. 87. 87. 87. 87. 87. 93. 87. 87. 93. 87.]",333.7080279891434,None,l,1,0.7338218172444613,333.7080279891434,None,None,None,,,,,,,07_NS,28,M,7,2021_Oct_29_1659,Partial repeat,2021.2.3,120.08079672068087,
2,7,0,1,1,3,2,3,2,1,1,0,0,1,0,0,0,53,53,53,1,0,1,0,,,,,,,,,0.8639297718691665,334.49901798101746,None,"[93. 87. 87. 87. 93. 87. 87. 93. 93. 87. 93. 87. 93. 93. 87. 93. 87. 93.
 87. 93. 93. 93. 93. 87. 93. 87. 93. 87. 93. 87. 87. 93. 93. 87.]",335.4398896623734,None,l,1,0.9531686816135334,335.4398896623734,None,None,None,,,,,,,07_NS,28,M,7,2021_Oct_29_1659,Partial repeat,2021.2.3,120.08079672068087,
2,7,0,1,1,3,2,3,2,1,1,0,0,1,0,0,0,53,53,53,,,,,,,,,,,,,,,,,,,,,,,,,,,,,,,,07_NS,28,M,7,2021_Oct_29_1659,Partial repeat,2021.2.3,120.08079672068087,
2,2,0,1,1,2,3,3,2,1,0,0,0,0,0,0,0,54,54,54,0,0,0,0,,,,,,,336.4057204048913,None,0.7581329627433743,337.10509687735976,None,"[87. 87. 87. 93. 93. 87. 93. 87. 87. 93. 93. 87. 93. 87. 93. 87. 87. 87.
 87. 87. 87. 87. 93. 87. 93. 93. 87. 87. 87. 93. 93. 93. 93. 87.]",337.93773255601445,None,l,1,0.5993362098197395,337.93773255601445,None,None,None,,,,,,,07_NS,28,M,7,2021_Oct_29_1659,Partial repeat,2021.2.3,120.08079672068087,
2,2,0,1,1,2,3,3,2,1,0,0,0,0,0,0,0,54,54,54,1,0,1,0,,,,,,,,,0.9342951478638066,338.5871687770559,None,"[87. 87. 87. 87. 87. 93. 87. 93. 87. 93. 87. 93. 93. 93. 93. 93. 93. 87.
 87. 93. 87. 87. 87. 87. 87. 87. 87. 93. 93. 87. 93. 87. 87. 93.]",339.6112894980415,None,s,1,1.821339528543831,339.6112894980415,None,None,None,,,,,,,07_NS,28,M,7,2021_Oct_29_1659,Partial repeat,2021.2.3,120.08079672068087,
2,2,0,1,1,2,3,3,2,1,0,0,0,0,0,0,0,54,54,54,,,,,,,,,,,,,,,,,,,,,,,,,,,,,,,,07_NS,28,M,7,2021_Oct_29_1659,Partial repeat,2021.2.3,120.08079672068087,
6,6,0,1,1,3,3,2,2,1,0,1,1,0,0,0,0,55,55,55,0,0,0,0,,,,,,,341.45135029213634,None,0.836393913333849,342.22569503018894,None,"[87. 87. 93. 93. 93. 93. 93. 93. 93. 87. 93. 87. 87. 93. 87. 93. 93. 93.
 87. 87. 87. 87. 93. 93. 87. 93. 93. 93. 93. 87. 93. 93. 93. 93.]",343.14991568491496,None,l,1,0.650812990617851,343.14991568491496,None,None,None,,,,,,,07_NS,28,M,7,2021_Oct_29_1659,Partial repeat,2021.2.3,120.08079672068087,
6,6,0,1,1,3,3,2,2,1,0,1,1,0,0,0,0,55,55,55,1,0,1,0,,,,,,,,,0.855064339863868,343.86594895682174,None,"[87. 93. 93. 93. 93. 93. 87. 93. 87. 87. 93. 93. 87. 87. 87. 87. 87. 87.
 93. 87. 93. 93. 93. 87. 93. 87. 93. 93. 93. 93. 93. 93. 93. 87.]",344.80682576956315,None,s,1,1.058850857680227,344.80682576956315,None,None,None,,,,,,,07_NS,28,M,7,2021_Oct_29_1659,Partial repeat,2021.2.3,120.08079672068087,
6,6,0,1,1,3,3,2,2,1,0,1,1,0,0,0,0,55,55,55,,,,,,,,,,,,,,,,,,,,,,,,,,,,,,,,07_NS,28,M,7,2021_Oct_29_1659,Partial repeat,2021.2.3,120.08079672068087,
2,8,0,1,1,2,2,2,3,1,0,1,0,0,0,0,0,56,56,56,0,0,0,0,,,,,,,345.8975412964319,None,0.8586125670429859,347.64602577366895,None,"[87. 93. 93. 93. 87. 93. 87. 93. 87. 87. 93. 93. 93. 93. 87. 93. 87. 87.
 93. 93. 93. 87. 87. 87. 93. 93. 93. 93. 93. 87. 87. 87. 93. 87.]",348.5951987546123,None,l,1,0.5649886366754799,348.5951987546123,None,None,None,,,,,,,07_NS,28,M,7,2021_Oct_29_1659,Partial repeat,2021.2.3,120.08079672068087,
2,8,0,1,1,2,2,2,3,1,0,1,0,0,0,0,0,56,56,56,1,0,1,0,,,,,,,,,0.9565264332673823,349.2196666138552,None,"[93. 87. 93. 93. 87. 87. 87. 93. 87. 87. 87. 87. 87. 93. 93. 93. 93. 93.
 87. 93. 87. 87. 93. 87. 93. 93. 93. 93. 87. 93. 93. 87. 87. 93.]",350.26042874012273,None,s,1,0.6917630538937374,350.26042874012273,None,None,None,,,,,,,07_NS,28,M,7,2021_Oct_29_1659,Partial repeat,2021.2.3,120.08079672068087,
2,8,0,1,1,2,2,2,3,1,0,1,0,0,0,0,0,56,56,56,,,,,,,,,,,,,,,,,,,,,,,,,,,,,,,,07_NS,28,M,7,2021_Oct_29_1659,Partial repeat,2021.2.3,120.08079672068087,
3,5,0,1,1,3,3,2,3,0,1,1,0,0,0,0,0,57,57,57,0,0,0,0,,,,,,,350.96815173251525,None,0.8507151723519866,352.9581080066928,None,"[87. 93. 93. 87. 93. 93. 93. 93. 93. 93. 87. 93. 93. 93. 93. 87. 87. 87.
 93. 87. 87. 87. 87. 87. 93. 87. 93. 87. 87. 93. 93. 87. 93. 87.]",353.8989832158786,None,s,1,0.9732439462168259,353.8989832158786,None,None,None,,,,,,,07_NS,28,M,7,2021_Oct_29_1659,Partial repeat,2021.2.3,120.08079672068087,
3,5,0,1,1,3,3,2,3,0,1,1,0,0,0,0,0,57,57,57,1,0,1,0,,,,,,,,,0.7722744708354768,354.93140940570265,None,"[93. 93. 87. 87. 87. 87. 87. 87. 93. 93. 87. 93. 93. 87. 87. 93. 87. 87.
 93. 93. 87. 87. 93. 93. 93. 93. 87. 93. 93. 93. 87. 93. 87. 93.]",355.7890195396758,None,l,1,0.7481762279585382,355.7890195396758,None,None,None,,,,,,,07_NS,28,M,7,2021_Oct_29_1659,Partial repeat,2021.2.3,120.08079672068087,
3,5,0,1,1,3,3,2,3,0,1,1,0,0,0,0,0,57,57,57,,,,,,,,,,,,,,,,,,,,,,,,,,,,,,,,07_NS,28,M,7,2021_Oct_29_1659,Partial repeat,2021.2.3,120.08079672068087,
2,6,0,1,1,2,2,3,2,1,0,1,0,0,0,0,0,58,58,58,0,0,0,0,,,,,,,356.5466725207225,None,0.7054729648893969,358.7031602281677,None,"[87. 93. 93. 87. 93. 87. 93. 93. 93. 93. 93. 93. 93. 93. 93. 93. 87. 93.
 87. 87. 87. 87. 87. 93. 93. 93. 87. 93. 93. 87. 87. 87. 87. 93.]",359.4941479750578,None,l,1,0.6099738935627101,359.4941479750578,None,None,None,,,,,,,07_NS,28,M,7,2021_Oct_29_1659,Partial repeat,2021.2.3,120.08079672068087,
2,6,0,1,1,2,2,3,2,1,0,1,0,0,0,0,0,58,58,58,1,0,1,0,,,,,,,,,0.9265834839867809,360.1685685934808,None,"[93. 87. 93. 93. 87. 87. 87. 87. 87. 87. 87. 87. 93. 93. 87. 93. 87. 87.
 93. 87. 87. 93. 87. 87. 93. 93. 87. 93. 93. 87. 87. 93. 93. 93.]",361.1843536987344,None,l,0,0.6959242871726019,361.1843536987344,None,361.89208951959336,None,,,,,,,07_NS,28,M,7,2021_Oct_29_1659,Partial repeat,2021.2.3,120.08079672068087,
2,6,0,1,1,2,2,3,2,1,0,1,0,0,0,0,0,58,58,58,,,,,,,,,,,,,,,,,,,,,,,,,,,,,,,,07_NS,28,M,7,2021_Oct_29_1659,Partial repeat,2021.2.3,120.08079672068087,
6,4,0,1,1,2,3,3,2,1,1,0,0,1,0,0,0,59,59,59,0,0,0,0,,,,,,,362.3916398819001,None,0.9793275348361578,362.9411795645119,None,"[87. 87. 87. 87. 87. 87. 93. 93. 87. 87. 87. 87. 87. 93. 93. 87. 87. 87.
 87. 93. 93. 93. 93. 93. 93. 93. 87. 87. 93. 93. 93. 93. 87. 93.]",364.0069299366969,None,l,1,0.752392944346866,364.0069299366969,None,None,None,,,,,,,07_NS,28,M,7,2021_Oct_29_1659,Partial repeat,2021.2.3,120.08079672068087,
6,4,0,1,1,2,3,3,2,1,1,0,0,1,0,0,0,59,59,59,1,0,1,0,,,,,,,,,0.9234965156896017,364.8145642202562,None,"[87. 93. 87. 93. 93. 87. 87. 87. 93. 93. 93. 93. 87. 93. 93. 93. 87. 87.
 87. 93. 87. 93. 93. 93. 93. 93. 87. 93. 87. 93. 93. 93. 87. 87.]",365.8220602129659,None,l,1,0.6174602649225562,365.8220602129659,None,None,None,,,,,,,07_NS,28,M,7,2021_Oct_29_1659,Partial repeat,2021.2.3,120.08079672068087,
6,4,0,1,1,2,3,3,2,1,1,0,0,1,0,0,0,59,59,59,,,,,,,,,,,,,,,,,,,,,,,,,,,,,,,,07_NS,28,M,7,2021_Oct_29_1659,Partial repeat,2021.2.3,120.08079672068087,
7,3,0,1,1,3,3,3,2,1,1,1,0,1,0,0,0,60,60,60,0,0,0,0,,,,,,,366.4631460655419,None,0.8635052216451737,367.57884278267375,None,"[87. 93. 87. 87. 93. 93. 93. 87. 93. 87. 87. 93. 87. 87. 93. 93. 87. 87.
 93. 87. 87. 93. 87. 93. 93. 93. 93. 93. 93. 87. 93. 93. 87. 93.]",368.5280702845921,None,l,1,0.8233048493548267,368.5280702845921,None,None,None,,,,,,,07_NS,28,M,7,2021_Oct_29_1659,Partial repeat,2021.2.3,120.08079672068087,
7,3,0,1,1,3,3,3,2,1,1,1,0,1,0,0,0,60,60,60,1,0,1,0,,,,,,,,,0.7082010165097452,369.4105839966178,None,"[87. 87. 93. 87. 87. 93. 93. 87. 93. 87. 87. 93. 87. 87. 87. 93. 93. 93.
 93. 93. 87. 93. 93. 87. 87. 93. 87. 87. 93. 87. 93. 87. 87. 93.]",370.20159323118787,None,l,1,1.1024753351612162,370.20159323118787,None,None,None,,,,,,,07_NS,28,M,7,2021_Oct_29_1659,Partial repeat,2021.2.3,120.08079672068087,
7,3,0,1,1,3,3,3,2,1,1,1,0,1,0,0,0,60,60,60,,,,,,,,,,,,,,,,,,,,,,,,,,,,,,,,07_NS,28,M,7,2021_Oct_29_1659,Partial repeat,2021.2.3,120.08079672068087,
2,3,0,1,1,3,2,3,3,0,0,0,1,1,0,0,0,61,61,61,0,0,0,0,,,,,,,371.3256191498185,None,0.9564711841432147,373.91505920657255,None,"[93. 87. 87. 93. 87. 93. 93. 93. 93. 93. 87. 87. 93. 93. 87. 93. 93. 87.
 93. 87. 93. 87. 93. 87. 87. 87. 87. 93. 93. 87. 93. 93. 87. 87.]",374.9558319163225,None,s,1,0.7315845329776494,374.9558319163225,None,None,None,,,,,,,07_NS,28,M,7,2021_Oct_29_1659,Partial repeat,2021.2.3,120.08079672068087,
2,3,0,1,1,3,2,3,3,0,0,0,1,1,0,0,0,61,61,61,1,0,1,0,,,,,,,,,0.787980697208524,375.73847859538546,None,"[93. 93. 93. 93. 87. 93. 87. 87. 93. 87. 87. 93. 87. 87. 87. 93. 87. 87.
 93. 87. 87. 93. 93. 93. 93. 93. 93. 87. 93. 87. 93. 87. 87. 93.]",376.6127323796227,None,s,1,0.850692980329768,376.6127323796227,None,None,None,,,,,,,07_NS,28,M,7,2021_Oct_29_1659,Partial repeat,2021.2.3,120.08079672068087,
2,3,0,1,1,3,2,3,3,0,0,0,1,1,0,0,0,61,61,61,,,,,,,,,,,,,,,,,,,,,,,,,,,,,,,,07_NS,28,M,7,2021_Oct_29_1659,Partial repeat,2021.2.3,120.08079672068087,
6,5,0,1,1,3,2,2,2,0,0,0,1,1,0,0,0,62,62,62,0,0,0,0,,,,,,,377.486977825356,None,0.8858846827433039,380.3511773002883,None,"[93. 87. 93. 93. 87. 87. 87. 93. 93. 87. 93. 87. 87. 87. 87. 93. 87. 93.
 87. 87. 87. 93. 93. 93. 87. 93. 87. 87. 93. 87. 93. 87. 93. 87.]",381.32535616628957,None,s,1,0.7931136988136132,381.32535616628957,None,None,None,,,,,,,07_NS,28,M,7,2021_Oct_29_1659,Partial repeat,2021.2.3,120.08079672068087,
6,5,0,1,1,3,2,2,2,0,0,0,1,1,0,0,0,62,62,62,1,0,1,0,,,,,,,,,0.9572775634593834,382.18293038056254,None,"[87. 93. 87. 87. 93. 87. 87. 87. 93. 93. 93. 87. 93. 93. 93. 87. 93. 93.
 87. 87. 93. 87. 87. 93. 87. 93. 87. 87. 93. 93. 87. 87. 93. 93.]",383.2237011660436,None,s,1,0.6547994360626035,383.2237011660436,None,None,None,,,,,,,07_NS,28,M,7,2021_Oct_29_1659,Partial repeat,2021.2.3,120.08079672068087,
6,5,0,1,1,3,2,2,2,0,0,0,1,1,0,0,0,62,62,62,,,,,,,,,,,,,,,,,,,,,,,,,,,,,,,,07_NS,28,M,7,2021_Oct_29_1659,Partial repeat,2021.2.3,120.08079672068087,
7,7,0,1,1,2,3,3,3,1,1,0,1,1,0,0,0,63,63,63,0,0,0,0,,,,,,,383.89813076438986,None,0.8621885363994928,386.7623219008183,None,"[87. 93. 93. 93. 93. 93. 87. 93. 93. 93. 93. 93. 87. 87. 93. 93. 93. 93.
 87. 87. 87. 93. 93. 87. 93. 87. 93. 93. 93. 87. 87. 93. 93. 87.]",387.7114868639728,None,l,1,0.5670642822842638,387.7114868639728,None,None,None,,,,,,,07_NS,28,M,7,2021_Oct_29_1659,Partial repeat,2021.2.3,120.08079672068087,
7,7,0,1,1,2,3,3,3,1,1,0,1,1,0,0,0,63,63,63,1,0,1,0,,,,,,,,,0.9024161527908146,388.3526233889843,None,"[93. 93. 93. 87. 93. 87. 87. 87. 87. 93. 87. 93. 87. 87. 87. 87. 93. 87.
 93. 87. 87. 93. 93. 93. 93. 87. 93. 93. 87. 93. 93. 93. 87. 93.]",389.3434157583579,None,l,1,0.5506730320666975,389.3434157583579,None,None,None,,,,,,,07_NS,28,M,7,2021_Oct_29_1659,Partial repeat,2021.2.3,120.08079672068087,
7,7,0,1,1,2,3,3,3,1,1,0,1,1,0,0,0,63,63,63,,,,,,,,,,,,,,,,,,,,,,,,,,,,,,,,07_NS,28,M,7,2021_Oct_29_1659,Partial repeat,2021.2.3,120.08079672068087,
5,5,0,1,1,2,3,3,2,0,1,0,0,0,1,0,0,64,64,64,0,0,0,0,,,,,,,392.2992098307095,None,0.9376374427439986,398.2024636425267,None,"[87. 93. 87. 87. 87. 93. 87. 87. 93. 93. 93. 93. 93. 93. 87. 87. 87. 93.
 93. 93. 87. 93. 93. 93. 93. 87. 87. 93. 93. 93. 87. 93. 93. 87.]",399.22656576223744,None,s,1,0.8430722308021359,399.22656576223744,None,None,None,,,,,,,07_NS,28,M,7,2021_Oct_29_1659,Partial repeat,2021.2.3,120.08079672068087,
5,5,0,1,1,2,3,3,2,0,1,0,0,0,1,0,0,64,64,64,1,0,1,0,,,,,,,,,0.9396966892091587,400.1341424459897,None,"[87. 93. 93. 93. 93. 87. 93. 87. 93. 87. 87. 93. 87. 87. 93. 93. 93. 87.
 87. 87. 93. 87. 87. 93. 87. 93. 87. 87. 87. 93. 93. 87. 93. 93.]",401.15821922948453,None,l,1,1.871474772633519,401.15821922948453,None,None,None,,,,,,,07_NS,28,M,7,2021_Oct_29_1659,Partial repeat,2021.2.3,120.08079672068087,
5,5,0,1,1,2,3,3,2,0,1,0,0,0,1,0,0,64,64,64,,,,,,,,,,,,,,,,,,,,,,,,,,,,,,,,07_NS,28,M,7,2021_Oct_29_1659,Partial repeat,2021.2.3,120.08079672068087,
5,5,0,1,1,2,3,3,2,1,0,0,0,0,1,0,0,65,65,65,0,0,0,0,,,,,,,403.048279927365,None,0.7408756213985956,404.46373553349986,None,"[93. 87. 93. 93. 93. 93. 87. 93. 87. 93. 93. 93. 93. 87. 87. 93. 93. 87.
 87. 87. 93. 87. 93. 93. 93. 93. 93. 87. 93. 93. 87. 93. 87. 93.]",405.28801859870873,None,l,1,0.6216798677160114,405.28801859870873,None,None,None,,,,,,,07_NS,28,M,7,2021_Oct_29_1659,Partial repeat,2021.2.3,120.08079672068087,
5,5,0,1,1,2,3,3,2,1,0,0,0,0,1,0,0,65,65,65,1,0,1,0,,,,,,,,,0.8075053095223225,405.97076617364655,None,"[93. 93. 87. 87. 87. 87. 93. 87. 93. 87. 93. 93. 93. 87. 93. 93. 93. 87.
 93. 87. 87. 87. 87. 93. 87. 93. 87. 87. 87. 93. 87. 87. 87. 93.]",406.8616482139896,None,l,0,0.5839814995579218,406.8616482139896,None,407.461147711434,None,,,,,,,07_NS,28,M,7,2021_Oct_29_1659,Partial repeat,2021.2.3,120.08079672068087,
5,5,0,1,1,2,3,3,2,1,0,0,0,0,1,0,0,65,65,65,,,,,,,,,,,,,,,,,,,,,,,,,,,,,,,,07_NS,28,M,7,2021_Oct_29_1659,Partial repeat,2021.2.3,120.08079672068087,
5,5,0,1,1,2,3,3,2,0,0,0,0,1,1,0,0,66,66,66,0,0,0,0,,,,,,,407.96069871516556,None,0.997274676100455,408.8266216943448,None,"[87. 93. 87. 87. 93. 87. 93. 93. 87. 93. 93. 93. 93. 93. 87. 87. 93. 87.
 87. 87. 87. 93. 93. 87. 93. 87. 93. 87. 93. 87. 87. 87. 87. 87.]",409.9090359216261,None,s,1,0.6558167333241727,409.9090359216261,None,None,None,,,,,,,07_NS,28,M,7,2021_Oct_29_1659,Partial repeat,2021.2.3,120.08079672068087,
5,5,0,1,1,2,3,3,2,0,0,0,0,1,1,0,0,66,66,66,1,0,1,0,,,,,,,,,0.848147831476406,410.6250695142444,None,"[87. 87. 87. 93. 87. 87. 87. 87. 93. 87. 87. 93. 93. 87. 87. 93. 93. 93.
 93. 87. 87. 87. 93. 87. 87. 87. 87. 87. 87. 93. 87. 87. 87. 93.]",411.55761359765893,None,s,1,0.5913052701271226,411.55761359765893,None,None,None,,,,,,,07_NS,28,M,7,2021_Oct_29_1659,Partial repeat,2021.2.3,120.08079672068087,
5,5,0,1,1,2,3,3,2,0,0,0,0,1,1,0,0,66,66,66,,,,,,,,,,,,,,,,,,,,,,,,,,,,,,,,07_NS,28,M,7,2021_Oct_29_1659,Partial repeat,2021.2.3,120.08079672068087,
5,5,0,1,1,3,3,2,3,1,0,1,0,0,1,0,0,67,67,67,0,0,0,0,,,,,,,412.1654329959656,None,0.8992030525099648,415.6290979729092,None,"[87. 87. 93. 93. 93. 93. 87. 87. 93. 93. 93. 93. 93. 93. 87. 87. 93. 87.
 87. 93. 87. 93. 93. 87. 87. 87. 93. 93. 87. 87. 93. 93. 93. 93.]",416.611607323257,None,l,1,0.7052284519977547,416.611607323257,None,None,None,,,,,,,07_NS,28,M,7,2021_Oct_29_1659,Partial repeat,2021.2.3,120.08079672068087,
5,5,0,1,1,3,3,2,3,1,0,1,0,0,1,0,0,67,67,67,1,0,1,0,,,,,,,,,0.8928245815620529,417.36926415284324,None,"[87. 93. 87. 87. 87. 93. 87. 93. 87. 87. 87. 87. 87. 87. 93. 87. 87. 93.
 87. 87. 87. 87. 87. 87. 93. 93. 93. 93. 93. 93. 93. 87. 93. 87.]",418.35175490191614,None,s,1,0.6931071562976285,418.35175490191614,None,None,None,,,,,,,07_NS,28,M,7,2021_Oct_29_1659,Partial repeat,2021.2.3,120.08079672068087,
5,5,0,1,1,3,3,2,3,1,0,1,0,0,1,0,0,67,67,67,,,,,,,,,,,,,,,,,,,,,,,,,,,,,,,,07_NS,28,M,7,2021_Oct_29_1659,Partial repeat,2021.2.3,120.08079672068087,
5,5,0,1,1,3,3,2,2,1,1,1,1,1,1,0,0,68,68,68,0,0,0,0,,,,,,,419.05948943992735,None,0.9478702733430535,419.76720345239664,None,"[87. 93. 87. 93. 87. 93. 87. 87. 87. 93. 93. 93. 87. 87. 87. 93. 87. 93.
 87. 87. 87. 93. 93. 93. 87. 87. 93. 93. 87. 87. 87. 93. 87. 87.]",420.79965594057285,None,l,1,0.741209088711912,420.79965594057285,None,None,None,,,,,,,07_NS,28,M,7,2021_Oct_29_1659,Partial repeat,2021.2.3,120.08079672068087,
5,5,0,1,1,3,3,2,2,1,1,1,1,1,1,0,0,68,68,68,1,0,1,0,,,,,,,,,0.8013333083260852,421.5906298968657,None,"[87. 87. 93. 87. 93. 93. 87. 93. 93. 87. 87. 87. 93. 93. 93. 93. 87. 87.
 93. 87. 93. 87. 87. 93. 87. 87. 87. 93. 87. 93. 93. 87. 93. 93.]",422.4815565161225,None,l,1,0.6433118665245274,422.4815565161225,None,None,None,,,,,,,07_NS,28,M,7,2021_Oct_29_1659,Partial repeat,2021.2.3,120.08079672068087,
5,5,0,1,1,3,3,2,2,1,1,1,1,1,1,0,0,68,68,68,,,,,,,,,,,,,,,,,,,,,,,,,,,,,,,,07_NS,28,M,7,2021_Oct_29_1659,Partial repeat,2021.2.3,120.08079672068087,
5,5,0,1,1,2,2,3,2,1,0,1,0,0,1,0,0,69,69,69,0,0,0,0,,,,,,,423.14762355896164,None,0.8685600944604581,423.9802403156318,None,"[87. 93. 93. 87. 87. 87. 93. 93. 93. 87. 87. 87. 87. 87. 87. 93. 93. 87.
 93. 93. 93. 93. 93. 93. 87. 87. 87. 93. 87. 87. 93. 93. 87. 93.]",424.93774827088237,None,l,1,0.6982045467939315,424.93774827088237,None,None,None,,,,,,,07_NS,28,M,7,2021_Oct_29_1659,Partial repeat,2021.2.3,120.08079672068087,
5,5,0,1,1,2,2,3,2,1,0,1,0,0,1,0,0,69,69,69,1,0,1,0,,,,,,,,,0.8994137465816087,425.68712304357905,None,"[87. 87. 93. 87. 93. 93. 87. 87. 93. 87. 93. 93. 87. 87. 93. 87. 93. 87.
 93. 93. 93. 93. 87. 87. 93. 87. 87. 93. 93. 93. 87. 87. 87. 87.]",426.66960898197794,None,s,1,0.7585297612076829,426.66960898197794,None,None,None,,,,,,,07_NS,28,M,7,2021_Oct_29_1659,Partial repeat,2021.2.3,120.08079672068087,
5,5,0,1,1,2,2,3,2,1,0,1,0,0,1,0,0,69,69,69,,,,,,,,,,,,,,,,,,,,,,,,,,,,,,,,07_NS,28,M,7,2021_Oct_29_1659,Partial repeat,2021.2.3,120.08079672068087,
5,5,0,1,1,3,3,2,3,1,1,1,0,1,1,0,0,70,70,70,0,0,0,0,,,,,,,427.46057908972944,None,0.8288542098587295,428.01009279470054,None,"[87. 87. 87. 87. 93. 93. 87. 93. 93. 93. 87. 87. 87. 87. 93. 93. 87. 93.
 93. 93. 93. 93. 87. 93. 93. 93. 93. 93. 93. 93. 87. 93. 93. 93.]",428.92596660878917,None,l,1,0.6939746812313388,428.92596660878917,None,None,None,,,,,,,07_NS,28,M,7,2021_Oct_29_1659,Partial repeat,2021.2.3,120.08079672068087,
5,5,0,1,1,3,3,2,3,1,1,1,0,1,1,0,0,70,70,70,1,0,1,0,,,,,,,,,0.773304594901381,429.68367314867646,None,"[93. 87. 93. 93. 93. 93. 87. 87. 93. 87. 93. 87. 93. 87. 93. 93. 87. 87.
 87. 87. 93. 93. 93. 87. 87. 93. 93. 87. 87. 87. 93. 93. 87. 87.]",430.54125345646935,None,l,1,0.5666941810741264,430.54125345646935,None,None,None,,,,,,,07_NS,28,M,7,2021_Oct_29_1659,Partial repeat,2021.2.3,120.08079672068087,
5,5,0,1,1,3,3,2,3,1,1,1,0,1,1,0,0,70,70,70,,,,,,,,,,,,,,,,,,,,,,,,,,,,,,,,07_NS,28,M,7,2021_Oct_29_1659,Partial repeat,2021.2.3,120.08079672068087,
5,5,0,1,1,3,2,2,2,0,1,0,1,0,1,0,0,71,71,71,0,0,0,0,,,,,,,431.1240817224516,None,0.7557333564589598,431.83181241192506,None,"[93. 87. 87. 93. 87. 93. 93. 93. 87. 87. 87. 93. 93. 93. 87. 87. 93. 93.
 93. 93. 87. 93. 93. 87. 87. 93. 87. 93. 87. 87. 93. 93. 93. 87.]",432.6727407309536,None,s,1,0.7392235630704818,432.6727407309536,None,None,None,,,,,,,07_NS,28,M,7,2021_Oct_29_1659,Partial repeat,2021.2.3,120.08079672068087,
5,5,0,1,1,3,2,2,2,0,1,0,1,0,1,0,0,71,71,71,1,0,1,0,,,,,,,,,0.9159051751229361,433.46373745777055,None,"[87. 87. 87. 87. 87. 93. 87. 93. 93. 87. 93. 93. 87. 93. 87. 87. 93. 87.
 87. 93. 93. 87. 93. 93. 87. 87. 87. 93. 93. 87. 87. 93. 93. 93.]",434.4628526144079,None,l,1,0.6780798926029092,434.4628526144079,None,None,None,,,,,,,07_NS,28,M,7,2021_Oct_29_1659,Partial repeat,2021.2.3,120.08079672068087,
5,5,0,1,1,3,2,2,2,0,1,0,1,0,1,0,0,71,71,71,,,,,,,,,,,,,,,,,,,,,,,,,,,,,,,,07_NS,28,M,7,2021_Oct_29_1659,Partial repeat,2021.2.3,120.08079672068087,
5,5,0,1,1,3,3,3,3,1,0,1,1,0,1,0,0,72,72,72,0,0,0,0,,,,,,,435.1622746279263,None,0.8631276733019362,435.8699767740636,None,"[93. 93. 87. 93. 93. 93. 87. 87. 93. 87. 93. 93. 87. 93. 87. 93. 87. 93.
 87. 87. 93. 93. 87. 87. 93. 93. 87. 93. 93. 93. 87. 93. 87. 87.]",436.81918375044006,None,l,1,0.5771458520775923,436.81918375044006,None,None,None,,,,,,,07_NS,28,M,7,2021_Oct_29_1659,Partial repeat,2021.2.3,120.08079672068087,
5,5,0,1,1,3,3,3,3,1,0,1,1,0,1,0,0,72,72,72,1,0,1,0,,,,,,,,,0.9809167241242355,437.4519695862746,None,"[93. 93. 87. 93. 87. 87. 87. 93. 87. 93. 93. 87. 93. 93. 87. 87. 87. 87.
 93. 87. 93. 87. 87. 93. 87. 93. 93. 93. 93. 87. 87. 87. 87. 93.]",438.51772701411755,None,s,1,0.6707570841699635,438.51772701411755,None,None,None,,,,,,,07_NS,28,M,7,2021_Oct_29_1659,Partial repeat,2021.2.3,120.08079672068087,
5,5,0,1,1,3,3,3,3,1,0,1,1,0,1,0,0,72,72,72,,,,,,,,,,,,,,,,,,,,,,,,,,,,,,,,07_NS,28,M,7,2021_Oct_29_1659,Partial repeat,2021.2.3,120.08079672068087,
5,5,0,1,1,3,2,2,3,1,0,0,0,0,1,0,0,73,73,73,0,0,0,0,,,,,,,439.2087935277832,None,0.8556119593154151,440.04140387022017,None,"[93. 87. 93. 93. 93. 93. 87. 87. 93. 93. 87. 87. 93. 87. 87. 93. 93. 87.
 93. 87. 93. 87. 93. 93. 93. 93. 93. 93. 93. 93. 93. 87. 87. 93.]",440.98223931116263,None,l,1,0.6529049925193249,440.98223931116263,None,None,None,,,,,,,07_NS,28,M,7,2021_Oct_29_1659,Partial repeat,2021.2.3,120.08079672068087,
5,5,0,1,1,3,2,2,3,1,0,0,0,0,1,0,0,73,73,73,1,0,1,0,,,,,,,,,0.7228626334674774,441.69830272996114,None,"[87. 93. 87. 87. 87. 87. 93. 93. 93. 87. 93. 87. 93. 93. 87. 87. 93. 87.
 87. 93. 93. 87. 93. 87. 87. 93. 93. 93. 93. 87. 87. 93. 87. 93.]",442.5059328442694,None,s,1,0.6011504754569614,442.5059328442694,None,None,None,,,,,,,07_NS,28,M,7,2021_Oct_29_1659,Partial repeat,2021.2.3,120.08079672068087,
5,5,0,1,1,3,2,2,3,1,0,0,0,0,1,0,0,73,73,73,,,,,,,,,,,,,,,,,,,,,,,,,,,,,,,,07_NS,28,M,7,2021_Oct_29_1659,Partial repeat,2021.2.3,120.08079672068087,
5,5,0,1,1,2,2,2,3,1,0,1,0,0,1,0,0,74,74,74,0,0,0,0,,,,,,,443.13874946842043,None,0.8681461612316682,444.0379530131813,None,"[93. 93. 87. 87. 93. 87. 87. 93. 87. 93. 93. 93. 87. 87. 93. 93. 93. 87.
 93. 87. 93. 93. 93. 87. 93. 93. 93. 93. 93. 87. 93. 87. 93. 87.]",444.99545487491196,None,l,1,0.6556079500587657,444.99545487491196,None,None,None,,,,,,,07_NS,28,M,7,2021_Oct_29_1659,Partial repeat,2021.2.3,120.08079672068087,
5,5,0,1,1,2,2,2,3,1,0,1,0,0,1,0,0,74,74,74,1,0,1,0,,,,,,,,,0.8552061936771665,445.7031910164824,None,"[93. 87. 93. 93. 93. 93. 87. 87. 93. 93. 87. 87. 87. 87. 87. 87. 93. 93.
 93. 93. 93. 93. 87. 93. 93. 93. 87. 87. 87. 93. 93. 93. 93. 93.]",446.6440258160019,None,s,1,0.5439483508071135,446.6440258160019,None,None,None,,,,,,,07_NS,28,M,7,2021_Oct_29_1659,Partial repeat,2021.2.3,120.08079672068087,
5,5,0,1,1,2,2,2,3,1,0,1,0,0,1,0,0,74,74,74,,,,,,,,,,,,,,,,,,,,,,,,,,,,,,,,07_NS,28,M,7,2021_Oct_29_1659,Partial repeat,2021.2.3,120.08079672068087,
5,5,0,1,1,3,3,2,2,1,0,1,1,0,1,0,0,75,75,75,0,0,0,0,,,,,,,447.21022358089976,None,0.7638642508994153,448.3009512948083,None,"[87. 87. 93. 93. 87. 87. 87. 87. 93. 93. 87. 87. 87. 87. 93. 93. 93. 87.
 93. 93. 87. 87. 93. 87. 93. 87. 87. 87. 93. 93. 93. 93. 87. 93.]",449.1502011182565,None,l,1,0.5965405666229344,449.1502011182565,None,None,None,,,,,,,07_NS,28,M,7,2021_Oct_29_1659,Partial repeat,2021.2.3,120.08079672068087,
5,5,0,1,1,3,3,2,2,1,0,1,1,0,1,0,0,75,75,75,1,0,1,0,,,,,,,,,0.948813850346494,449.7996514506103,None,"[87. 93. 87. 93. 87. 93. 87. 93. 93. 93. 87. 93. 87. 87. 87. 87. 87. 93.
 93. 93. 93. 93. 87. 87. 93. 87. 87. 87. 87. 87. 93. 93. 93. 87.]",450.8237705680385,None,s,1,0.5073721526132431,450.8237705680385,None,None,None,,,,,,,07_NS,28,M,7,2021_Oct_29_1659,Partial repeat,2021.2.3,120.08079672068087,
5,5,0,1,1,3,3,2,2,1,0,1,1,0,1,0,0,75,75,75,,,,,,,,,,,,,,,,,,,,,,,,,,,,,,,,07_NS,28,M,7,2021_Oct_29_1659,Partial repeat,2021.2.3,120.08079672068087,
5,5,0,1,1,2,3,2,3,1,0,0,0,0,1,0,0,76,76,76,0,0,0,0,,,,,,,451.35664831982285,None,0.8287455148087564,453.5131042768171,None,"[87. 87. 93. 93. 93. 87. 93. 93. 93. 93. 87. 87. 87. 93. 93. 87. 93. 93.
 87. 93. 87. 87. 87. 87. 93. 87. 87. 87. 93. 93. 87. 87. 93. 87.]",454.429002464989,None,l,1,0.6461799905464432,454.429002464989,None,None,None,,,,,,,07_NS,28,M,7,2021_Oct_29_1659,Partial repeat,2021.2.3,120.08079672068087,
5,5,0,1,1,2,3,2,3,1,0,0,0,0,1,0,0,76,76,76,1,0,1,0,,,,,,,,,0.7073247103409004,455.1283782960327,None,"[93. 93. 93. 87. 87. 93. 93. 87. 93. 87. 87. 93. 87. 87. 87. 87. 87. 87.
 87. 87. 93. 87. 93. 87. 93. 87. 87. 93. 93. 93. 93. 87. 87. 93.]",455.91935257303703,None,s,1,0.5949107101660047,455.91935257303703,None,None,None,,,,,,,07_NS,28,M,7,2021_Oct_29_1659,Partial repeat,2021.2.3,120.08079672068087,
5,5,0,1,1,2,3,2,3,1,0,0,0,0,1,0,0,76,76,76,,,,,,,,,,,,,,,,,,,,,,,,,,,,,,,,07_NS,28,M,7,2021_Oct_29_1659,Partial repeat,2021.2.3,120.08079672068087,
5,5,0,1,1,3,3,3,2,1,1,1,0,1,1,0,0,77,77,77,0,0,0,0,,,,,,,456.5355123977497,None,0.7570560868370142,458.916793615017,None,"[93. 87. 93. 87. 87. 87. 87. 87. 93. 93. 87. 87. 87. 93. 87. 93. 93. 93.
 93. 87. 93. 93. 93. 93. 87. 93. 87. 93. 87. 93. 93. 87. 87. 87.]",459.749417748053,None,l,1,0.5727915504066914,459.749417748053,None,None,None,,,,,,,07_NS,28,M,7,2021_Oct_29_1659,Partial repeat,2021.2.3,120.08079672068087,
5,5,0,1,1,3,3,3,2,1,1,1,0,1,1,0,0,77,77,77,1,0,1,0,,,,,,,,,0.7907873210287862,460.3821878690178,None,"[87. 93. 87. 93. 93. 87. 87. 93. 87. 87. 87. 87. 87. 93. 93. 93. 87. 93.
 87. 93. 87. 87. 87. 93. 87. 93. 93. 87. 87. 93. 87. 87. 87. 87.]",461.25643652186955,None,l,1,0.8418474331210746,461.25643652186955,None,None,None,,,,,,,07_NS,28,M,7,2021_Oct_29_1659,Partial repeat,2021.2.3,120.08079672068087,
5,5,0,1,1,3,3,3,2,1,1,1,0,1,1,0,0,77,77,77,,,,,,,,,,,,,,,,,,,,,,,,,,,,,,,,07_NS,28,M,7,2021_Oct_29_1659,Partial repeat,2021.2.3,120.08079672068087,
5,5,0,1,1,3,2,2,2,1,0,0,1,0,1,0,0,78,78,78,0,0,0,0,,,,,,,462.11404248659164,None,0.9613566569336505,464.5702592568596,None,"[87. 93. 87. 93. 87. 87. 93. 87. 93. 87. 87. 93. 93. 93. 87. 93. 93. 93.
 93. 93. 93. 87. 93. 93. 93. 87. 87. 87. 93. 87. 87. 87. 93. 93.]",465.61937656226655,None,l,1,0.6704081499246968,465.61937656226655,None,None,None,,,,,,,07_NS,28,M,7,2021_Oct_29_1659,Partial repeat,2021.2.3,120.08079672068087,
5,5,0,1,1,3,2,2,2,1,0,0,1,0,1,0,0,78,78,78,1,0,1,0,,,,,,,,,0.8435144142319395,466.3520563708407,None,"[93. 87. 87. 93. 93. 93. 93. 87. 93. 87. 93. 87. 93. 87. 93. 87. 87. 87.
 87. 87. 87. 87. 93. 87. 87. 87. 87. 93. 93. 87. 87. 93. 93. 87.]",467.28457704230823,None,s,1,0.4939644826008589,467.28457704230823,None,None,None,,,,,,,07_NS,28,M,7,2021_Oct_29_1659,Partial repeat,2021.2.3,120.08079672068087,
5,5,0,1,1,3,2,2,2,1,0,0,1,0,1,0,0,78,78,78,,,,,,,,,,,,,,,,,,,,,,,,,,,,,,,,07_NS,28,M,7,2021_Oct_29_1659,Partial repeat,2021.2.3,120.08079672068087,
5,5,0,1,1,3,2,2,3,0,0,0,0,1,1,0,0,79,79,79,0,0,0,0,,,,,,,467.8008031260397,None,0.9507672697265848,469.0164149828761,None,"[87. 93. 87. 87. 87. 93. 87. 93. 93. 87. 87. 87. 93. 87. 87. 87. 93. 87.
 87. 87. 93. 87. 93. 87. 87. 87. 87. 93. 93. 93. 87. 87. 87. 93.]",470.0571838440883,None,s,1,0.809142544900169,470.0571838440883,None,None,None,,,,,,,07_NS,28,M,7,2021_Oct_29_1659,Partial repeat,2021.2.3,120.08079672068087,
5,5,0,1,1,3,2,2,3,0,0,0,0,1,1,0,0,79,79,79,1,0,1,0,,,,,,,,,0.9817042170501253,470.92311804817473,None,"[87. 93. 93. 87. 87. 93. 93. 93. 87. 87. 93. 87. 93. 93. 87. 93. 87. 87.
 87. 87. 93. 87. 93. 87. 93. 93. 87. 87. 93. 87. 87. 87. 93. 93.]",471.9888655339564,None,s,1,0.5256889554002555,471.9888655339564,None,None,None,,,,,,,07_NS,28,M,7,2021_Oct_29_1659,Partial repeat,2021.2.3,120.08079672068087,
5,5,0,1,1,3,2,2,3,0,0,0,0,1,1,0,0,79,79,79,,,,,,,,,,,,,,,,,,,,,,,,,,,,,,,,07_NS,28,M,7,2021_Oct_29_1659,Partial repeat,2021.2.3,120.08079672068087,
5,5,0,1,1,2,2,3,2,0,0,1,0,1,1,0,0,80,80,80,0,0,0,0,,,,,,,472.53006895941326,None,0.994117849892471,474.7614553380208,None,"[87. 87. 87. 87. 87. 87. 93. 93. 93. 87. 93. 93. 93. 93. 93. 87. 93. 87.
 87. 87. 93. 93. 87. 87. 93. 93. 93. 87. 93. 93. 93. 87. 93. 87.]",475.84385801968165,None,s,1,0.7341742793159938,475.84385801968165,None,None,None,,,,,,,07_NS,28,M,7,2021_Oct_29_1659,Partial repeat,2021.2.3,120.08079672068087,
5,5,0,1,1,2,2,3,2,0,0,1,0,1,1,0,0,80,80,80,1,0,1,0,,,,,,,,,0.9576949204314946,476.6431887586732,None,"[87. 87. 93. 93. 87. 93. 87. 87. 87. 87. 93. 93. 93. 93. 93. 87. 93. 93.
 87. 87. 87. 87. 87. 87. 93. 87. 93. 93. 87. 93. 93. 87. 87. 93.]",477.68396595838567,None,s,1,1.0855898683366831,477.68396595838567,None,None,None,,,,,,,07_NS,28,M,7,2021_Oct_29_1659,Partial repeat,2021.2.3,120.08079672068087,
5,5,0,1,1,2,2,3,2,0,0,1,0,1,1,0,0,80,80,80,,,,,,,,,,,,,,,,,,,,,,,,,,,,,,,,07_NS,28,M,7,2021_Oct_29_1659,Partial repeat,2021.2.3,120.08079672068087,
5,5,0,1,1,3,2,2,3,0,1,0,0,0,1,0,0,81,81,81,0,0,0,0,,,,,,,478.7996453570904,None,0.7206919936001611,479.7321932890445,None,"[87. 87. 87. 87. 87. 93. 93. 93. 93. 87. 93. 87. 93. 93. 93. 87. 93. 93.
 87. 87. 93. 87. 93. 87. 87. 87. 87. 93. 87. 87. 93. 87. 93. 93.]",480.5398250069102,None,s,1,0.5015974191719579,480.5398250069102,None,None,None,,,,,,,07_NS,28,M,7,2021_Oct_29_1659,Partial repeat,2021.2.3,120.08079672068087,
5,5,0,1,1,3,2,2,3,0,1,0,0,0,1,0,0,81,81,81,1,0,1,0,,,,,,,,,0.965435648006598,481.097664385552,None,"[87. 87. 87. 93. 87. 87. 87. 93. 93. 93. 87. 93. 87. 93. 93. 87. 93. 87.
 87. 87. 87. 87. 93. 87. 93. 87. 93. 87. 87. 93. 87. 87. 87. 93.]",482.14677174889766,None,l,1,0.5908642916492681,482.14677174889766,None,None,None,,,,,,,07_NS,28,M,7,2021_Oct_29_1659,Partial repeat,2021.2.3,120.08079672068087,
5,5,0,1,1,3,2,2,3,0,1,0,0,0,1,0,0,81,81,81,,,,,,,,,,,,,,,,,,,,,,,,,,,,,,,,07_NS,28,M,7,2021_Oct_29_1659,Partial repeat,2021.2.3,120.08079672068087,
5,5,0,1,1,2,2,2,2,1,0,1,1,0,1,0,0,82,82,82,0,0,0,0,,,,,,,482.7629059166793,None,0.7825014626455501,484.0534440258798,None,"[93. 87. 87. 93. 87. 93. 93. 93. 93. 87. 93. 93. 93. 93. 87. 93. 87. 87.
 93. 87. 93. 87. 87. 93. 87. 87. 93. 93. 87. 93. 93. 87. 93. 93.]",484.91938015423693,None,l,1,0.6506657839836407,484.91938015423693,None,None,None,,,,,,,07_NS,28,M,7,2021_Oct_29_1659,Partial repeat,2021.2.3,120.08079672068087,
5,5,0,1,1,2,2,2,2,1,0,1,1,0,1,0,0,82,82,82,1,0,1,0,,,,,,,,,0.7233679185605987,485.63542272678023,None,"[93. 87. 93. 87. 87. 87. 87. 93. 87. 87. 87. 93. 93. 87. 93. 93. 93. 93.
 93. 87. 93. 87. 87. 93. 87. 93. 93. 93. 87. 87. 87. 87. 87. 93.]",486.4430605381658,None,s,1,0.6143535314531618,486.4430605381658,None,None,None,,,,,,,07_NS,28,M,7,2021_Oct_29_1659,Partial repeat,2021.2.3,120.08079672068087,
5,5,0,1,1,2,2,2,2,1,0,1,1,0,1,0,0,82,82,82,,,,,,,,,,,,,,,,,,,,,,,,,,,,,,,,07_NS,28,M,7,2021_Oct_29_1659,Partial repeat,2021.2.3,120.08079672068087,
5,5,0,1,1,3,2,3,2,0,0,0,0,1,1,0,0,83,83,83,0,0,0,0,,,,,,,487.0758547125042,None,0.9950668261599782,487.92512955145867,None,"[93. 87. 93. 87. 93. 87. 93. 87. 93. 87. 93. 93. 87. 93. 87. 93. 87. 87.
 87. 93. 93. 93. 93. 93. 93. 93. 93. 93. 87. 93. 87. 93. 93. 93.]",489.00751363184645,None,s,1,0.6090345292268466,489.00751363184645,None,None,None,,,,,,,07_NS,28,M,7,2021_Oct_29_1659,Partial repeat,2021.2.3,120.08079672068087,
5,5,0,1,1,3,2,3,2,0,0,0,0,1,1,0,0,83,83,83,1,0,1,0,,,,,,,,,0.9242430137197618,489.6736005588082,None,"[87. 87. 93. 93. 93. 93. 93. 93. 93. 93. 87. 93. 87. 87. 87. 87. 87. 87.
 93. 93. 87. 87. 87. 87. 93. 87. 93. 93. 93. 87. 93. 93. 93. 87.]",490.681087571591,None,s,1,0.5034267582541361,490.681087571591,None,None,None,,,,,,,07_NS,28,M,7,2021_Oct_29_1659,Partial repeat,2021.2.3,120.08079672068087,
5,5,0,1,1,3,2,3,2,0,0,0,0,1,1,0,0,83,83,83,,,,,,,,,,,,,,,,,,,,,,,,,,,,,,,,07_NS,28,M,7,2021_Oct_29_1659,Partial repeat,2021.2.3,120.08079672068087,
5,5,0,1,1,2,3,3,3,1,1,0,1,1,1,0,0,84,84,84,0,0,0,0,,,,,,,491.20563580116686,None,0.8354654821291709,493.2039074862423,None,"[87. 87. 87. 93. 93. 87. 87. 87. 87. 93. 93. 93. 87. 93. 87. 87. 87. 87.
 93. 93. 93. 93. 87. 93. 87. 93. 93. 93. 93. 87. 93. 87. 87. 87.]",494.1281108225412,None,l,1,0.6083276808149094,494.1281108225412,None,None,None,,,,,,,07_NS,28,M,7,2021_Oct_29_1659,Partial repeat,2021.2.3,120.08079672068087,
5,5,0,1,1,2,3,3,3,1,1,0,1,1,1,0,0,84,84,84,1,0,1,0,,,,,,,,,0.8530103880381952,494.78588939425936,None,"[87. 93. 93. 87. 93. 87. 87. 87. 93. 93. 87. 87. 87. 93. 87. 87. 93. 93.
 87. 93. 93. 93. 93. 93. 87. 93. 93. 87. 93. 87. 87. 93. 93. 93.]",495.72674183291747,None,l,1,0.8978112902059365,495.72674183291747,None,None,None,,,,,,,07_NS,28,M,7,2021_Oct_29_1659,Partial repeat,2021.2.3,120.08079672068087,
5,5,0,1,1,2,3,3,3,1,1,0,1,1,1,0,0,84,84,84,,,,,,,,,,,,,,,,,,,,,,,,,,,,,,,,07_NS,28,M,7,2021_Oct_29_1659,Partial repeat,2021.2.3,120.08079672068087,
5,5,0,1,1,3,3,3,2,0,1,1,0,0,1,0,0,85,85,85,0,0,0,0,,,,,,,496.64260538423514,None,0.918431658003342,497.2504183683086,None,"[87. 93. 87. 87. 87. 87. 87. 93. 93. 87. 93. 93. 93. 93. 87. 93. 87. 87.
 87. 87. 93. 93. 93. 87. 87. 93. 93. 93. 93. 87. 87. 87. 87. 93.]",498.25787202708307,None,s,1,0.4947232862941746,498.25787202708307,None,None,None,,,,,,,07_NS,28,M,7,2021_Oct_29_1659,Partial repeat,2021.2.3,120.08079672068087,
5,5,0,1,1,3,3,3,2,0,1,1,0,0,1,0,0,85,85,85,1,0,1,0,,,,,,,,,0.8643334674404719,498.80741684108034,None,"[93. 87. 93. 87. 87. 87. 93. 87. 93. 87. 93. 87. 93. 93. 87. 93. 93. 87.
 93. 93. 87. 87. 87. 93. 93. 87. 93. 93. 87. 93. 93. 87. 87. 87.]",499.7565798799642,None,l,1,0.5800287288348045,499.7565798799642,None,None,None,,,,,,,07_NS,28,M,7,2021_Oct_29_1659,Partial repeat,2021.2.3,120.08079672068087,
5,5,0,1,1,3,3,3,2,0,1,1,0,0,1,0,0,85,85,85,,,,,,,,,,,,,,,,,,,,,,,,,,,,,,,,07_NS,28,M,7,2021_Oct_29_1659,Partial repeat,2021.2.3,120.08079672068087,
5,5,0,1,1,3,3,2,3,0,1,1,0,0,1,0,0,86,86,86,0,0,0,0,,,,,,,500.36440889961887,None,0.7156368849554159,502.1628576816529,None,"[93. 87. 87. 93. 93. 87. 93. 87. 93. 87. 87. 87. 87. 87. 93. 87. 87. 87.
 87. 87. 93. 87. 93. 93. 93. 93. 87. 87. 87. 93. 87. 87. 93. 87.]",502.9621499352488,None,s,1,0.7336194482122664,502.9621499352488,None,None,None,,,,,,,07_NS,28,M,7,2021_Oct_29_1659,Partial repeat,2021.2.3,120.08079672068087,
5,5,0,1,1,3,3,2,3,0,1,1,0,0,1,0,0,86,86,86,1,0,1,0,,,,,,,,,0.7984164455207121,503.75314858633465,None,"[87. 93. 87. 87. 93. 87. 87. 87. 93. 87. 93. 93. 93. 93. 87. 93. 87. 93.
 93. 93. 93. 93. 93. 93. 87. 93. 93. 87. 93. 87. 87. 87. 87. 93.]",504.63572195072084,None,l,1,0.6279565148415713,504.63572195072084,None,None,None,,,,,,,07_NS,28,M,7,2021_Oct_29_1659,Partial repeat,2021.2.3,120.08079672068087,
5,5,0,1,1,3,3,2,3,0,1,1,0,0,1,0,0,86,86,86,,,,,,,,,,,,,,,,,,,,,,,,,,,,,,,,07_NS,28,M,7,2021_Oct_29_1659,Partial repeat,2021.2.3,120.08079672068087,
5,5,0,1,1,3,3,3,3,0,1,1,1,0,1,0,0,87,87,87,0,0,0,0,,,,,,,505.27683346022786,None,0.9725655047734862,505.90960197763525,None,"[93. 93. 87. 93. 87. 93. 87. 87. 87. 93. 87. 93. 87. 87. 87. 93. 93. 93.
 93. 93. 87. 93. 87. 93. 87. 87. 93. 87. 87. 93. 93. 93. 93. 93.]",506.96704591884736,None,s,1,0.6326478844275698,506.96704591884736,None,None,None,,,,,,,07_NS,28,M,7,2021_Oct_29_1659,Partial repeat,2021.2.3,120.08079672068087,
5,5,0,1,1,3,3,3,3,0,1,1,1,0,1,0,0,87,87,87,1,0,1,0,,,,,,,,,0.7535787345906562,507.65811531891814,None,"[87. 93. 87. 93. 87. 93. 93. 93. 93. 93. 93. 87. 87. 93. 87. 87. 93. 87.
 87. 87. 93. 93. 87. 87. 87. 93. 93. 93. 93. 87. 93. 93. 93. 93.]",508.4990564664113,None,l,1,0.6206272921754135,508.4990564664113,None,None,None,,,,,,,07_NS,28,M,7,2021_Oct_29_1659,Partial repeat,2021.2.3,120.08079672068087,
5,5,0,1,1,3,3,3,3,0,1,1,1,0,1,0,0,87,87,87,,,,,,,,,,,,,,,,,,,,,,,,,,,,,,,,07_NS,28,M,7,2021_Oct_29_1659,Partial repeat,2021.2.3,120.08079672068087,
5,5,0,1,1,2,2,2,2,0,1,1,1,0,1,0,0,88,88,88,0,0,0,0,,,,,,,509.1485019880911,None,0.9004168469615002,511.6380163216563,None,"[93. 93. 93. 87. 93. 87. 87. 87. 93. 93. 93. 87. 87. 87. 87. 93. 87. 93.
 87. 87. 87. 93. 93. 93. 87. 87. 93. 93. 87. 87. 93. 93. 87. 87.]",512.6204968079564,None,s,1,0.6272304237318167,512.6204968079564,None,None,None,,,,,,,07_NS,28,M,7,2021_Oct_29_1659,Partial repeat,2021.2.3,120.08079672068087,
5,5,0,1,1,2,2,2,2,0,1,1,1,0,1,0,0,88,88,88,1,0,1,0,,,,,,,,,0.8487774042165404,513.3115825643199,None,"[87. 87. 93. 87. 87. 93. 93. 87. 87. 87. 93. 87. 87. 87. 93. 87. 87. 87.
 87. 87. 93. 87. 87. 93. 93. 93. 93. 93. 93. 87. 93. 87. 93. 93.]",514.2441138192717,None,l,1,0.7316364882608468,514.2441138192717,None,None,None,,,,,,,07_NS,28,M,7,2021_Oct_29_1659,Partial repeat,2021.2.3,120.08079672068087,
5,5,0,1,1,2,2,2,2,0,1,1,1,0,1,0,0,88,88,88,,,,,,,,,,,,,,,,,,,,,,,,,,,,,,,,07_NS,28,M,7,2021_Oct_29_1659,Partial repeat,2021.2.3,120.08079672068087,
5,5,0,1,1,2,2,2,3,1,1,1,0,1,1,0,0,89,89,89,0,0,0,0,,,,,,,514.9934741599445,None,0.763090780573867,517.2748123355941,None,"[87. 93. 87. 87. 87. 87. 87. 87. 93. 93. 87. 93. 93. 87. 93. 93. 87. 87.
 87. 93. 93. 93. 93. 87. 93. 87. 87. 93. 87. 93. 93. 87. 87. 87.]",518.1240884573963,None,l,1,0.7387848295711592,518.1240884573963,None,None,None,,,,,,,07_NS,28,M,7,2021_Oct_29_1659,Partial repeat,2021.2.3,120.08079672068087,
5,5,0,1,1,2,2,2,3,1,1,1,0,1,1,0,0,89,89,89,1,0,1,0,,,,,,,,,0.9945856362662917,518.9150720350372,None,"[87. 87. 87. 87. 93. 93. 93. 93. 93. 87. 87. 93. 87. 87. 87. 87. 93. 93.
 87. 93. 87. 87. 87. 87. 87. 87. 87. 93. 93. 93. 87. 93. 87. 87.]",519.9891522501439,None,l,1,0.5696751955874788,519.9891522501439,None,None,None,,,,,,,07_NS,28,M,7,2021_Oct_29_1659,Partial repeat,2021.2.3,120.08079672068087,
5,5,0,1,1,2,2,2,3,1,1,1,0,1,1,0,0,89,89,89,,,,,,,,,,,,,,,,,,,,,,,,,,,,,,,,07_NS,28,M,7,2021_Oct_29_1659,Partial repeat,2021.2.3,120.08079672068087,
5,5,0,1,1,3,2,3,3,1,1,0,1,1,1,0,0,90,90,90,0,0,0,0,,,,,,,520.5803093969134,None,0.8332359459920692,523.1863818790243,None,"[87. 93. 93. 93. 87. 87. 87. 87. 93. 87. 87. 93. 87. 87. 87. 93. 93. 93.
 87. 93. 87. 93. 87. 87. 93. 87. 93. 93. 87. 93. 93. 87. 93. 87.]",524.0939531106778,None,l,1,0.5768879999359342,524.0939531106778,None,None,None,,,,,,,07_NS,28,M,7,2021_Oct_29_1659,Partial repeat,2021.2.3,120.08079672068087,
5,5,0,1,1,3,2,3,3,1,1,0,1,1,1,0,0,90,90,90,1,0,1,0,,,,,,,,,0.9856856890178258,524.7350421703704,None,"[87. 93. 87. 93. 87. 93. 93. 93. 87. 93. 87. 87. 87. 87. 93. 87. 93. 87.
 93. 93. 87. 93. 87. 93. 93. 93. 93. 93. 87. 93. 87. 87. 93. 93.]",525.8008056917333,None,l,1,0.5660517956985132,525.8008056917333,None,None,None,,,,,,,07_NS,28,M,7,2021_Oct_29_1659,Partial repeat,2021.2.3,120.08079672068087,
5,5,0,1,1,3,2,3,3,1,1,0,1,1,1,0,0,90,90,90,,,,,,,,,,,,,,,,,,,,,,,,,,,,,,,,07_NS,28,M,7,2021_Oct_29_1659,Partial repeat,2021.2.3,120.08079672068087,
5,5,0,1,1,2,3,3,2,1,1,0,0,1,1,0,0,91,91,91,0,0,0,0,,,,,,,526.391965083485,None,0.9265550743188555,528.1487771586617,None,"[93. 87. 93. 93. 87. 87. 93. 87. 87. 87. 87. 93. 87. 93. 87. 87. 87. 93.
 93. 87. 93. 87. 87. 93. 93. 87. 87. 87. 93. 87. 87. 87. 87. 93.]",529.164613898487,None,l,1,0.6102609304634825,529.164613898487,None,None,None,,,,,,,07_NS,28,M,7,2021_Oct_29_1659,Partial repeat,2021.2.3,120.08079672068087,
5,5,0,1,1,2,3,3,2,1,1,0,0,1,1,0,0,91,91,91,1,0,1,0,,,,,,,,,0.8214007681882998,529.8389867308779,None,"[87. 93. 93. 93. 93. 93. 87. 93. 93. 87. 87. 93. 93. 93. 93. 87. 93. 87.
 93. 87. 93. 93. 93. 87. 93. 93. 87. 93. 87. 87. 93. 87. 93. 93.]",530.7465720738437,None,l,1,0.5649706768253964,530.7465720738437,None,None,None,,,,,,,07_NS,28,M,7,2021_Oct_29_1659,Partial repeat,2021.2.3,120.08079672068087,
5,5,0,1,1,2,3,3,2,1,1,0,0,1,1,0,0,91,91,91,,,,,,,,,,,,,,,,,,,,,,,,,,,,,,,,07_NS,28,M,7,2021_Oct_29_1659,Partial repeat,2021.2.3,120.08079672068087,
5,5,0,1,1,3,2,2,2,0,0,0,1,1,1,0,0,92,92,92,0,0,0,0,,,,,,,531.3376942630457,None,0.8918438122718029,533.510822734348,None,"[87. 87. 93. 87. 93. 93. 87. 87. 87. 93. 87. 93. 93. 87. 93. 93. 93. 93.
 93. 87. 93. 87. 87. 93. 93. 93. 93. 87. 93. 93. 87. 93. 87. 93.]",534.4766560425596,None,s,1,0.6579295814790385,534.4766560425596,None,None,None,,,,,,,07_NS,28,M,7,2021_Oct_29_1659,Partial repeat,2021.2.3,120.08079672068087,
5,5,0,1,1,3,2,2,2,0,0,0,1,1,1,0,0,92,92,92,1,0,1,0,,,,,,,,,0.9841872747124134,535.1843729414322,None,"[93. 87. 87. 87. 87. 93. 87. 93. 87. 87. 93. 87. 93. 93. 93. 87. 93. 93.
 93. 87. 93. 87. 87. 93. 93. 87. 93. 87. 93. 87. 93. 87. 93. 87.]",536.2584627778888,None,s,1,0.6354839372888819,536.2584627778888,None,None,None,,,,,,,07_NS,28,M,7,2021_Oct_29_1659,Partial repeat,2021.2.3,120.08079672068087,
5,5,0,1,1,3,2,2,2,0,0,0,1,1,1,0,0,92,92,92,,,,,,,,,,,,,,,,,,,,,,,,,,,,,,,,07_NS,28,M,7,2021_Oct_29_1659,Partial repeat,2021.2.3,120.08079672068087,
5,5,0,1,1,2,2,3,3,0,0,1,1,1,1,0,0,93,93,93,0,0,0,0,,,,,,,536.9078906604282,None,0.9073438371320197,539.6971696558048,None,"[93. 87. 93. 93. 93. 93. 93. 93. 93. 93. 93. 93. 93. 87. 93. 93. 93. 87.
 87. 93. 93. 87. 93. 93. 93. 87. 93. 93. 93. 87. 87. 93. 87. 93.]",540.6796729126327,None,s,1,0.646334252836823,540.6796729126327,None,None,None,,,,,,,07_NS,28,M,7,2021_Oct_29_1659,Partial repeat,2021.2.3,120.08079672068087,
5,5,0,1,1,2,2,3,3,0,0,1,1,1,1,0,0,93,93,93,1,0,1,0,,,,,,,,,0.7929258843901865,541.3873529296689,None,"[87. 87. 93. 87. 93. 87. 93. 93. 93. 93. 87. 87. 87. 93. 87. 87. 93. 93.
 93. 87. 87. 93. 93. 93. 87. 87. 93. 93. 93. 93. 93. 93. 93. 93.]",542.261622428774,None,s,1,0.6003054003358557,542.261622428774,None,None,None,,,,,,,07_NS,28,M,7,2021_Oct_29_1659,Partial repeat,2021.2.3,120.08079672068087,
5,5,0,1,1,2,2,3,3,0,0,1,1,1,1,0,0,93,93,93,,,,,,,,,,,,,,,,,,,,,,,,,,,,,,,,07_NS,28,M,7,2021_Oct_29_1659,Partial repeat,2021.2.3,120.08079672068087,
5,5,0,1,1,2,3,2,3,1,1,0,0,1,1,0,0,94,94,94,0,0,0,0,,,,,,,542.8777598036722,None,0.7167208950779517,544.5513244427784,None,"[87. 93. 87. 93. 93. 93. 87. 87. 87. 93. 93. 87. 93. 87. 93. 87. 87. 93.
 87. 87. 87. 93. 93. 87. 87. 87. 93. 93. 93. 93. 93. 87. 87. 87.]",545.3506304869752,None,s,0,0.648408615597873,545.3506304869752,None,546.0083750632602,None,,,,,,,07_NS,28,M,7,2021_Oct_29_1659,Partial repeat,2021.2.3,120.08079672068087,
5,5,0,1,1,2,3,2,3,1,1,0,0,1,1,0,0,94,94,94,1,0,1,0,,,,,,,,,0.8397934669892488,546.5495871479307,None,"[93. 93. 93. 87. 87. 93. 87. 87. 87. 87. 87. 87. 93. 87. 93. 93. 93. 93.
 87. 87. 93. 87. 93. 93. 93. 87. 93. 87. 87. 93. 93. 93. 93. 93.]",547.4654606413078,None,l,1,1.7159636320739082,547.4654606413078,None,None,None,,,,,,,07_NS,28,M,7,2021_Oct_29_1659,Partial repeat,2021.2.3,120.08079672068087,
5,5,0,1,1,2,3,2,3,1,1,0,0,1,1,0,0,94,94,94,,,,,,,,,,,,,,,,,,,,,,,,,,,,,,,,07_NS,28,M,7,2021_Oct_29_1659,Partial repeat,2021.2.3,120.08079672068087,
5,5,0,1,1,2,3,2,3,0,0,0,0,1,1,0,0,95,95,95,0,0,0,0,,,,,,,549.2139447978334,None,0.7295365297033799,552.178052998237,None,"[87. 87. 87. 93. 87. 93. 87. 87. 87. 87. 87. 93. 93. 87. 87. 87. 87. 93.
 87. 87. 87. 87. 87. 87. 93. 87. 93. 93. 93. 87. 87. 87. 93. 87.]",552.9940216146806,None,s,1,0.8430956427509955,552.9940216146806,None,None,None,,,,,,,07_NS,28,M,7,2021_Oct_29_1659,Partial repeat,2021.2.3,120.08079672068087,
5,5,0,1,1,2,3,2,3,0,0,0,0,1,1,0,0,95,95,95,1,0,1,0,,,,,,,,,0.7433198290221561,553.8932399121768,None,"[87. 93. 87. 93. 87. 93. 93. 93. 87. 93. 87. 87. 87. 87. 93. 87. 87. 87.
 93. 93. 93. 87. 87. 87. 93. 93. 93. 87. 87. 93. 87. 87. 87. 87.]",554.7258707801557,None,s,1,0.6472745793089416,554.7258707801557,None,None,None,,,,,,,07_NS,28,M,7,2021_Oct_29_1659,Partial repeat,2021.2.3,120.08079672068087,
5,5,0,1,1,2,3,2,3,0,0,0,0,1,1,0,0,95,95,95,,,,,,,,,,,,,,,,,,,,,,,,,,,,,,,,07_NS,28,M,7,2021_Oct_29_1659,Partial repeat,2021.2.3,120.08079672068087,
5,5,0,1,1,2,3,2,2,1,1,0,1,1,1,0,0,96,96,96,0,0,0,0,,,,,,,555.39198015693,None,0.8910454518674703,557.4735143515245,None,"[87. 93. 93. 87. 93. 87. 87. 93. 87. 93. 87. 93. 93. 93. 93. 93. 87. 87.
 87. 93. 87. 87. 87. 87. 87. 93. 87. 87. 87. 87. 93. 93. 87. 87.]",558.4476688434424,None,l,1,0.7495033326449629,558.4476688434424,None,None,None,,,,,,,07_NS,28,M,7,2021_Oct_29_1659,Partial repeat,2021.2.3,120.08079672068087,
5,5,0,1,1,2,3,2,2,1,1,0,1,1,1,0,0,96,96,96,1,0,1,0,,,,,,,,,0.9521886353687241,559.2552854878631,None,"[93. 93. 87. 93. 93. 87. 87. 87. 93. 93. 87. 93. 93. 93. 87. 93. 93. 93.
 93. 87. 87. 93. 87. 93. 87. 87. 93. 87. 87. 93. 87. 87. 93. 87.]",560.2960700639433,None,l,1,0.708897072225227,560.2960700639433,None,None,None,,,,,,,07_NS,28,M,7,2021_Oct_29_1659,Partial repeat,2021.2.3,120.08079672068087,
5,5,0,1,1,2,3,2,2,1,1,0,1,1,1,0,0,96,96,96,,,,,,,,,,,,,,,,,,,,,,,,,,,,,,,,07_NS,28,M,7,2021_Oct_29_1659,Partial repeat,2021.2.3,120.08079672068087,
5,5,0,1,1,3,2,3,3,0,0,0,1,1,1,0,0,97,97,97,0,0,0,0,,,,,,,561.028781943678,None,0.8334338244432157,563.185248804868,None,"[87. 87. 87. 93. 93. 93. 93. 87. 93. 93. 93. 87. 87. 93. 93. 87. 87. 93.
 93. 93. 93. 87. 93. 93. 87. 93. 93. 87. 87. 93. 87. 93. 87. 87.]",564.1011296746128,None,s,1,0.679179612749067,564.1011296746128,None,None,None,,,,,,,07_NS,28,M,7,2021_Oct_29_1659,Partial repeat,2021.2.3,120.08079672068087,
5,5,0,1,1,3,2,3,3,0,0,0,1,1,1,0,0,97,97,97,1,0,1,0,,,,,,,,,0.8690555118904368,564.8421415710891,None,"[93. 87. 93. 87. 93. 87. 87. 87. 93. 93. 87. 93. 87. 87. 93. 87. 87. 87.
 87. 93. 93. 87. 93. 93. 93. 87. 87. 93. 87. 87. 87. 87. 93. 87.]",565.791344698926,None,s,1,0.5889220620756532,565.791344698926,None,None,None,,,,,,,07_NS,28,M,7,2021_Oct_29_1659,Partial repeat,2021.2.3,120.08079672068087,
5,5,0,1,1,3,2,3,3,0,0,0,1,1,1,0,0,97,97,97,,,,,,,,,,,,,,,,,,,,,,,,,,,,,,,,07_NS,28,M,7,2021_Oct_29_1659,Partial repeat,2021.2.3,120.08079672068087,
5,5,0,1,1,2,2,3,3,1,0,1,1,0,1,0,0,98,98,98,0,0,0,0,,,,,,,566.3908207844215,None,0.9401302859044702,568.2891654634641,None,"[87. 93. 93. 93. 87. 93. 93. 93. 87. 87. 87. 87. 93. 87. 87. 87. 87. 87.
 87. 93. 93. 93. 87. 93. 93. 93. 87. 93. 93. 93. 93. 93. 87. 93.]",569.3133002957602,None,l,1,0.7789760891555488,569.3133002957602,None,None,None,,,,,,,07_NS,28,M,7,2021_Oct_29_1659,Partial repeat,2021.2.3,120.08079672068087,
5,5,0,1,1,2,2,3,3,1,0,1,1,0,1,0,0,98,98,98,1,0,1,0,,,,,,,,,0.7273477394617583,570.1542228419785,None,"[93. 87. 87. 93. 93. 87. 93. 93. 87. 87. 87. 87. 93. 87. 87. 87. 87. 93.
 87. 93. 87. 87. 93. 93. 93. 87. 93. 93. 93. 93. 87. 93. 93. 87.]",570.9701953069616,None,s,1,0.6581024450424593,570.9701953069616,None,None,None,,,,,,,07_NS,28,M,7,2021_Oct_29_1659,Partial repeat,2021.2.3,120.08079672068087,
5,5,0,1,1,2,2,3,3,1,0,1,1,0,1,0,0,98,98,98,,,,,,,,,,,,,,,,,,,,,,,,,,,,,,,,07_NS,28,M,7,2021_Oct_29_1659,Partial repeat,2021.2.3,120.08079672068087,
5,5,0,1,1,3,2,2,2,1,1,0,1,1,1,0,0,99,99,99,0,0,0,0,,,,,,,571.6446178496535,None,0.9721119015665441,574.592090096874,None,"[93. 93. 87. 87. 87. 93. 87. 87. 93. 93. 87. 93. 93. 93. 93. 87. 87. 87.
 93. 87. 93. 93. 93. 93. 93. 87. 93. 93. 93. 93. 87. 87. 93. 93.]",575.6495083811569,None,l,1,0.6677988401806942,575.6495083811569,None,None,None,,,,,,,07_NS,28,M,7,2021_Oct_29_1659,Partial repeat,2021.2.3,120.08079672068087,
5,5,0,1,1,3,2,2,2,1,1,0,1,1,1,0,0,99,99,99,1,0,1,0,,,,,,,,,0.7938823488761017,576.3822125638126,None,"[93. 87. 87. 87. 93. 93. 87. 93. 93. 93. 93. 87. 93. 87. 87. 87. 93. 87.
 93. 93. 87. 93. 93. 87. 93. 93. 87. 93. 87. 87. 87. 87. 93. 87.]",577.2647807968133,None,l,1,0.8115648797702306,577.2647807968133,None,None,None,,,,,,,07_NS,28,M,7,2021_Oct_29_1659,Partial repeat,2021.2.3,120.08079672068087,
5,5,0,1,1,3,2,2,2,1,1,0,1,1,1,0,0,99,99,99,,,,,,,,,,,,,,,,,,,,,,,,,,,,,,,,07_NS,28,M,7,2021_Oct_29_1659,Partial repeat,2021.2.3,120.08079672068087,
5,5,0,1,1,2,2,2,2,1,1,1,1,1,1,0,0,100,100,100,0,0,0,0,,,,,,,578.1057190579031,None,0.8927003838648166,580.9282786188614,None,"[93. 87. 87. 87. 87. 93. 93. 87. 93. 93. 87. 93. 87. 93. 87. 87. 93. 87.
 93. 87. 93. 93. 93. 87. 87. 87. 87. 93. 93. 87. 93. 93. 93. 93.]",581.902457164153,None,l,1,0.7009463104386668,581.902457164153,None,None,None,,,,,,,07_NS,28,M,7,2021_Oct_29_1659,Partial repeat,2021.2.3,120.08079672068087,
5,5,0,1,1,2,2,2,2,1,1,1,1,1,1,0,0,100,100,100,1,0,1,0,,,,,,,,,0.8870913951536386,582.6684374224278,None,"[87. 93. 93. 93. 93. 93. 87. 87. 87. 93. 93. 93. 87. 93. 87. 93. 87. 87.
 93. 87. 93. 93. 93. 93. 87. 87. 87. 93. 93. 93. 93. 87. 87. 87.]",583.6426207783916,None,l,1,0.6727987343456334,583.6426207783916,None,None,None,,,,,,,07_NS,28,M,7,2021_Oct_29_1659,Partial repeat,2021.2.3,120.08079672068087,
5,5,0,1,1,2,2,2,2,1,1,1,1,1,1,0,0,100,100,100,,,,,,,,,,,,,,,,,,,,,,,,,,,,,,,,07_NS,28,M,7,2021_Oct_29_1659,Partial repeat,2021.2.3,120.08079672068087,
5,5,0,1,1,2,2,3,3,0,1,1,1,0,1,0,0,101,101,101,0,0,0,0,,,,,,,584.3419969301485,None,0.8707543325948202,587.3311251269206,None,"[87. 93. 93. 93. 93. 93. 87. 87. 93. 93. 87. 87. 93. 87. 87. 87. 87. 87.
 93. 93. 93. 93. 87. 93. 87. 93. 87. 93. 93. 87. 87. 87. 87. 87.]",588.2802900900751,None,s,1,0.7231642493788968,588.2802900900751,None,None,None,,,,,,,07_NS,28,M,7,2021_Oct_29_1659,Partial repeat,2021.2.3,120.08079672068087,
