prime_tar_pos,probe_tar_pos,dimension,tar_color,tar_shape,prime_dist_color,probe_dist_color,prime_dist_shape,probe_dist_shape,prime_tar_ori,probe_tar_ori,col_rep,shape_rep,resp_rep,pos_fixed,sparse,MainLoop.thisRepN,MainLoop.thisTrialN,MainLoop.thisN,MainLoop.thisIndex,PrimeProbe.thisRepN,PrimeProbe.thisTrialN,PrimeProbe.thisN,PrimeProbe.thisIndex,Instruction.started,Instruction.stopped,instruction_key.keys,instruction_key.rt,instruction_key.started,instruction_key.stopped,PairStartText.started,PairStartText.stopped,fixdur,FixCross.started,FixCross.stopped,dist_ori,SearchFixCross.started,SearchFixCross.stopped,key_resp.keys,key_resp.corr,key_resp.rt,key_resp.started,key_resp.stopped,feedback_text.started,feedback_text.stopped,text_finish.started,text_finish.stopped,finish_key.keys,finish_key.rt,finish_key.started,finish_key.stopped,participant,age,gender,group,date,expName,psychopyVersion,frameRate,
,,,,,,,,,,,,,,,,,,,,,,,,76.35319587972754,None,space,7.025939013295101,76.35319587972754,None,,,,,,,,,,,,,,,,,,,,,,08_AB,24,M,8,2021_Oct_30_1308,Partial repeat,2021.2.3,120.10639158397129,
2,2,0,1,1,3,2,2,3,0,1,0,0,0,1,0,0,0,0,0,0,0,0,0,,,,,,,217.81612586857318,None,0.9983124301912698,231.19579249311937,None,"[93. 87. 93. 87. 87. 87. 93. 87. 93. 93. 93. 87. 87. 93. 93. 87. 87. 93.
 93. 87. 87. 93. 87. 87. 87. 93. 93. 87. 93. 87. 93. 87. 87. 93.]",232.27823130255274,None,s,1,0.7102954980937284,232.27823130255274,None,None,None,,,,,,,08_AB,24,M,8,2021_Oct_30_1308,Partial repeat,2021.2.3,120.10639158397129,
2,2,0,1,1,3,2,2,3,0,1,0,0,0,1,0,0,0,0,0,1,0,1,0,,,,,,,,,0.9313914191517983,233.06086375890573,None,"[87. 87. 93. 87. 87. 93. 93. 93. 93. 87. 87. 87. 93. 93. 93. 93. 93. 87.
 93. 87. 87. 93. 87. 87. 93. 93. 87. 93. 87. 93. 93. 93. 87. 93.]",234.07664736184142,None,l,1,0.6723823306801933,234.07664736184142,None,None,None,,,,,,,08_AB,24,M,8,2021_Oct_30_1308,Partial repeat,2021.2.3,120.10639158397129,
2,2,0,1,1,3,2,2,3,0,1,0,0,0,1,0,0,0,0,0,,,,,,,,,,,,,,,,,,,,,,,,,,,,,,,,08_AB,24,M,8,2021_Oct_30_1308,Partial repeat,2021.2.3,120.10639158397129,
2,2,0,1,1,3,3,2,3,0,0,1,0,1,1,0,0,1,1,1,0,0,0,0,,,,,,,234.7594111825165,None,0.8503071201578245,238.1065343487553,None,"[87. 87. 93. 93. 87. 93. 93. 93. 93. 87. 87. 87. 93. 87. 87. 87. 93. 93.
 93. 93. 93. 93. 87. 93. 87. 87. 93. 87. 93. 87. 87. 93. 93. 87.]",239.03908794161453,None,s,1,0.7485944840609591,239.03908794161453,None,None,None,,,,,,,08_AB,24,M,8,2021_Oct_30_1308,Partial repeat,2021.2.3,120.10639158397129,
2,2,0,1,1,3,3,2,3,0,0,1,0,1,1,0,0,1,1,1,1,0,1,0,,,,,,,,,0.7347233241420541,239.846733499121,None,"[87. 87. 87. 93. 87. 93. 93. 93. 93. 93. 93. 93. 87. 87. 87. 93. 87. 87.
 87. 87. 87. 93. 87. 93. 87. 93. 93. 87. 93. 93. 87. 93. 93. 93.]",240.66269965228184,None,s,1,0.7729565364488735,240.66269965228184,None,None,None,,,,,,,08_AB,24,M,8,2021_Oct_30_1308,Partial repeat,2021.2.3,120.10639158397129,
2,2,0,1,1,3,3,2,3,0,0,1,0,1,1,0,0,1,1,1,,,,,,,,,,,,,,,,,,,,,,,,,,,,,,,,08_AB,24,M,8,2021_Oct_30_1308,Partial repeat,2021.2.3,120.10639158397129,
2,2,0,1,1,2,3,2,3,0,1,0,0,0,1,0,0,2,2,2,0,0,0,0,,,,,,,241.46202076556892,None,0.7339698675444386,243.43533033188123,None,"[87. 93. 93. 87. 93. 93. 87. 93. 87. 93. 93. 87. 87. 87. 87. 93. 87. 87.
 93. 87. 87. 93. 93. 93. 93. 87. 93. 87. 93. 93. 93. 87. 93. 93.]",244.25129776789709,None,s,1,0.6244215244569205,244.25129776789709,None,None,None,,,,,,,08_AB,24,M,8,2021_Oct_30_1308,Partial repeat,2021.2.3,120.10639158397129,
2,2,0,1,1,2,3,2,3,0,1,0,0,0,1,0,0,2,2,2,1,0,1,0,,,,,,,,,0.887740703636295,244.94240110633382,None,"[93. 93. 87. 93. 93. 93. 93. 87. 87. 87. 93. 87. 87. 87. 93. 87. 87. 87.
 87. 87. 93. 87. 93. 87. 93. 87. 87. 87. 87. 87. 87. 87. 93. 93.]",245.90820565187278,None,l,1,0.5195253811680232,245.90820565187278,None,None,None,,,,,,,08_AB,24,M,8,2021_Oct_30_1308,Partial repeat,2021.2.3,120.10639158397129,
2,2,0,1,1,2,3,2,3,0,1,0,0,0,1,0,0,2,2,2,,,,,,,,,,,,,,,,,,,,,,,,,,,,,,,,08_AB,24,M,8,2021_Oct_30_1308,Partial repeat,2021.2.3,120.10639158397129,
2,2,0,1,1,2,3,2,2,1,1,0,1,1,1,0,0,3,3,3,0,0,0,0,,,,,,,246.45772961656075,None,0.7234530644287964,247.37362149243472,None,"[87. 87. 87. 87. 93. 87. 93. 93. 93. 93. 93. 87. 93. 93. 93. 87. 93. 87.
 87. 87. 93. 87. 93. 87. 93. 93. 93. 93. 93. 87. 87. 93. 93. 87.]",248.17293202217024,None,l,1,0.6708512435825469,248.17293202217024,None,None,None,,,,,,,08_AB,24,M,8,2021_Oct_30_1308,Partial repeat,2021.2.3,120.10639158397129,
2,2,0,1,1,2,3,2,2,1,1,0,1,1,1,0,0,3,3,3,1,0,1,0,,,,,,,,,0.760028010145807,248.91397561164922,None,"[93. 93. 87. 93. 87. 87. 87. 93. 87. 93. 93. 87. 93. 93. 93. 87. 87. 93.
 87. 87. 93. 87. 87. 93. 93. 93. 87. 87. 87. 93. 93. 93. 93. 93.]",249.7549231153098,None,l,1,0.5608968041678963,249.7549231153098,None,None,None,,,,,,,08_AB,24,M,8,2021_Oct_30_1308,Partial repeat,2021.2.3,120.10639158397129,
2,2,0,1,1,2,3,2,2,1,1,0,1,1,1,0,0,3,3,3,,,,,,,,,,,,,,,,,,,,,,,,,,,,,,,,08_AB,24,M,8,2021_Oct_30_1308,Partial repeat,2021.2.3,120.10639158397129,
2,2,0,1,1,2,2,2,2,0,1,1,1,0,1,0,0,4,4,4,0,0,0,0,,,,,,,250.33775062972109,None,0.8959190959642593,251.51174806272866,None,"[93. 87. 93. 93. 87. 93. 93. 93. 93. 87. 87. 87. 87. 93. 93. 87. 87. 93.
 87. 87. 87. 87. 87. 87. 87. 93. 93. 87. 93. 87. 87. 93. 93. 87.]",252.4858937295985,None,s,1,0.6289795072443667,252.4858937295985,None,None,None,,,,,,,08_AB,24,M,8,2021_Oct_30_1308,Partial repeat,2021.2.3,120.10639158397129,
2,2,0,1,1,2,2,2,2,0,1,1,1,0,1,0,0,4,4,4,1,0,1,0,,,,,,,,,0.8940728129599185,253.18532632295955,None,"[87. 93. 93. 87. 87. 87. 93. 87. 93. 93. 93. 87. 93. 87. 87. 87. 87. 87.
 93. 93. 93. 87. 93. 87. 93. 87. 87. 93. 93. 87. 87. 87. 87. 93.]",254.15950277834236,None,l,1,0.6673615580548358,254.15950277834236,None,None,None,,,,,,,08_AB,24,M,8,2021_Oct_30_1308,Partial repeat,2021.2.3,120.10639158397129,
2,2,0,1,1,2,2,2,2,0,1,1,1,0,1,0,0,4,4,4,,,,,,,,,,,,,,,,,,,,,,,,,,,,,,,,08_AB,24,M,8,2021_Oct_30_1308,Partial repeat,2021.2.3,120.10639158397129,
2,2,0,1,1,2,3,2,2,1,0,0,1,0,1,0,0,5,5,5,0,0,0,0,,,,,,,254.85057340398453,None,0.8353469098793266,256.2160667289709,None,"[87. 93. 87. 87. 87. 93. 93. 87. 87. 87. 87. 87. 87. 93. 93. 87. 93. 93.
 87. 87. 93. 93. 87. 93. 87. 93. 93. 93. 87. 87. 93. 93. 93. 93.]",257.1319528319982,None,l,1,0.8469750082740575,257.1319528319982,None,None,None,,,,,,,08_AB,24,M,8,2021_Oct_30_1308,Partial repeat,2021.2.3,120.10639158397129,
2,2,0,1,1,2,3,2,2,1,0,0,1,0,1,0,0,5,5,5,1,0,1,0,,,,,,,,,0.8489476435617443,258.0478366900297,None,"[87. 93. 93. 93. 93. 87. 93. 93. 93. 87. 87. 93. 93. 87. 93. 87. 93. 93.
 93. 87. 93. 93. 87. 87. 93. 87. 87. 87. 93. 87. 93. 87. 93. 87.]",258.97204691656225,None,s,1,0.6069413461664226,258.97204691656225,None,None,None,,,,,,,08_AB,24,M,8,2021_Oct_30_1308,Partial repeat,2021.2.3,120.10639158397129,
2,2,0,1,1,2,3,2,2,1,0,0,1,0,1,0,0,5,5,5,,,,,,,,,,,,,,,,,,,,,,,,,,,,,,,,08_AB,24,M,8,2021_Oct_30_1308,Partial repeat,2021.2.3,120.10639158397129,
2,2,0,1,1,2,2,3,3,1,1,1,1,1,1,0,0,6,6,6,0,0,0,0,,,,,,,259.5965142913219,None,0.8286822230897156,260.64562261108404,None,"[93. 87. 87. 93. 87. 93. 93. 93. 87. 87. 87. 87. 87. 93. 93. 87. 87. 93.
 93. 87. 87. 87. 93. 93. 87. 87. 87. 93. 93. 93. 87. 87. 87. 87.]",261.55317977990035,None,l,1,0.6658243773972572,261.55317977990035,None,None,None,,,,,,,08_AB,24,M,8,2021_Oct_30_1308,Partial repeat,2021.2.3,120.10639158397129,
2,2,0,1,1,2,2,3,3,1,1,1,1,1,1,0,0,6,6,6,1,0,1,0,,,,,,,,,0.9272142046763752,262.28586460879706,None,"[93. 87. 87. 93. 93. 87. 93. 93. 93. 93. 93. 93. 93. 93. 87. 87. 93. 93.
 93. 93. 93. 93. 87. 87. 93. 87. 87. 87. 93. 93. 87. 87. 87. 87.]",263.2933519903172,None,l,1,0.7339891831770728,263.2933519903172,None,None,None,,,,,,,08_AB,24,M,8,2021_Oct_30_1308,Partial repeat,2021.2.3,120.10639158397129,
2,2,0,1,1,2,2,3,3,1,1,1,1,1,1,0,0,6,6,6,,,,,,,,,,,,,,,,,,,,,,,,,,,,,,,,08_AB,24,M,8,2021_Oct_30_1308,Partial repeat,2021.2.3,120.10639158397129,
2,2,0,1,1,3,3,2,2,0,0,1,1,1,1,0,0,7,7,7,0,0,0,0,,,,,,,264.05102073542184,None,0.7496017791166095,264.8586839321806,None,"[87. 93. 87. 87. 87. 93. 93. 93. 93. 93. 87. 87. 93. 93. 93. 93. 87. 93.
 93. 87. 93. 87. 87. 87. 87. 87. 93. 87. 87. 87. 87. 87. 93. 93.]",265.6829620217277,None,s,1,0.5680881669632072,265.6829620217277,None,None,None,,,,,,,08_AB,24,M,8,2021_Oct_30_1308,Partial repeat,2021.2.3,120.10639158397129,
2,2,0,1,1,3,3,2,2,0,0,1,1,1,1,0,0,7,7,7,1,0,1,0,,,,,,,,,0.8288379019433711,266.32408245420356,None,"[93. 87. 93. 87. 87. 87. 93. 93. 87. 93. 87. 93. 87. 87. 93. 93. 93. 93.
 93. 87. 87. 93. 93. 93. 87. 93. 93. 93. 93. 87. 87. 87. 93. 93.]",267.23165181013974,None,s,1,0.5385186865896685,267.23165181013974,None,None,None,,,,,,,08_AB,24,M,8,2021_Oct_30_1308,Partial repeat,2021.2.3,120.10639158397129,
2,2,0,1,1,3,3,2,2,0,0,1,1,1,1,0,0,7,7,7,,,,,,,,,,,,,,,,,,,,,,,,,,,,,,,,08_AB,24,M,8,2021_Oct_30_1308,Partial repeat,2021.2.3,120.10639158397129,
2,2,0,1,1,3,3,2,2,1,0,1,1,0,1,0,0,8,8,8,0,0,0,0,,,,,,,267.7978358882456,None,0.7927298244123897,268.9385233572566,None,"[93. 87. 87. 87. 93. 87. 93. 93. 93. 87. 93. 93. 93. 93. 93. 87. 93. 93.
 87. 93. 87. 87. 93. 93. 93. 93. 93. 93. 87. 93. 87. 87. 87. 93.]",269.8128003884485,None,l,1,0.8693220166242099,269.8128003884485,None,None,None,,,,,,,08_AB,24,M,8,2021_Oct_30_1308,Partial repeat,2021.2.3,120.10639158397129,
2,2,0,1,1,3,3,2,2,1,0,1,1,0,1,0,0,8,8,8,1,0,1,0,,,,,,,,,0.9458965158756651,270.74531934423067,None,"[87. 87. 87. 93. 87. 87. 93. 93. 93. 87. 93. 87. 93. 87. 93. 87. 87. 93.
 87. 93. 93. 93. 93. 93. 93. 93. 93. 93. 93. 87. 93. 93. 93. 87.]",271.7694389370781,None,s,1,0.5927253916870541,271.7694389370781,None,None,None,,,,,,,08_AB,24,M,8,2021_Oct_30_1308,Partial repeat,2021.2.3,120.10639158397129,
2,2,0,1,1,3,3,2,2,1,0,1,1,0,1,0,0,8,8,8,,,,,,,,,,,,,,,,,,,,,,,,,,,,,,,,08_AB,24,M,8,2021_Oct_30_1308,Partial repeat,2021.2.3,120.10639158397129,
2,2,0,1,1,3,3,2,2,1,1,1,1,1,1,0,0,9,9,9,0,0,0,0,,,,,,,272.38557449120344,None,0.8214409819060131,275.2081483082675,None,"[93. 93. 93. 93. 93. 93. 87. 87. 93. 87. 87. 87. 93. 87. 93. 87. 87. 93.
 87. 87. 87. 93. 87. 87. 87. 93. 93. 93. 87. 93. 87. 93. 93. 93.]",276.1073977099759,None,l,1,0.543855041473762,276.1073977099759,None,None,None,,,,,,,08_AB,24,M,8,2021_Oct_30_1308,Partial repeat,2021.2.3,120.10639158397129,
2,2,0,1,1,3,3,2,2,1,1,1,1,1,1,0,0,9,9,9,1,0,1,0,,,,,,,,,0.7663800055692584,276.7235300569655,None,"[93. 87. 93. 93. 93. 87. 87. 87. 87. 93. 87. 93. 87. 87. 87. 87. 87. 87.
 93. 87. 93. 87. 93. 93. 87. 87. 87. 93. 87. 93. 93. 93. 87. 93.]",277.56449167202754,None,l,1,0.5092022493081458,277.56449167202754,None,None,None,,,,,,,08_AB,24,M,8,2021_Oct_30_1308,Partial repeat,2021.2.3,120.10639158397129,
2,2,0,1,1,3,3,2,2,1,1,1,1,1,1,0,0,9,9,9,,,,,,,,,,,,,,,,,,,,,,,,,,,,,,,,08_AB,24,M,8,2021_Oct_30_1308,Partial repeat,2021.2.3,120.10639158397129,
2,2,0,1,1,2,2,2,2,0,0,1,1,1,1,0,0,10,10,10,0,0,0,0,,,,,,,278.1056847782229,None,0.8829780867481051,280.29547864271444,None,"[87. 93. 93. 93. 87. 87. 87. 93. 93. 93. 93. 93. 87. 93. 87. 87. 93. 87.
 87. 93. 87. 87. 93. 87. 93. 87. 87. 93. 87. 87. 93. 93. 93. 93.]",281.26133001245034,None,s,1,0.6680805981204685,281.26133001245034,None,None,None,,,,,,,08_AB,24,M,8,2021_Oct_30_1308,Partial repeat,2021.2.3,120.10639158397129,
2,2,0,1,1,2,2,2,2,0,0,1,1,1,1,0,0,10,10,10,1,0,1,0,,,,,,,,,0.877476972525387,281.9940020127988,None,"[93. 87. 93. 87. 93. 93. 87. 87. 93. 93. 93. 87. 87. 87. 87. 93. 87. 87.
 87. 87. 87. 93. 87. 87. 87. 93. 93. 93. 87. 87. 87. 93. 93. 87.]",282.9515517089867,None,s,1,0.7542220469640597,282.9515517089867,None,None,None,,,,,,,08_AB,24,M,8,2021_Oct_30_1308,Partial repeat,2021.2.3,120.10639158397129,
2,2,0,1,1,2,2,2,2,0,0,1,1,1,1,0,0,10,10,10,,,,,,,,,,,,,,,,,,,,,,,,,,,,,,,,08_AB,24,M,8,2021_Oct_30_1308,Partial repeat,2021.2.3,120.10639158397129,
2,2,0,1,1,3,2,3,3,0,1,0,1,0,1,0,0,11,11,11,0,0,0,0,,,,,,,283.7258802467959,None,0.7102486628385042,285.01644427311203,None,"[87. 87. 93. 93. 87. 87. 93. 93. 87. 87. 87. 87. 87. 87. 93. 93. 87. 87.
 93. 87. 93. 87. 93. 93. 87. 87. 87. 87. 87. 93. 93. 87. 87. 87.]",285.81577564923646,None,s,1,0.6586240346196064,285.81577564923646,None,None,None,,,,,,,08_AB,24,M,8,2021_Oct_30_1308,Partial repeat,2021.2.3,120.10639158397129,
2,2,0,1,1,3,2,3,3,0,1,0,1,0,1,0,0,11,11,11,1,0,1,0,,,,,,,,,0.865706308675567,286.531813513976,None,"[87. 93. 87. 87. 93. 87. 93. 93. 87. 87. 87. 87. 87. 87. 87. 93. 93. 93.
 87. 87. 87. 93. 87. 93. 93. 87. 93. 87. 93. 93. 93. 87. 93. 87.]",287.48101150528237,None,l,1,0.5773548679671876,287.48101150528237,None,None,None,,,,,,,08_AB,24,M,8,2021_Oct_30_1308,Partial repeat,2021.2.3,120.10639158397129,
2,2,0,1,1,3,2,3,3,0,1,0,1,0,1,0,0,11,11,11,,,,,,,,,,,,,,,,,,,,,,,,,,,,,,,,08_AB,24,M,8,2021_Oct_30_1308,Partial repeat,2021.2.3,120.10639158397129,
2,2,0,1,1,3,3,3,2,1,0,1,0,0,1,0,0,12,12,12,0,0,0,0,,,,,,,288.08050458524303,None,0.7073341584393571,289.5459075972576,None,"[93. 87. 87. 87. 93. 87. 93. 87. 87. 87. 87. 93. 93. 87. 93. 87. 87. 87.
 87. 87. 87. 87. 87. 93. 87. 87. 87. 87. 87. 93. 93. 87. 93. 93.]",290.3285788599651,None,l,1,0.4968608662757106,290.3285788599651,None,None,None,,,,,,,08_AB,24,M,8,2021_Oct_30_1308,Partial repeat,2021.2.3,120.10639158397129,
2,2,0,1,1,3,3,3,2,1,0,1,0,0,1,0,0,12,12,12,1,0,1,0,,,,,,,,,0.8646231292335079,290.894739525972,None,"[87. 93. 87. 93. 87. 87. 87. 93. 87. 93. 93. 87. 87. 87. 87. 93. 87. 93.
 93. 87. 87. 93. 87. 93. 87. 93. 93. 93. 87. 93. 87. 93. 87. 87.]",291.83562173232895,None,s,1,0.6378558997039363,291.83562173232895,None,None,None,,,,,,,08_AB,24,M,8,2021_Oct_30_1308,Partial repeat,2021.2.3,120.10639158397129,
2,2,0,1,1,3,3,3,2,1,0,1,0,0,1,0,0,12,12,12,,,,,,,,,,,,,,,,,,,,,,,,,,,,,,,,08_AB,24,M,8,2021_Oct_30_1308,Partial repeat,2021.2.3,120.10639158397129,
2,2,0,1,1,2,3,3,2,0,0,0,0,1,1,0,0,13,13,13,0,0,0,0,,,,,,,292.49337822469624,None,0.8404651743624746,294.0836924792002,None,"[87. 87. 93. 93. 93. 87. 87. 93. 87. 93. 87. 93. 93. 93. 87. 87. 93. 93.
 87. 93. 87. 93. 87. 93. 93. 87. 93. 93. 87. 93. 87. 87. 87. 93.]",295.0079023850194,None,s,1,0.6499387875119282,295.0079023850194,None,None,None,,,,,,,08_AB,24,M,8,2021_Oct_30_1308,Partial repeat,2021.2.3,120.10639158397129,
2,2,0,1,1,2,3,3,2,0,0,0,0,1,1,0,0,13,13,13,1,0,1,0,,,,,,,,,0.7672286881977296,295.715631199796,None,"[87. 87. 87. 87. 93. 87. 87. 87. 93. 87. 93. 93. 93. 87. 93. 87. 87. 87.
 87. 87. 87. 87. 93. 87. 87. 87. 87. 87. 87. 87. 93. 87. 93. 93.]",296.56491629693755,None,s,1,0.6126429939286027,296.56491629693755,None,None,None,,,,,,,08_AB,24,M,8,2021_Oct_30_1308,Partial repeat,2021.2.3,120.10639158397129,
2,2,0,1,1,2,3,3,2,0,0,0,0,1,1,0,0,13,13,13,,,,,,,,,,,,,,,,,,,,,,,,,,,,,,,,08_AB,24,M,8,2021_Oct_30_1308,Partial repeat,2021.2.3,120.10639158397129,
2,2,0,1,1,2,2,2,2,1,1,1,1,1,1,0,0,14,14,14,0,0,0,0,,,,,,,297.20602422158026,None,0.788470000234637,298.6964191676452,None,"[93. 87. 93. 87. 93. 87. 87. 87. 87. 87. 93. 93. 87. 93. 87. 87. 87. 87.
 87. 87. 93. 87. 93. 93. 87. 93. 93. 93. 93. 93. 93. 87. 87. 87.]",299.5623576432163,None,l,1,0.6233298150982591,299.5623576432163,None,None,None,,,,,,,08_AB,24,M,8,2021_Oct_30_1308,Partial repeat,2021.2.3,120.10639158397129,
2,2,0,1,1,2,2,2,2,1,1,1,1,1,1,0,0,14,14,14,1,0,1,0,,,,,,,,,0.8629709157951218,300.24509035466417,None,"[87. 93. 93. 87. 87. 87. 87. 87. 93. 87. 87. 87. 93. 93. 87. 93. 93. 87.
 87. 93. 93. 87. 87. 93. 87. 87. 93. 93. 87. 87. 93. 87. 87. 93.]",301.1859546010546,None,l,1,0.40786249999109714,301.1859546010546,None,None,None,,,,,,,08_AB,24,M,8,2021_Oct_30_1308,Partial repeat,2021.2.3,120.10639158397129,
2,2,0,1,1,2,2,2,2,1,1,1,1,1,1,0,0,14,14,14,,,,,,,,,,,,,,,,,,,,,,,,,,,,,,,,08_AB,24,M,8,2021_Oct_30_1308,Partial repeat,2021.2.3,120.10639158397129,
2,2,0,1,1,3,2,3,2,1,1,0,0,1,1,0,0,15,15,15,0,0,0,0,,,,,,,301.6022957967907,None,0.717533307777368,302.79291389543323,None,"[87. 87. 93. 87. 93. 93. 87. 93. 93. 87. 93. 87. 93. 87. 93. 87. 93. 87.
 93. 87. 87. 93. 93. 93. 93. 87. 93. 87. 87. 87. 93. 93. 87. 93.]",303.5922176901813,None,l,1,0.46447135053495003,303.5922176901813,None,None,None,,,,,,,08_AB,24,M,8,2021_Oct_30_1308,Partial repeat,2021.2.3,120.10639158397129,
2,2,0,1,1,3,2,3,2,1,1,0,0,1,1,0,0,15,15,15,1,0,1,0,,,,,,,,,0.886214473857919,304.1167814714727,None,"[93. 93. 87. 93. 87. 87. 93. 87. 87. 87. 93. 87. 87. 93. 87. 87. 93. 87.
 87. 93. 93. 87. 93. 87. 93. 93. 93. 87. 93. 87. 93. 93. 93. 93.]",305.08261007053807,None,l,1,0.4780763454573389,305.08261007053807,None,None,None,,,,,,,08_AB,24,M,8,2021_Oct_30_1308,Partial repeat,2021.2.3,120.10639158397129,
2,2,0,1,1,3,2,3,2,1,1,0,0,1,1,0,0,15,15,15,,,,,,,,,,,,,,,,,,,,,,,,,,,,,,,,08_AB,24,M,8,2021_Oct_30_1308,Partial repeat,2021.2.3,120.10639158397129,
2,2,0,1,1,2,2,3,2,0,0,1,0,1,1,0,0,16,16,16,0,0,0,0,,,,,,,305.5821950670388,None,0.7184169106848368,306.33987984782743,None,"[93. 93. 87. 93. 87. 87. 93. 93. 87. 93. 93. 87. 87. 93. 87. 93. 93. 93.
 93. 93. 87. 93. 87. 93. 93. 93. 87. 93. 93. 87. 93. 87. 93. 93.]",307.1391826804347,None,s,1,0.6615399633765264,307.1391826804347,None,None,None,,,,,,,08_AB,24,M,8,2021_Oct_30_1308,Partial repeat,2021.2.3,120.10639158397129,
2,2,0,1,1,2,2,3,2,0,0,1,0,1,1,0,0,16,16,16,1,0,1,0,,,,,,,,,0.7296057643460587,307.8635770607616,None,"[93. 87. 87. 93. 93. 87. 87. 93. 93. 93. 93. 93. 93. 87. 87. 87. 93. 87.
 93. 93. 87. 93. 93. 93. 93. 87. 87. 93. 93. 93. 93. 93. 93. 87.]",308.6712283911138,None,s,1,0.9055321944097159,308.6712283911138,None,None,None,,,,,,,08_AB,24,M,8,2021_Oct_30_1308,Partial repeat,2021.2.3,120.10639158397129,
2,2,0,1,1,2,2,3,2,0,0,1,0,1,1,0,0,16,16,16,,,,,,,,,,,,,,,,,,,,,,,,,,,,,,,,08_AB,24,M,8,2021_Oct_30_1308,Partial repeat,2021.2.3,120.10639158397129,
2,2,0,1,1,2,3,2,2,0,0,0,1,1,1,0,0,17,17,17,0,0,0,0,,,,,,,309.59546202974525,None,0.9322828719605433,310.55294918676645,None,"[93. 87. 87. 87. 93. 93. 87. 93. 93. 87. 93. 87. 87. 93. 93. 87. 87. 93.
 87. 93. 93. 87. 93. 93. 87. 87. 93. 93. 87. 87. 93. 93. 87. 87.]",311.56040513834614,None,s,1,1.1204029820746655,311.56040513834614,None,None,None,,,,,,,08_AB,24,M,8,2021_Oct_30_1308,Partial repeat,2021.2.3,120.10639158397129,
2,2,0,1,1,2,3,2,2,0,0,0,1,1,1,0,0,17,17,17,1,0,1,0,,,,,,,,,0.7201843644658295,312.7510652504807,None,"[93. 93. 93. 87. 93. 87. 93. 93. 93. 87. 87. 87. 93. 93. 93. 93. 93. 93.
 93. 93. 87. 93. 87. 93. 93. 93. 93. 87. 87. 93. 93. 93. 93. 87.]",313.5503895709044,None,s,1,0.5535229552888268,313.5503895709044,None,None,None,,,,,,,08_AB,24,M,8,2021_Oct_30_1308,Partial repeat,2021.2.3,120.10639158397129,
2,2,0,1,1,2,3,2,2,0,0,0,1,1,1,0,0,17,17,17,,,,,,,,,,,,,,,,,,,,,,,,,,,,,,,,08_AB,24,M,8,2021_Oct_30_1308,Partial repeat,2021.2.3,120.10639158397129,
2,2,0,1,1,2,3,3,2,1,1,0,0,1,1,0,0,18,18,18,0,0,0,0,,,,,,,314.1248971310879,None,0.9132263177375017,315.4321058765654,None,"[93. 87. 93. 93. 87. 87. 87. 93. 87. 87. 87. 87. 87. 87. 93. 93. 87. 87.
 87. 87. 93. 87. 93. 87. 87. 87. 93. 87. 93. 93. 93. 87. 93. 93.]",316.42291967469373,None,l,1,0.6409594459628352,316.42291967469373,None,None,None,,,,,,,08_AB,24,M,8,2021_Oct_30_1308,Partial repeat,2021.2.3,120.10639158397129,
2,2,0,1,1,2,3,3,2,1,1,0,0,1,1,0,0,18,18,18,1,0,1,0,,,,,,,,,0.9272952085286115,317.130662921586,None,"[87. 93. 93. 87. 87. 87. 93. 87. 93. 87. 93. 87. 93. 93. 93. 93. 87. 87.
 93. 87. 87. 87. 93. 87. 87. 87. 93. 93. 93. 87. 93. 87. 93. 93.]",318.1380980267768,None,l,1,0.4777982866980892,318.1380980267768,None,None,None,,,,,,,08_AB,24,M,8,2021_Oct_30_1308,Partial repeat,2021.2.3,120.10639158397129,
2,2,0,1,1,2,3,3,2,1,1,0,0,1,1,0,0,18,18,18,,,,,,,,,,,,,,,,,,,,,,,,,,,,,,,,08_AB,24,M,8,2021_Oct_30_1308,Partial repeat,2021.2.3,120.10639158397129,
2,2,0,1,1,3,2,2,3,1,1,0,0,1,1,0,0,19,19,19,0,0,0,0,,,,,,,318.63770386966735,None,0.9812769457786319,319.30378416482654,None,"[93. 87. 87. 87. 87. 87. 87. 87. 87. 87. 93. 87. 93. 87. 93. 87. 93. 87.
 93. 87. 87. 87. 93. 87. 87. 93. 93. 87. 87. 93. 87. 87. 87. 87.]",320.36954554230397,None,l,1,0.6463833556808822,320.36954554230397,None,None,None,,,,,,,08_AB,24,M,8,2021_Oct_30_1308,Partial repeat,2021.2.3,120.10639158397129,
2,2,0,1,1,3,2,2,3,1,1,0,0,1,1,0,0,19,19,19,1,0,1,0,,,,,,,,,0.9153622993182465,321.0856254205355,None,"[87. 87. 87. 87. 87. 87. 87. 93. 93. 93. 93. 87. 87. 93. 87. 93. 93. 93.
 87. 87. 87. 93. 93. 87. 93. 93. 93. 93. 87. 87. 93. 93. 87. 87.]",322.08476270074243,None,l,1,0.9152199924719753,322.08476270074243,None,None,None,,,,,,,08_AB,24,M,8,2021_Oct_30_1308,Partial repeat,2021.2.3,120.10639158397129,
2,2,0,1,1,3,2,2,3,1,1,0,0,1,1,0,0,19,19,19,,,,,,,,,,,,,,,,,,,,,,,,,,,,,,,,08_AB,24,M,8,2021_Oct_30_1308,Partial repeat,2021.2.3,120.10639158397129,
2,2,0,1,1,2,2,3,3,0,1,1,1,0,1,0,0,20,20,20,0,0,0,0,,,,,,,323.0172880707978,None,0.9309804726297066,323.8332789189126,None,"[87. 87. 87. 93. 87. 93. 93. 93. 87. 93. 87. 87. 87. 87. 93. 87. 87. 87.
 87. 87. 93. 93. 93. 93. 93. 93. 93. 93. 87. 93. 87. 93. 87. 87.]",324.8407374362023,None,s,1,1.0232665062185333,324.8407374362023,None,None,None,,,,,,,08_AB,24,M,8,2021_Oct_30_1308,Partial repeat,2021.2.3,120.10639158397129,
2,2,0,1,1,2,2,3,3,0,1,1,1,0,1,0,0,20,20,20,1,0,1,0,,,,,,,,,0.9220903125998581,325.9231451364094,None,"[87. 93. 87. 87. 93. 87. 93. 93. 87. 87. 87. 87. 93. 93. 93. 93. 93. 93.
 93. 93. 87. 93. 93. 87. 87. 93. 87. 93. 87. 93. 93. 87. 93. 87.]",326.92227022949646,None,l,1,0.6529438746729284,326.92227022949646,None,None,None,,,,,,,08_AB,24,M,8,2021_Oct_30_1308,Partial repeat,2021.2.3,120.10639158397129,
2,2,0,1,1,2,2,3,3,0,1,1,1,0,1,0,0,20,20,20,,,,,,,,,,,,,,,,,,,,,,,,,,,,,,,,08_AB,24,M,8,2021_Oct_30_1308,Partial repeat,2021.2.3,120.10639158397129,
2,2,0,1,1,3,3,3,3,1,0,1,1,0,1,0,0,21,21,21,0,0,0,0,,,,,,,327.5967233966403,None,0.9325730982276447,328.35439246245915,None,"[93. 93. 93. 93. 93. 93. 87. 93. 87. 93. 87. 87. 87. 93. 93. 87. 87. 87.
 87. 93. 93. 93. 87. 87. 93. 93. 87. 93. 93. 93. 93. 87. 93. 87.]",329.3618583561629,None,l,1,0.8212954640976022,329.3618583561629,None,None,None,,,,,,,08_AB,24,M,8,2021_Oct_30_1308,Partial repeat,2021.2.3,120.10639158397129,
2,2,0,1,1,3,3,3,3,1,0,1,1,0,1,0,0,21,21,21,1,0,1,0,,,,,,,,,0.8063130348381005,330.25279710434006,None,"[93. 87. 93. 87. 93. 93. 93. 87. 87. 93. 93. 87. 93. 93. 87. 87. 93. 93.
 87. 93. 87. 87. 87. 93. 87. 93. 93. 93. 93. 93. 87. 93. 93. 93.]",331.1436733133505,None,s,1,1.0234521994379975,331.1436733133505,None,None,None,,,,,,,08_AB,24,M,8,2021_Oct_30_1308,Partial repeat,2021.2.3,120.10639158397129,
2,2,0,1,1,3,3,3,3,1,0,1,1,0,1,0,0,21,21,21,,,,,,,,,,,,,,,,,,,,,,,,,,,,,,,,08_AB,24,M,8,2021_Oct_30_1308,Partial repeat,2021.2.3,120.10639158397129,
2,2,0,1,1,3,2,2,2,1,1,0,1,1,1,0,0,22,22,22,0,0,0,0,,,,,,,332.18443987035516,None,0.800003374594407,333.52496852195236,None,"[87. 93. 93. 87. 87. 87. 87. 87. 87. 93. 87. 93. 93. 93. 93. 93. 87. 87.
 87. 93. 87. 93. 93. 87. 93. 93. 93. 87. 87. 87. 93. 93. 87. 87.]",334.3992275931787,None,l,1,0.6003766578960494,334.3992275931787,None,None,None,,,,,,,08_AB,24,M,8,2021_Oct_30_1308,Partial repeat,2021.2.3,120.10639158397129,
2,2,0,1,1,3,2,2,2,1,1,0,1,1,1,0,0,22,22,22,1,0,1,0,,,,,,,,,0.7811893670916826,335.05701262906314,None,"[87. 93. 87. 87. 87. 87. 87. 87. 93. 87. 93. 87. 93. 87. 87. 93. 93. 87.
 93. 93. 87. 93. 93. 93. 87. 87. 87. 93. 87. 93. 93. 87. 87. 87.]",335.92294597321506,None,l,1,0.5967997382495014,335.92294597321506,None,None,None,,,,,,,08_AB,24,M,8,2021_Oct_30_1308,Partial repeat,2021.2.3,120.10639158397129,
2,2,0,1,1,3,2,2,2,1,1,0,1,1,1,0,0,22,22,22,,,,,,,,,,,,,,,,,,,,,,,,,,,,,,,,08_AB,24,M,8,2021_Oct_30_1308,Partial repeat,2021.2.3,120.10639158397129,
2,2,0,1,1,3,2,3,2,0,0,0,0,1,1,0,0,23,23,23,0,0,0,0,,,,,,,336.53905394596495,None,0.8257171477077724,337.15518693438116,None,"[93. 87. 93. 93. 87. 87. 87. 93. 87. 93. 93. 93. 87. 93. 93. 93. 87. 93.
 87. 87. 87. 87. 87. 93. 93. 93. 87. 93. 87. 93. 93. 87. 93. 87.]",338.0627665531556,None,s,1,0.6964595893223304,338.0627665531556,None,None,None,,,,,,,08_AB,24,M,8,2021_Oct_30_1308,Partial repeat,2021.2.3,120.10639158397129,
2,2,0,1,1,3,2,3,2,0,0,0,0,1,1,0,0,23,23,23,1,0,1,0,,,,,,,,,0.9459456951504868,338.828747876074,None,"[93. 87. 87. 93. 87. 93. 93. 93. 93. 87. 93. 87. 87. 93. 87. 93. 87. 87.
 93. 87. 93. 93. 87. 87. 87. 93. 93. 87. 87. 87. 87. 93. 93. 93.]",339.8529062752759,None,s,1,0.7303484415069761,339.8529062752759,None,None,None,,,,,,,08_AB,24,M,8,2021_Oct_30_1308,Partial repeat,2021.2.3,120.10639158397129,
2,2,0,1,1,3,2,3,2,0,0,0,0,1,1,0,0,23,23,23,,,,,,,,,,,,,,,,,,,,,,,,,,,,,,,,08_AB,24,M,8,2021_Oct_30_1308,Partial repeat,2021.2.3,120.10639158397129,
2,2,0,1,1,3,2,3,3,0,0,0,1,1,1,0,0,24,24,24,0,0,0,0,,,,,,,340.60224352046134,None,0.7493315089897126,341.42654373925234,None,"[93. 93. 93. 87. 87. 87. 93. 93. 93. 87. 87. 93. 87. 93. 87. 93. 93. 93.
 87. 87. 93. 87. 93. 87. 93. 93. 87. 93. 93. 93. 87. 93. 93. 87.]",342.2508526173124,None,s,1,0.6364232717050982,342.2508526173124,None,None,None,,,,,,,08_AB,24,M,8,2021_Oct_30_1308,Partial repeat,2021.2.3,120.10639158397129,
2,2,0,1,1,3,2,3,3,0,0,0,1,1,1,0,0,24,24,24,1,0,1,0,,,,,,,,,0.7099635344021328,342.9502399900448,None,"[87. 93. 87. 87. 93. 93. 87. 87. 93. 93. 87. 87. 87. 87. 93. 93. 87. 87.
 87. 87. 87. 87. 93. 87. 87. 87. 87. 87. 93. 93. 87. 87. 87. 93.]",343.7412456390957,None,s,1,0.6491440590189086,343.7412456390957,None,None,None,,,,,,,08_AB,24,M,8,2021_Oct_30_1308,Partial repeat,2021.2.3,120.10639158397129,
2,2,0,1,1,3,2,3,3,0,0,0,1,1,1,0,0,24,24,24,,,,,,,,,,,,,,,,,,,,,,,,,,,,,,,,08_AB,24,M,8,2021_Oct_30_1308,Partial repeat,2021.2.3,120.10639158397129,
2,2,0,1,1,2,3,3,3,0,0,0,1,1,1,0,0,25,25,25,0,0,0,0,,,,,,,344.3990165635787,None,0.8922471743648132,345.090073719246,None,"[87. 93. 87. 87. 87. 93. 93. 87. 93. 93. 87. 87. 93. 93. 87. 87. 93. 87.
 93. 87. 93. 93. 93. 87. 87. 93. 87. 87. 87. 93. 93. 87. 93. 87.]",346.06424151535975,None,s,1,0.5500932432187255,346.06424151535975,None,None,None,,,,,,,08_AB,24,M,8,2021_Oct_30_1308,Partial repeat,2021.2.3,120.10639158397129,
2,2,0,1,1,2,3,3,3,0,0,0,1,1,1,0,0,25,25,25,1,0,1,0,,,,,,,,,0.7009933356747378,346.68039086017325,None,"[87. 93. 87. 93. 93. 93. 87. 93. 93. 87. 93. 87. 93. 87. 93. 93. 93. 93.
 87. 93. 87. 87. 93. 87. 87. 87. 93. 87. 93. 87. 93. 93. 93. 93.]",347.4630791207055,None,s,1,0.5272969150064455,347.4630791207055,None,None,None,,,,,,,08_AB,24,M,8,2021_Oct_30_1308,Partial repeat,2021.2.3,120.10639158397129,
2,2,0,1,1,2,3,3,3,0,0,0,1,1,1,0,0,25,25,25,,,,,,,,,,,,,,,,,,,,,,,,,,,,,,,,08_AB,24,M,8,2021_Oct_30_1308,Partial repeat,2021.2.3,120.10639158397129,
2,2,0,1,1,2,2,3,3,0,0,1,1,1,1,0,0,26,26,26,0,0,0,0,,,,,,,348.0209102110748,None,0.8589419270337992,348.72864383655633,None,"[93. 93. 87. 87. 93. 87. 93. 87. 87. 93. 93. 87. 93. 93. 93. 93. 93. 93.
 87. 87. 93. 87. 87. 93. 87. 87. 93. 93. 93. 87. 87. 87. 93. 87.]",349.6695183457841,None,s,1,0.7858431327331346,349.6695183457841,None,None,None,,,,,,,08_AB,24,M,8,2021_Oct_30_1308,Partial repeat,2021.2.3,120.10639158397129,
2,2,0,1,1,2,2,3,3,0,0,1,1,1,1,0,0,26,26,26,1,0,1,0,,,,,,,,,0.9449468216086441,350.518772975126,None,"[87. 93. 87. 93. 87. 87. 87. 87. 93. 93. 87. 93. 93. 93. 93. 93. 93. 93.
 93. 87. 93. 87. 87. 87. 87. 87. 87. 87. 87. 93. 93. 87. 87. 87.]",351.5429034722383,None,s,1,0.703513686664337,351.5429034722383,None,None,None,,,,,,,08_AB,24,M,8,2021_Oct_30_1308,Partial repeat,2021.2.3,120.10639158397129,
2,2,0,1,1,2,2,3,3,0,0,1,1,1,1,0,0,26,26,26,,,,,,,,,,,,,,,,,,,,,,,,,,,,,,,,08_AB,24,M,8,2021_Oct_30_1308,Partial repeat,2021.2.3,120.10639158397129,
2,2,0,1,1,3,3,3,2,0,0,1,0,1,1,0,0,27,27,27,0,0,0,0,,,,,,,352.267274119753,None,0.7238938940741343,353.1581785515673,None,"[87. 87. 87. 93. 87. 87. 87. 87. 93. 87. 93. 87. 93. 87. 93. 93. 87. 93.
 87. 87. 93. 87. 87. 93. 93. 87. 93. 93. 87. 87. 93. 87. 87. 87.]",353.96583918261604,None,s,1,0.6166676298698803,353.96583918261604,None,None,None,,,,,,,08_AB,24,M,8,2021_Oct_30_1308,Partial repeat,2021.2.3,120.10639158397129,
2,2,0,1,1,3,3,3,2,0,0,1,0,1,1,0,0,27,27,27,1,0,1,0,,,,,,,,,0.9484888597760284,354.6402625233877,None,"[87. 87. 93. 93. 87. 87. 93. 87. 87. 93. 93. 93. 93. 93. 93. 87. 87. 87.
 87. 87. 93. 93. 87. 87. 93. 93. 87. 87. 87. 87. 87. 87. 93. 87.]",355.66437409839364,None,s,1,0.8381255557642362,355.66437409839364,None,None,None,,,,,,,08_AB,24,M,8,2021_Oct_30_1308,Partial repeat,2021.2.3,120.10639158397129,
2,2,0,1,1,3,3,3,2,0,0,1,0,1,1,0,0,27,27,27,,,,,,,,,,,,,,,,,,,,,,,,,,,,,,,,08_AB,24,M,8,2021_Oct_30_1308,Partial repeat,2021.2.3,120.10639158397129,
2,2,0,1,1,2,2,3,3,1,0,1,1,0,1,0,0,28,28,28,0,0,0,0,,,,,,,356.52197498048463,None,0.7728803181271141,357.41288101586724,None,"[87. 87. 93. 87. 87. 93. 87. 93. 93. 87. 93. 87. 87. 87. 87. 93. 87. 87.
 87. 87. 87. 87. 87. 93. 93. 87. 93. 93. 87. 87. 93. 87. 87. 87.]",358.26215809516634,None,l,1,0.5763657869856615,358.26215809516634,None,None,None,,,,,,,08_AB,24,M,8,2021_Oct_30_1308,Partial repeat,2021.2.3,120.10639158397129,
2,2,0,1,1,2,2,3,3,1,0,1,1,0,1,0,0,28,28,28,1,0,1,0,,,,,,,,,0.9810016771123036,358.90328718691126,None,"[93. 93. 87. 87. 87. 93. 87. 87. 87. 87. 93. 87. 87. 93. 87. 87. 87. 87.
 87. 93. 93. 93. 93. 87. 93. 93. 93. 87. 87. 87. 87. 87. 87. 93.]",359.96071385733285,None,s,1,0.6850126767358233,359.96071385733285,None,None,None,,,,,,,08_AB,24,M,8,2021_Oct_30_1308,Partial repeat,2021.2.3,120.10639158397129,
2,2,0,1,1,2,2,3,3,1,0,1,1,0,1,0,0,28,28,28,,,,,,,,,,,,,,,,,,,,,,,,,,,,,,,,08_AB,24,M,8,2021_Oct_30_1308,Partial repeat,2021.2.3,120.10639158397129,
2,2,0,1,1,3,2,3,3,1,1,0,1,1,1,0,0,29,29,29,0,0,0,0,,,,,,,360.6684311264171,None,0.9959918815572755,361.4760811739143,None,"[87. 87. 93. 93. 87. 93. 93. 87. 87. 93. 93. 93. 93. 93. 93. 93. 93. 93.
 87. 93. 93. 93. 93. 87. 93. 93. 93. 87. 87. 93. 93. 93. 93. 87.]",362.5501666748987,None,l,1,0.4954247104269598,362.5501666748987,None,None,None,,,,,,,08_AB,24,M,8,2021_Oct_30_1308,Partial repeat,2021.2.3,120.10639158397129,
2,2,0,1,1,3,2,3,3,1,1,0,1,1,1,0,0,29,29,29,1,0,1,0,,,,,,,,,0.881172293714951,363.1080214980793,None,"[93. 87. 93. 87. 87. 87. 87. 93. 93. 93. 87. 87. 93. 93. 87. 87. 87. 93.
 87. 93. 93. 93. 93. 87. 87. 93. 87. 87. 87. 93. 93. 87. 93. 93.]",364.0655182765104,None,l,1,0.8041363201982676,364.0655182765104,None,None,None,,,,,,,08_AB,24,M,8,2021_Oct_30_1308,Partial repeat,2021.2.3,120.10639158397129,
2,2,0,1,1,3,2,3,3,1,1,0,1,1,1,0,0,29,29,29,,,,,,,,,,,,,,,,,,,,,,,,,,,,,,,,08_AB,24,M,8,2021_Oct_30_1308,Partial repeat,2021.2.3,120.10639158397129,
2,2,0,1,1,3,3,2,3,1,0,1,0,0,1,0,0,30,30,30,0,0,0,0,,,,,,,364.88981464673725,None,0.7541783253700342,365.5392742762615,None,"[93. 87. 93. 93. 87. 87. 87. 87. 87. 87. 93. 93. 93. 87. 93. 93. 93. 87.
 87. 93. 87. 93. 87. 87. 87. 87. 93. 87. 87. 87. 93. 93. 93. 87.]",366.3718982978444,None,l,1,0.593761296865523,366.3718982978444,None,None,None,,,,,,,08_AB,24,M,8,2021_Oct_30_1308,Partial repeat,2021.2.3,120.10639158397129,
2,2,0,1,1,3,3,2,3,1,0,1,0,0,1,0,0,30,30,30,1,0,1,0,,,,,,,,,0.7624945401513018,367.0379878937001,None,"[87. 93. 93. 93. 93. 93. 93. 93. 93. 93. 87. 87. 93. 87. 93. 87. 93. 93.
 93. 87. 87. 93. 87. 87. 87. 93. 87. 87. 93. 87. 93. 87. 93. 87.]",367.8789357180749,None,s,1,0.48031139907743636,367.8789357180749,None,None,None,,,,,,,08_AB,24,M,8,2021_Oct_30_1308,Partial repeat,2021.2.3,120.10639158397129,
2,2,0,1,1,3,3,2,3,1,0,1,0,0,1,0,0,30,30,30,,,,,,,,,,,,,,,,,,,,,,,,,,,,,,,,08_AB,24,M,8,2021_Oct_30_1308,Partial repeat,2021.2.3,120.10639158397129,
2,2,0,1,1,2,2,2,3,0,0,1,0,1,1,0,0,31,31,31,0,0,0,0,,,,,,,368.37017895181816,None,0.9442663520923552,369.0945605035977,None,"[93. 93. 93. 93. 87. 93. 93. 87. 93. 87. 87. 87. 93. 87. 87. 87. 93. 87.
 87. 93. 87. 87. 87. 93. 93. 93. 87. 93. 93. 93. 93. 93. 87. 87.]",370.1186752857402,None,s,1,0.7990607055344299,370.1186752857402,None,None,None,,,,,,,08_AB,24,M,8,2021_Oct_30_1308,Partial repeat,2021.2.3,120.10639158397129,
2,2,0,1,1,2,2,2,3,0,0,1,0,1,1,0,0,31,31,31,1,0,1,0,,,,,,,,,0.989886078381448,370.97628482710024,None,"[87. 87. 93. 93. 87. 93. 87. 93. 93. 93. 93. 93. 93. 87. 93. 87. 87. 87.
 87. 93. 87. 93. 87. 93. 93. 87. 93. 87. 93. 93. 93. 87. 93. 87.]",372.0420317724629,None,s,1,0.7957284904223343,372.0420317724629,None,None,None,,,,,,,08_AB,24,M,8,2021_Oct_30_1308,Partial repeat,2021.2.3,120.10639158397129,
2,2,0,1,1,2,2,2,3,0,0,1,0,1,1,0,0,31,31,31,,,,,,,,,,,,,,,,,,,,,,,,,,,,,,,,08_AB,24,M,8,2021_Oct_30_1308,Partial repeat,2021.2.3,120.10639158397129,
2,2,0,1,1,2,2,2,3,1,1,1,0,1,1,0,0,32,32,32,0,0,0,0,,,,,,,372.84967123640854,None,0.7792300215347445,373.47415015686147,None,"[87. 93. 87. 87. 87. 93. 93. 87. 87. 87. 93. 87. 87. 93. 87. 93. 93. 93.
 87. 93. 93. 87. 87. 93. 87. 87. 93. 93. 93. 93. 87. 93. 87. 87.]",374.33174622824663,None,l,1,0.8100650332444275,374.33174622824663,None,None,None,,,,,,,08_AB,24,M,8,2021_Oct_30_1308,Partial repeat,2021.2.3,120.10639158397129,
2,2,0,1,1,2,2,2,3,1,1,1,0,1,1,0,0,32,32,32,1,0,1,0,,,,,,,,,0.837349081373321,375.21432910226486,None,"[93. 93. 93. 93. 93. 87. 87. 93. 87. 87. 93. 93. 93. 87. 93. 87. 87. 93.
 93. 93. 87. 93. 87. 87. 93. 93. 93. 87. 93. 93. 87. 87. 93. 93.]",376.1302200159971,None,l,1,0.4026784841043991,376.1302200159971,None,None,None,,,,,,,08_AB,24,M,8,2021_Oct_30_1308,Partial repeat,2021.2.3,120.10639158397129,
2,2,0,1,1,2,2,2,3,1,1,1,0,1,1,0,0,32,32,32,,,,,,,,,,,,,,,,,,,,,,,,,,,,,,,,08_AB,24,M,8,2021_Oct_30_1308,Partial repeat,2021.2.3,120.10639158397129,
2,2,0,1,1,2,2,3,2,1,0,1,0,0,1,0,0,33,33,33,0,0,0,0,,,,,,,376.5465349132119,None,0.7697928066613154,377.2875695227076,None,"[87. 93. 93. 87. 93. 93. 87. 87. 93. 93. 87. 93. 87. 87. 93. 93. 87. 87.
 87. 87. 93. 87. 93. 93. 93. 87. 87. 87. 93. 93. 93. 93. 87. 87.]",378.14516527337946,None,l,1,0.37167156502709986,378.14516527337946,None,None,None,,,,,,,08_AB,24,M,8,2021_Oct_30_1308,Partial repeat,2021.2.3,120.10639158397129,
2,2,0,1,1,2,2,3,2,1,0,1,0,0,1,0,0,33,33,33,1,0,1,0,,,,,,,,,0.7206905306764524,378.58644548540997,None,"[93. 87. 93. 93. 87. 93. 87. 87. 93. 87. 87. 93. 93. 87. 93. 93. 87. 93.
 93. 87. 93. 87. 93. 87. 93. 93. 87. 93. 87. 93. 87. 93. 87. 93.]",379.38575184586716,None,s,1,0.6518367710568782,379.38575184586716,None,None,None,,,,,,,08_AB,24,M,8,2021_Oct_30_1308,Partial repeat,2021.2.3,120.10639158397129,
2,2,0,1,1,2,2,3,2,1,0,1,0,0,1,0,0,33,33,33,,,,,,,,,,,,,,,,,,,,,,,,,,,,,,,,08_AB,24,M,8,2021_Oct_30_1308,Partial repeat,2021.2.3,120.10639158397129,
2,2,0,1,1,3,3,2,2,0,1,1,1,0,1,0,0,34,34,34,0,0,0,0,,,,,,,380.0601870530454,None,0.9698441890624061,380.7429409315964,None,"[87. 93. 87. 93. 87. 93. 93. 87. 87. 87. 87. 93. 87. 93. 93. 87. 87. 87.
 87. 87. 93. 87. 87. 93. 93. 93. 87. 87. 93. 93. 87. 87. 93. 87.]",381.79203032925125,None,s,1,0.6608475425473443,381.79203032925125,None,None,None,,,,,,,08_AB,24,M,8,2021_Oct_30_1308,Partial repeat,2021.2.3,120.10639158397129,
2,2,0,1,1,3,3,2,2,0,1,1,1,0,1,0,0,34,34,34,1,0,1,0,,,,,,,,,0.9067037853341826,382.52475492664325,None,"[93. 93. 87. 87. 93. 93. 93. 87. 87. 87. 93. 87. 87. 87. 93. 87. 87. 93.
 93. 87. 87. 93. 93. 93. 93. 93. 87. 87. 93. 93. 93. 93. 93. 93.]",383.5155950232938,None,l,1,0.5053398944874061,383.5155950232938,None,None,None,,,,,,,08_AB,24,M,8,2021_Oct_30_1308,Partial repeat,2021.2.3,120.10639158397129,
2,2,0,1,1,3,3,2,2,0,1,1,1,0,1,0,0,34,34,34,,,,,,,,,,,,,,,,,,,,,,,,,,,,,,,,08_AB,24,M,8,2021_Oct_30_1308,Partial repeat,2021.2.3,120.10639158397129,
2,2,0,1,1,3,3,3,3,0,1,1,1,0,1,0,0,35,35,35,0,0,0,0,,,,,,,384.04011518752486,None,0.8368605452450861,384.9476787706144,None,"[93. 93. 87. 87. 93. 87. 93. 87. 93. 87. 87. 87. 87. 87. 93. 87. 87. 93.
 93. 87. 87. 93. 93. 87. 93. 87. 93. 93. 87. 87. 87. 87. 87. 93.]",385.87187584788717,None,s,1,0.5646116306970725,385.87187584788717,None,None,None,,,,,,,08_AB,24,M,8,2021_Oct_30_1308,Partial repeat,2021.2.3,120.10639158397129,
2,2,0,1,1,3,3,3,3,0,1,1,1,0,1,0,0,35,35,35,1,0,1,0,,,,,,,,,0.949876620726964,386.49634963692006,None,"[93. 87. 93. 87. 87. 87. 87. 87. 93. 87. 93. 87. 93. 87. 87. 93. 93. 93.
 93. 87. 87. 93. 93. 93. 93. 87. 87. 93. 87. 93. 93. 87. 93. 93.]",387.52047660618246,None,l,1,0.5002748633751253,387.52047660618246,None,None,None,,,,,,,08_AB,24,M,8,2021_Oct_30_1308,Partial repeat,2021.2.3,120.10639158397129,
2,2,0,1,1,3,3,3,3,0,1,1,1,0,1,0,0,35,35,35,,,,,,,,,,,,,,,,,,,,,,,,,,,,,,,,08_AB,24,M,8,2021_Oct_30_1308,Partial repeat,2021.2.3,120.10639158397129,
2,2,0,1,1,3,2,2,2,0,1,0,1,0,1,0,0,36,36,36,0,0,0,0,,,,,,,388.0367274889468,None,0.731097655848099,388.76940558285514,None,"[93. 87. 87. 87. 93. 87. 87. 93. 87. 87. 93. 93. 87. 93. 87. 93. 87. 93.
 93. 93. 87. 87. 87. 93. 87. 93. 93. 87. 93. 87. 93. 93. 87. 87.]",389.5770456882292,None,s,1,0.667291963187381,389.5770456882292,None,None,None,,,,,,,08_AB,24,M,8,2021_Oct_30_1308,Partial repeat,2021.2.3,120.10639158397129,
2,2,0,1,1,3,2,2,2,0,1,0,1,0,1,0,0,36,36,36,1,0,1,0,,,,,,,,,0.7043726849284705,390.32641243907256,None,"[87. 93. 93. 93. 87. 87. 87. 87. 87. 93. 93. 87. 93. 87. 93. 87. 93. 93.
 93. 87. 93. 87. 93. 87. 87. 87. 87. 87. 93. 93. 93. 87. 87. 87.]",391.1090615725361,None,l,1,0.47907793427293655,391.1090615725361,None,None,None,,,,,,,08_AB,24,M,8,2021_Oct_30_1308,Partial repeat,2021.2.3,120.10639158397129,
2,2,0,1,1,3,2,2,2,0,1,0,1,0,1,0,0,36,36,36,,,,,,,,,,,,,,,,,,,,,,,,,,,,,,,,08_AB,24,M,8,2021_Oct_30_1308,Partial repeat,2021.2.3,120.10639158397129,
2,2,0,1,1,3,3,3,3,0,0,1,1,1,1,0,0,37,37,37,0,0,0,0,,,,,,,391.6086520211693,None,0.7607697962197931,392.3080333003427,None,"[87. 93. 87. 93. 87. 87. 93. 87. 93. 87. 87. 87. 87. 87. 87. 87. 93. 93.
 87. 93. 87. 87. 93. 87. 87. 93. 87. 87. 87. 87. 87. 93. 93. 87.]",393.1489833697133,None,s,1,0.6631104982561737,393.1489833697133,None,None,None,,,,,,,08_AB,24,M,8,2021_Oct_30_1308,Partial repeat,2021.2.3,120.10639158397129,
2,2,0,1,1,3,3,3,3,0,0,1,1,1,1,0,0,37,37,37,1,0,1,0,,,,,,,,,0.7013632874706596,393.873371335766,None,"[87. 87. 87. 87. 87. 93. 93. 93. 87. 93. 87. 93. 93. 87. 87. 87. 93. 93.
 87. 93. 87. 93. 93. 87. 93. 93. 93. 93. 93. 87. 93. 87. 93. 93.]",394.65603361849026,None,s,1,0.612342805926346,394.65603361849026,None,None,None,,,,,,,08_AB,24,M,8,2021_Oct_30_1308,Partial repeat,2021.2.3,120.10639158397129,
2,2,0,1,1,3,3,3,3,0,0,1,1,1,1,0,0,37,37,37,,,,,,,,,,,,,,,,,,,,,,,,,,,,,,,,08_AB,24,M,8,2021_Oct_30_1308,Partial repeat,2021.2.3,120.10639158397129,
2,2,0,1,1,2,3,3,3,0,1,0,1,0,1,0,0,38,38,38,0,0,0,0,,,,,,,395.2888446802899,None,0.8649469520423844,395.8550168919892,None,"[93. 87. 87. 87. 87. 87. 87. 87. 93. 93. 87. 93. 93. 93. 93. 87. 87. 93.
 93. 87. 87. 93. 87. 87. 93. 93. 93. 87. 87. 87. 87. 87. 93. 87.]",396.795891401217,None,s,1,0.6162577577906632,396.795891401217,None,None,None,,,,,,,08_AB,24,M,8,2021_Oct_30_1308,Partial repeat,2021.2.3,120.10639158397129,
2,2,0,1,1,2,3,3,3,0,1,0,1,0,1,0,0,38,38,38,1,0,1,0,,,,,,,,,0.7582731021390429,397.4786327719348,None,"[87. 87. 87. 87. 93. 87. 87. 93. 93. 87. 87. 93. 93. 93. 87. 87. 87. 93.
 87. 93. 93. 93. 93. 87. 93. 87. 93. 93. 93. 87. 93. 93. 93. 93.]",398.3112500585303,None,l,1,0.7488427164471432,398.3112500585303,None,None,None,,,,,,,08_AB,24,M,8,2021_Oct_30_1308,Partial repeat,2021.2.3,120.10639158397129,
2,2,0,1,1,2,3,3,3,0,1,0,1,0,1,0,0,38,38,38,,,,,,,,,,,,,,,,,,,,,,,,,,,,,,,,08_AB,24,M,8,2021_Oct_30_1308,Partial repeat,2021.2.3,120.10639158397129,
2,2,0,1,1,2,3,3,3,1,0,0,1,0,1,0,0,39,39,39,0,0,0,0,,,,,,,399.06894125359304,None,0.9070128680094939,399.84327075354213,None,"[93. 87. 93. 93. 87. 93. 87. 87. 93. 93. 87. 93. 93. 87. 87. 87. 93. 93.
 93. 93. 93. 93. 93. 87. 87. 93. 87. 87. 87. 87. 93. 87. 87. 87.]",400.83408006167974,None,l,1,0.4505267198264846,400.83408006167974,None,None,None,,,,,,,08_AB,24,M,8,2021_Oct_30_1308,Partial repeat,2021.2.3,120.10639158397129,
2,2,0,1,1,2,3,3,3,1,0,0,1,0,1,0,0,39,39,39,1,0,1,0,,,,,,,,,0.8207247990300544,401.3586438429711,None,"[87. 93. 87. 87. 87. 87. 93. 93. 93. 93. 87. 87. 87. 87. 93. 87. 93. 87.
 87. 87. 93. 87. 93. 87. 93. 87. 87. 87. 93. 87. 87. 87. 87. 93.]",402.26618657967174,None,s,1,0.8260452336644448,402.26618657967174,None,None,None,,,,,,,08_AB,24,M,8,2021_Oct_30_1308,Partial repeat,2021.2.3,120.10639158397129,
2,2,0,1,1,2,3,3,3,1,0,0,1,0,1,0,0,39,39,39,,,,,,,,,,,,,,,,,,,,,,,,,,,,,,,,08_AB,24,M,8,2021_Oct_30_1308,Partial repeat,2021.2.3,120.10639158397129,
2,2,0,1,1,2,3,3,2,0,1,0,0,0,1,0,0,40,40,40,0,0,0,0,,,,,,,403.10713696975654,None,0.8816772842558022,405.1387137970387,None,"[93. 87. 87. 87. 93. 87. 87. 87. 87. 87. 87. 93. 93. 93. 93. 87. 87. 87.
 93. 87. 93. 87. 93. 93. 93. 93. 93. 93. 87. 93. 93. 87. 87. 87.]",406.10458024031686,None,s,1,0.6028044604372553,406.10458024031686,None,None,None,,,,,,,08_AB,24,M,8,2021_Oct_30_1308,Partial repeat,2021.2.3,120.10639158397129,
2,2,0,1,1,2,3,3,2,0,1,0,0,0,1,0,0,40,40,40,1,0,1,0,,,,,,,,,0.9553730585098121,406.7790337281749,None,"[87. 87. 93. 87. 87. 93. 93. 93. 93. 93. 87. 87. 93. 93. 93. 93. 87. 87.
 93. 93. 87. 93. 87. 93. 87. 87. 87. 93. 93. 87. 87. 93. 93. 93.]",407.811466860976,None,l,1,0.5759581599013472,407.811466860976,None,None,None,,,,,,,08_AB,24,M,8,2021_Oct_30_1308,Partial repeat,2021.2.3,120.10639158397129,
2,2,0,1,1,2,3,3,2,0,1,0,0,0,1,0,0,40,40,40,,,,,,,,,,,,,,,,,,,,,,,,,,,,,,,,08_AB,24,M,8,2021_Oct_30_1308,Partial repeat,2021.2.3,120.10639158397129,
2,2,0,1,1,3,2,2,3,0,0,0,0,1,1,0,0,41,41,41,0,0,0,0,,,,,,,408.4026197817484,None,0.7287555573769853,409.2935226099935,None,"[93. 87. 93. 87. 93. 93. 93. 93. 93. 93. 93. 87. 87. 87. 87. 87. 87. 93.
 87. 93. 87. 87. 93. 93. 87. 93. 87. 87. 87. 93. 87. 87. 93. 93.]",410.1094948567152,None,s,1,0.5658601690438445,410.1094948567152,None,None,None,,,,,,,08_AB,24,M,8,2021_Oct_30_1308,Partial repeat,2021.2.3,120.10639158397129,
2,2,0,1,1,3,2,2,3,0,0,0,0,1,1,0,0,41,41,41,1,0,1,0,,,,,,,,,0.9733497321543195,410.733959986479,None,"[93. 87. 93. 93. 93. 93. 87. 93. 93. 87. 87. 93. 93. 87. 93. 87. 93. 93.
 87. 87. 87. 87. 87. 93. 87. 93. 93. 87. 93. 87. 87. 93. 93. 87.]",411.7830827383559,None,s,1,0.7168640349264024,411.7830827383559,None,None,None,,,,,,,08_AB,24,M,8,2021_Oct_30_1308,Partial repeat,2021.2.3,120.10639158397129,
2,2,0,1,1,3,2,2,3,0,0,0,0,1,1,0,0,41,41,41,,,,,,,,,,,,,,,,,,,,,,,,,,,,,,,,08_AB,24,M,8,2021_Oct_30_1308,Partial repeat,2021.2.3,120.10639158397129,
2,2,0,1,1,2,2,2,3,1,0,1,0,0,1,0,0,42,42,42,0,0,0,0,,,,,,,412.5241106128642,None,0.783166645481062,413.5981925859978,None,"[93. 87. 87. 93. 87. 87. 87. 93. 93. 93. 87. 93. 93. 87. 87. 93. 93. 87.
 87. 87. 87. 87. 93. 93. 87. 87. 93. 87. 93. 93. 87. 87. 87. 93.]",414.46414581439785,None,l,1,0.659299136910704,414.46414581439785,None,None,None,,,,,,,08_AB,24,M,8,2021_Oct_30_1308,Partial repeat,2021.2.3,120.10639158397129,
2,2,0,1,1,2,2,2,3,1,0,1,0,0,1,0,0,42,42,42,1,0,1,0,,,,,,,,,0.8115432266271108,415.18848695625366,None,"[93. 93. 93. 93. 93. 93. 93. 93. 93. 93. 87. 87. 87. 93. 87. 93. 87. 93.
 87. 93. 87. 87. 93. 87. 87. 87. 87. 87. 93. 87. 93. 93. 87. 93.]",416.0793788802348,None,s,1,0.48407882265019,416.0793788802348,None,None,None,,,,,,,08_AB,24,M,8,2021_Oct_30_1308,Partial repeat,2021.2.3,120.10639158397129,
2,2,0,1,1,2,2,2,3,1,0,1,0,0,1,0,0,42,42,42,,,,,,,,,,,,,,,,,,,,,,,,,,,,,,,,08_AB,24,M,8,2021_Oct_30_1308,Partial repeat,2021.2.3,120.10639158397129,
2,2,0,1,1,2,2,2,3,0,1,1,0,0,1,0,0,43,43,43,0,0,0,0,,,,,,,416.57896195245394,None,0.769020413045911,417.22007500851487,None,"[87. 93. 87. 87. 87. 93. 87. 87. 93. 87. 93. 87. 87. 93. 87. 93. 87. 87.
 87. 93. 87. 87. 87. 93. 87. 93. 93. 93. 87. 93. 93. 93. 93. 87.]",418.06934984281816,None,s,1,0.6541346845579028,418.06934984281816,None,None,None,,,,,,,08_AB,24,M,8,2021_Oct_30_1308,Partial repeat,2021.2.3,120.10639158397129,
2,2,0,1,1,2,2,2,3,0,1,1,0,0,1,0,0,43,43,43,1,0,1,0,,,,,,,,,0.9892866230115024,418.7853976496817,None,"[93. 93. 93. 87. 87. 93. 93. 93. 93. 87. 93. 87. 93. 93. 93. 93. 93. 87.
 87. 87. 87. 87. 93. 93. 93. 93. 93. 87. 87. 93. 93. 87. 93. 93.]",419.85119622994625,None,l,1,0.6163122791158457,419.85119622994625,None,None,None,,,,,,,08_AB,24,M,8,2021_Oct_30_1308,Partial repeat,2021.2.3,120.10639158397129,
2,2,0,1,1,2,2,2,3,0,1,1,0,0,1,0,0,43,43,43,,,,,,,,,,,,,,,,,,,,,,,,,,,,,,,,08_AB,24,M,8,2021_Oct_30_1308,Partial repeat,2021.2.3,120.10639158397129,
2,2,0,1,1,2,2,3,2,0,1,1,0,0,1,0,0,44,44,44,0,0,0,0,,,,,,,420.4922890810467,None,0.8668326321496489,421.2999224514324,None,"[93. 87. 87. 87. 87. 87. 93. 93. 93. 87. 87. 93. 87. 87. 93. 87. 87. 87.
 93. 93. 93. 87. 93. 93. 87. 93. 93. 93. 87. 93. 87. 87. 93. 87.]",422.24079182924197,None,s,1,0.930253766829992,422.24079182924197,None,None,None,,,,,,,08_AB,24,M,8,2021_Oct_30_1308,Partial repeat,2021.2.3,120.10639158397129,
2,2,0,1,1,2,2,3,2,0,1,1,0,0,1,0,0,44,44,44,1,0,1,0,,,,,,,,,0.9595855268931075,423.2316088345069,None,"[93. 87. 93. 87. 87. 87. 87. 87. 93. 87. 87. 87. 87. 93. 87. 87. 93. 93.
 93. 87. 93. 87. 93. 87. 87. 87. 87. 93. 93. 87. 87. 93. 87. 87.]",424.27239623790047,None,l,1,0.6422009286097818,424.27239623790047,None,None,None,,,,,,,08_AB,24,M,8,2021_Oct_30_1308,Partial repeat,2021.2.3,120.10639158397129,
2,2,0,1,1,2,2,3,2,0,1,1,0,0,1,0,0,44,44,44,,,,,,,,,,,,,,,,,,,,,,,,,,,,,,,,08_AB,24,M,8,2021_Oct_30_1308,Partial repeat,2021.2.3,120.10639158397129,
2,2,0,1,1,3,3,2,3,0,1,1,0,0,1,0,0,45,45,45,0,0,0,0,,,,,,,424.9384502345383,None,0.9058548865673246,425.6628625748308,None,"[93. 87. 93. 93. 87. 93. 93. 87. 87. 87. 87. 93. 87. 87. 93. 93. 87. 87.
 93. 93. 87. 87. 87. 93. 93. 93. 93. 87. 93. 93. 87. 87. 93. 87.]",426.6453670022829,None,s,1,0.6212586461679166,426.6453670022829,None,None,None,,,,,,,08_AB,24,M,8,2021_Oct_30_1308,Partial repeat,2021.2.3,120.10639158397129,
2,2,0,1,1,3,3,2,3,0,1,1,0,0,1,0,0,45,45,45,1,0,1,0,,,,,,,,,0.8456600830533244,427.33643153436515,None,"[87. 93. 93. 87. 87. 93. 93. 87. 87. 93. 93. 93. 93. 87. 87. 93. 93. 87.
 93. 93. 93. 87. 93. 87. 87. 87. 93. 87. 93. 87. 87. 87. 93. 87.]",428.26064015732936,None,l,1,0.5427508242819385,428.26064015732936,None,None,None,,,,,,,08_AB,24,M,8,2021_Oct_30_1308,Partial repeat,2021.2.3,120.10639158397129,
2,2,0,1,1,3,3,2,3,0,1,1,0,0,1,0,0,45,45,45,,,,,,,,,,,,,,,,,,,,,,,,,,,,,,,,08_AB,24,M,8,2021_Oct_30_1308,Partial repeat,2021.2.3,120.10639158397129,
2,2,0,1,1,2,2,3,2,1,1,1,0,1,1,0,0,46,46,46,0,0,0,0,,,,,,,428.83514034109794,None,0.9596761399874625,429.4596041880077,None,"[93. 93. 93. 87. 93. 93. 93. 93. 93. 87. 93. 87. 93. 93. 87. 93. 93. 87.
 87. 87. 93. 87. 87. 87. 93. 93. 93. 87. 87. 93. 93. 87. 87. 93.]",430.50039576067866,None,l,1,0.5263107204473272,430.50039576067866,None,None,None,,,,,,,08_AB,24,M,8,2021_Oct_30_1308,Partial repeat,2021.2.3,120.10639158397129,
2,2,0,1,1,2,2,3,2,1,1,1,0,1,1,0,0,46,46,46,1,0,1,0,,,,,,,,,0.989551097460711,431.0998827470794,None,"[93. 93. 93. 93. 87. 93. 87. 93. 93. 93. 87. 93. 87. 93. 87. 87. 93. 93.
 93. 93. 93. 93. 87. 93. 87. 87. 87. 93. 87. 93. 93. 87. 87. 87.]",432.16562488173713,None,l,1,0.5891087035424789,432.16562488173713,None,None,None,,,,,,,08_AB,24,M,8,2021_Oct_30_1308,Partial repeat,2021.2.3,120.10639158397129,
2,2,0,1,1,2,2,3,2,1,1,1,0,1,1,0,0,46,46,46,,,,,,,,,,,,,,,,,,,,,,,,,,,,,,,,08_AB,24,M,8,2021_Oct_30_1308,Partial repeat,2021.2.3,120.10639158397129,
2,2,0,1,1,2,3,2,3,1,1,0,0,1,1,0,0,47,47,47,0,0,0,0,,,,,,,432.7734472166221,None,0.927045577062869,433.4895206805804,None,"[93. 87. 93. 93. 87. 93. 93. 93. 87. 87. 87. 87. 93. 87. 87. 87. 87. 93.
 93. 93. 93. 93. 87. 93. 87. 87. 87. 93. 93. 87. 87. 93. 93. 87.]",434.50530492494363,None,l,1,0.4264010334190971,434.50530492494363,None,None,None,,,,,,,08_AB,24,M,8,2021_Oct_30_1308,Partial repeat,2021.2.3,120.10639158397129,
2,2,0,1,1,2,3,2,3,1,1,0,0,1,1,0,0,47,47,47,1,0,1,0,,,,,,,,,0.8553351398757844,435.0048761307562,None,"[87. 93. 93. 87. 87. 87. 87. 87. 87. 93. 93. 93. 93. 93. 93. 93. 87. 93.
 87. 87. 87. 93. 93. 87. 93. 87. 93. 93. 87. 87. 93. 93. 87. 87.]",435.9374207436322,None,l,1,0.6093495851719126,435.9374207436322,None,None,None,,,,,,,08_AB,24,M,8,2021_Oct_30_1308,Partial repeat,2021.2.3,120.10639158397129,
2,2,0,1,1,2,3,2,3,1,1,0,0,1,1,0,0,47,47,47,,,,,,,,,,,,,,,,,,,,,,,,,,,,,,,,08_AB,24,M,8,2021_Oct_30_1308,Partial repeat,2021.2.3,120.10639158397129,
2,2,0,1,1,3,2,3,3,1,0,0,1,0,1,0,0,48,48,48,0,0,0,0,,,,,,,436.570203582628,None,0.8132808966526051,437.3778558751219,None,"[87. 93. 93. 93. 87. 93. 87. 93. 87. 87. 87. 87. 93. 93. 93. 93. 93. 93.
 93. 93. 87. 93. 87. 93. 93. 93. 87. 87. 93. 93. 93. 93. 93. 87.]",438.27708090259057,None,l,1,0.5728228629877776,438.27708090259057,None,None,None,,,,,,,08_AB,24,M,8,2021_Oct_30_1308,Partial repeat,2021.2.3,120.10639158397129,
2,2,0,1,1,3,2,3,3,1,0,0,1,0,1,0,0,48,48,48,1,0,1,0,,,,,,,,,0.8909980195685199,438.909870797288,None,"[87. 93. 87. 87. 87. 93. 87. 87. 93. 87. 87. 87. 93. 87. 93. 93. 87. 87.
 93. 93. 87. 87. 87. 93. 93. 87. 93. 87. 93. 93. 93. 87. 87. 93.]",439.87570356563083,None,s,1,0.5901086887906786,439.87570356563083,None,None,None,,,,,,,08_AB,24,M,8,2021_Oct_30_1308,Partial repeat,2021.2.3,120.10639158397129,
2,2,0,1,1,3,2,3,3,1,0,0,1,0,1,0,0,48,48,48,,,,,,,,,,,,,,,,,,,,,,,,,,,,,,,,08_AB,24,M,8,2021_Oct_30_1308,Partial repeat,2021.2.3,120.10639158397129,
2,2,0,1,1,2,3,2,3,1,0,0,0,0,1,0,0,49,49,49,0,0,0,0,,,,,,,440.4752123605622,None,0.8427011148568995,441.40772073279186,None,"[87. 87. 87. 87. 93. 93. 93. 87. 93. 93. 93. 87. 93. 87. 87. 87. 93. 87.
 87. 93. 93. 93. 93. 87. 87. 87. 87. 93. 93. 93. 87. 87. 93. 87.]",442.33195405071,None,l,1,0.5504415382738443,442.33195405071,None,None,None,,,,,,,08_AB,24,M,8,2021_Oct_30_1308,Partial repeat,2021.2.3,120.10639158397129,
2,2,0,1,1,2,3,2,3,1,0,0,0,0,1,0,0,49,49,49,1,0,1,0,,,,,,,,,0.9951959786961257,442.9564118040598,None,"[87. 87. 87. 87. 87. 87. 93. 87. 87. 87. 93. 87. 93. 93. 93. 93. 87. 93.
 93. 93. 93. 87. 93. 87. 87. 87. 93. 87. 87. 87. 93. 87. 93. 93.]",444.0304642715346,None,s,1,0.8835812674496992,444.0304642715346,None,None,None,,,,,,,08_AB,24,M,8,2021_Oct_30_1308,Partial repeat,2021.2.3,120.10639158397129,
2,2,0,1,1,2,3,2,3,1,0,0,0,0,1,0,0,49,49,49,,,,,,,,,,,,,,,,,,,,,,,,,,,,,,,,08_AB,24,M,8,2021_Oct_30_1308,Partial repeat,2021.2.3,120.10639158397129,
2,2,0,1,1,3,2,2,2,1,0,0,1,0,1,0,0,50,50,50,0,0,0,0,,,,,,,444.9297316332086,None,0.8368376284313189,446.1120470961623,None,"[87. 87. 93. 87. 93. 87. 93. 87. 87. 93. 87. 87. 87. 87. 93. 93. 93. 93.
 87. 93. 93. 93. 87. 93. 93. 93. 93. 93. 93. 87. 93. 93. 93. 93.]",447.0279017692492,None,l,1,0.5257061751644869,447.0279017692492,None,None,None,,,,,,,08_AB,24,M,8,2021_Oct_30_1308,Partial repeat,2021.2.3,120.10639158397129,
2,2,0,1,1,3,2,2,2,1,0,0,1,0,1,0,0,50,50,50,1,0,1,0,,,,,,,,,0.7200740870445766,447.627417299168,None,"[93. 93. 87. 93. 93. 87. 93. 93. 87. 93. 87. 87. 87. 93. 93. 93. 93. 87.
 87. 93. 87. 87. 87. 93. 87. 87. 87. 87. 93. 87. 93. 87. 93. 93.]",448.4267281496168,None,s,1,0.6632480844245947,448.4267281496168,None,None,None,,,,,,,08_AB,24,M,8,2021_Oct_30_1308,Partial repeat,2021.2.3,120.10639158397129,
2,2,0,1,1,3,2,2,2,1,0,0,1,0,1,0,0,50,50,50,,,,,,,,,,,,,,,,,,,,,,,,,,,,,,,,08_AB,24,M,8,2021_Oct_30_1308,Partial repeat,2021.2.3,120.10639158397129,
2,2,0,1,1,2,3,3,2,1,0,0,0,0,1,0,0,51,51,51,0,0,0,0,,,,,,,449.1094833110228,None,0.8374535747606147,450.16689875646443,None,"[87. 93. 93. 93. 87. 87. 93. 93. 87. 87. 87. 87. 93. 93. 93. 87. 87. 87.
 93. 87. 93. 93. 87. 87. 93. 93. 93. 93. 87. 93. 93. 93. 87. 87.]",451.0828066680224,None,l,1,0.47121018633060885,451.0828066680224,None,None,None,,,,,,,08_AB,24,M,8,2021_Oct_30_1308,Partial repeat,2021.2.3,120.10639158397129,
2,2,0,1,1,2,3,3,2,1,0,0,0,0,1,0,0,51,51,51,1,0,1,0,,,,,,,,,0.823783771270368,451.6239888699529,None,"[93. 87. 93. 87. 87. 93. 93. 93. 87. 87. 93. 93. 93. 93. 93. 93. 93. 87.
 87. 87. 87. 87. 93. 93. 87. 93. 87. 93. 87. 93. 93. 87. 93. 93.]",452.5315678472989,None,s,1,0.6215710212900376,452.5315678472989,None,None,None,,,,,,,08_AB,24,M,8,2021_Oct_30_1308,Partial repeat,2021.2.3,120.10639158397129,
2,2,0,1,1,2,3,3,2,1,0,0,0,0,1,0,0,51,51,51,,,,,,,,,,,,,,,,,,,,,,,,,,,,,,,,08_AB,24,M,8,2021_Oct_30_1308,Partial repeat,2021.2.3,120.10639158397129,
2,2,0,1,1,2,3,3,3,1,1,0,1,1,1,0,0,52,52,52,0,0,0,0,,,,,,,453.1726687162409,None,0.8126077065282462,455.2459081745428,None,"[93. 87. 93. 87. 93. 87. 87. 87. 93. 93. 87. 93. 87. 93. 87. 93. 87. 87.
 87. 87. 87. 87. 93. 93. 93. 87. 93. 93. 93. 87. 87. 87. 93. 93.]",456.1368247934761,None,l,1,0.5362759358413314,456.1368247934761,None,None,None,,,,,,,08_AB,24,M,8,2021_Oct_30_1308,Partial repeat,2021.2.3,120.10639158397129,
2,2,0,1,1,2,3,3,3,1,1,0,1,1,1,0,0,52,52,52,1,0,1,0,,,,,,,,,0.9238457949835694,456.74462211269474,None,"[87. 87. 87. 93. 93. 87. 87. 93. 87. 87. 93. 93. 93. 93. 93. 93. 93. 93.
 87. 93. 93. 93. 93. 93. 87. 93. 93. 93. 87. 87. 87. 93. 87. 87.]",457.74379851997037,None,l,1,0.4813248542986912,457.74379851997037,None,None,None,,,,,,,08_AB,24,M,8,2021_Oct_30_1308,Partial repeat,2021.2.3,120.10639158397129,
2,2,0,1,1,2,3,3,3,1,1,0,1,1,1,0,0,52,52,52,,,,,,,,,,,,,,,,,,,,,,,,,,,,,,,,08_AB,24,M,8,2021_Oct_30_1308,Partial repeat,2021.2.3,120.10639158397129,
2,2,0,1,1,3,2,3,2,1,0,0,0,0,1,0,0,53,53,53,0,0,0,0,,,,,,,458.2350173794739,None,0.7450428503606443,459.06763562821106,None,"[87. 93. 93. 87. 87. 93. 93. 93. 87. 87. 93. 87. 93. 93. 93. 87. 93. 93.
 93. 93. 87. 93. 87. 93. 93. 87. 87. 87. 87. 93. 93. 93. 87. 93.]",459.8919403369928,None,l,1,0.38169643316632573,459.8919403369928,None,None,None,,,,,,,08_AB,24,M,8,2021_Oct_30_1308,Partial repeat,2021.2.3,120.10639158397129,
2,2,0,1,1,3,2,3,2,1,0,0,0,0,1,0,0,53,53,53,1,0,1,0,,,,,,,,,0.73923746663086,460.341546596811,None,"[93. 93. 87. 87. 87. 93. 87. 93. 87. 87. 87. 93. 93. 87. 87. 93. 93. 93.
 93. 93. 93. 93. 87. 93. 87. 93. 93. 87. 87. 93. 93. 87. 93. 93.]",461.15749703500205,None,s,1,0.6037008551656982,461.15749703500205,None,None,None,,,,,,,08_AB,24,M,8,2021_Oct_30_1308,Partial repeat,2021.2.3,120.10639158397129,
2,2,0,1,1,3,2,3,2,1,0,0,0,0,1,0,0,53,53,53,,,,,,,,,,,,,,,,,,,,,,,,,,,,,,,,08_AB,24,M,8,2021_Oct_30_1308,Partial repeat,2021.2.3,120.10639158397129,
2,2,0,1,1,3,2,2,3,1,0,0,0,0,1,0,0,54,54,54,0,0,0,0,,,,,,,461.77364285196563,None,0.8200037569857244,462.32317258950025,None,"[87. 87. 87. 93. 93. 87. 93. 93. 93. 93. 93. 93. 87. 87. 87. 87. 93. 93.
 93. 87. 93. 93. 93. 93. 93. 87. 87. 93. 87. 87. 93. 93. 93. 93.]",463.2224290469094,None,l,1,0.4267884555411001,463.2224290469094,None,None,None,,,,,,,08_AB,24,M,8,2021_Oct_30_1308,Partial repeat,2021.2.3,120.10639158397129,
2,2,0,1,1,3,2,2,3,1,0,0,0,0,1,0,0,54,54,54,1,0,1,0,,,,,,,,,0.9974674149061982,463.71367324279345,None,"[87. 93. 87. 93. 93. 87. 87. 87. 87. 87. 93. 93. 93. 87. 93. 93. 93. 93.
 93. 87. 93. 87. 93. 93. 93. 87. 87. 87. 93. 93. 93. 87. 93. 93.]",464.78775232950375,None,s,1,0.6694853240296652,464.78775232950375,None,None,None,,,,,,,08_AB,24,M,8,2021_Oct_30_1308,Partial repeat,2021.2.3,120.10639158397129,
2,2,0,1,1,3,2,2,3,1,0,0,0,0,1,0,0,54,54,54,,,,,,,,,,,,,,,,,,,,,,,,,,,,,,,,08_AB,24,M,8,2021_Oct_30_1308,Partial repeat,2021.2.3,120.10639158397129,
2,2,0,1,1,3,3,3,2,1,1,1,0,1,1,0,0,55,55,55,0,0,0,0,,,,,,,465.4788219930042,None,0.8565293875155774,466.1032733320808,None,"[93. 87. 93. 87. 87. 93. 93. 87. 93. 87. 87. 93. 87. 87. 93. 87. 87. 87.
 93. 93. 93. 87. 87. 87. 93. 87. 87. 87. 93. 93. 87. 87. 93. 93.]",467.03583301849903,None,l,1,0.4367052431707634,467.03583301849903,None,None,None,,,,,,,08_AB,24,M,8,2021_Oct_30_1308,Partial repeat,2021.2.3,120.10639158397129,
2,2,0,1,1,3,3,3,2,1,1,1,0,1,1,0,0,55,55,55,1,0,1,0,,,,,,,,,0.8748970317990555,467.5437241785403,None,"[87. 93. 93. 93. 87. 93. 87. 93. 87. 87. 87. 93. 87. 93. 87. 87. 93. 87.
 93. 93. 87. 87. 87. 87. 93. 93. 87. 93. 93. 93. 93. 93. 93. 87.]",468.49291960413666,None,l,1,0.7394714627844223,468.49291960413666,None,None,None,,,,,,,08_AB,24,M,8,2021_Oct_30_1308,Partial repeat,2021.2.3,120.10639158397129,
2,2,0,1,1,3,3,3,2,1,1,1,0,1,1,0,0,55,55,55,,,,,,,,,,,,,,,,,,,,,,,,,,,,,,,,08_AB,24,M,8,2021_Oct_30_1308,Partial repeat,2021.2.3,120.10639158397129,
2,2,0,1,1,2,2,2,2,1,0,1,1,0,1,0,0,56,56,56,0,0,0,0,,,,,,,469.25059861207956,None,0.8535210941164015,472.4145657248164,None,"[93. 93. 87. 87. 93. 87. 93. 87. 87. 93. 93. 87. 87. 87. 87. 87. 93. 87.
 87. 87. 87. 87. 87. 87. 87. 87. 87. 93. 87. 93. 87. 87. 87. 93.]",473.34708756702094,None,l,1,0.4932964544614151,473.34708756702094,None,None,None,,,,,,,08_AB,24,M,8,2021_Oct_30_1308,Partial repeat,2021.2.3,120.10639158397129,
2,2,0,1,1,2,2,2,2,1,0,1,1,0,1,0,0,56,56,56,1,0,1,0,,,,,,,,,0.7947580436793488,473.91327132441256,None,"[87. 93. 87. 93. 87. 93. 93. 87. 87. 93. 93. 87. 87. 87. 93. 93. 87. 87.
 93. 93. 93. 87. 93. 87. 87. 93. 87. 87. 93. 93. 87. 93. 93. 87.]",474.78751788780573,None,s,1,0.8128921243132936,474.78751788780573,None,None,None,,,,,,,08_AB,24,M,8,2021_Oct_30_1308,Partial repeat,2021.2.3,120.10639158397129,
2,2,0,1,1,2,2,2,2,1,0,1,1,0,1,0,0,56,56,56,,,,,,,,,,,,,,,,,,,,,,,,,,,,,,,,08_AB,24,M,8,2021_Oct_30_1308,Partial repeat,2021.2.3,120.10639158397129,
2,2,0,1,1,3,3,3,3,1,1,1,1,1,1,0,0,57,57,57,0,0,0,0,,,,,,,475.628463787898,None,0.8845183757579046,476.6026440918449,None,"[93. 87. 93. 87. 93. 87. 87. 93. 87. 93. 93. 93. 93. 87. 87. 87. 93. 87.
 87. 87. 87. 87. 93. 87. 87. 93. 87. 93. 93. 87. 93. 87. 87. 87.]",477.5684900094484,None,l,1,0.4799493133350552,477.5684900094484,None,None,None,,,,,,,08_AB,24,M,8,2021_Oct_30_1308,Partial repeat,2021.2.3,120.10639158397129,
2,2,0,1,1,3,3,3,3,1,1,1,1,1,1,0,0,57,57,57,1,0,1,0,,,,,,,,,0.878584457721996,478.1180155777047,None,"[93. 87. 93. 87. 87. 87. 93. 93. 87. 87. 87. 87. 87. 93. 93. 93. 87. 93.
 93. 87. 93. 87. 93. 87. 87. 93. 93. 87. 87. 93. 93. 93. 93. 87.]",479.07553384395214,None,l,1,0.4769297940592878,479.07553384395214,None,None,None,,,,,,,08_AB,24,M,8,2021_Oct_30_1308,Partial repeat,2021.2.3,120.10639158397129,
2,2,0,1,1,3,3,3,3,1,1,1,1,1,1,0,0,57,57,57,,,,,,,,,,,,,,,,,,,,,,,,,,,,,,,,08_AB,24,M,8,2021_Oct_30_1308,Partial repeat,2021.2.3,120.10639158397129,
2,2,0,1,1,2,3,2,2,0,1,0,1,0,1,0,0,58,58,58,0,0,0,0,,,,,,,479.58341377901434,None,0.8691431426950872,480.4660085194382,None,"[87. 87. 93. 87. 87. 93. 87. 93. 93. 87. 87. 93. 87. 93. 93. 87. 93. 87.
 87. 93. 93. 93. 87. 93. 93. 93. 87. 93. 93. 87. 87. 87. 93. 87.]",481.4152049071763,None,s,1,1.1292986173539248,481.4152049071763,None,None,None,,,,,,,08_AB,24,M,8,2021_Oct_30_1308,Partial repeat,2021.2.3,120.10639158397129,
2,2,0,1,1,2,3,2,2,0,1,0,1,0,1,0,0,58,58,58,1,0,1,0,,,,,,,,,0.7672803122213414,482.60584930434015,None,"[87. 93. 87. 87. 93. 93. 87. 93. 93. 87. 87. 87. 93. 93. 87. 93. 93. 93.
 93. 87. 87. 87. 93. 87. 93. 93. 93. 87. 87. 93. 87. 87. 93. 93.]",483.4551199693651,None,l,1,0.6088242561681909,483.4551199693651,None,None,None,,,,,,,08_AB,24,M,8,2021_Oct_30_1308,Partial repeat,2021.2.3,120.10639158397129,
2,2,0,1,1,2,3,2,2,0,1,0,1,0,1,0,0,58,58,58,,,,,,,,,,,,,,,,,,,,,,,,,,,,,,,,08_AB,24,M,8,2021_Oct_30_1308,Partial repeat,2021.2.3,120.10639158397129,
2,2,0,1,1,2,3,2,3,0,0,0,0,1,1,0,0,59,59,59,0,0,0,0,,,,,,,484.0879034497884,None,0.815441285190393,484.95383679394126,None,"[87. 93. 93. 93. 87. 93. 87. 93. 87. 93. 87. 87. 93. 93. 87. 87. 87. 93.
 93. 93. 87. 93. 93. 93. 87. 93. 93. 93. 87. 93. 93. 87. 93. 87.]",485.8447434707505,None,s,1,0.6348460018380138,485.8447434707505,None,None,None,,,,,,,08_AB,24,M,8,2021_Oct_30_1308,Partial repeat,2021.2.3,120.10639158397129,
2,2,0,1,1,2,3,2,3,0,0,0,0,1,1,0,0,59,59,59,1,0,1,0,,,,,,,,,0.8461658933477431,486.54414399274447,None,"[93. 93. 87. 87. 87. 87. 87. 87. 87. 87. 87. 87. 93. 93. 87. 87. 93. 93.
 93. 87. 87. 93. 93. 93. 87. 87. 87. 93. 87. 87. 87. 87. 93. 93.]",487.46836191640523,None,s,1,1.0752378369807047,487.46836191640523,None,None,None,,,,,,,08_AB,24,M,8,2021_Oct_30_1308,Partial repeat,2021.2.3,120.10639158397129,
2,2,0,1,1,2,3,2,3,0,0,0,0,1,1,0,0,59,59,59,,,,,,,,,,,,,,,,,,,,,,,,,,,,,,,,08_AB,24,M,8,2021_Oct_30_1308,Partial repeat,2021.2.3,120.10639158397129,
2,2,0,1,1,3,3,2,3,1,1,1,0,1,1,0,0,60,60,60,0,0,0,0,,,,,,,488.5757394214197,None,0.8485461141180268,489.3584090805589,None,"[87. 93. 93. 93. 87. 87. 87. 93. 87. 93. 87. 87. 93. 93. 87. 93. 87. 87.
 93. 87. 93. 87. 93. 93. 87. 87. 93. 87. 87. 93. 87. 87. 87. 93.]",490.28260615783074,None,l,1,0.42118751187354064,490.28260615783074,None,None,None,,,,,,,08_AB,24,M,8,2021_Oct_30_1308,Partial repeat,2021.2.3,120.10639158397129,
2,2,0,1,1,3,3,2,3,1,1,1,0,1,1,0,0,60,60,60,1,0,1,0,,,,,,,,,0.8037297340952849,490.76555541515427,None,"[93. 93. 87. 93. 93. 93. 87. 93. 87. 87. 87. 87. 87. 93. 93. 87. 93. 87.
 93. 87. 87. 93. 87. 93. 93. 93. 87. 87. 93. 93. 87. 93. 87. 93.]",491.6564457355662,None,l,1,0.4228375837456042,491.6564457355662,None,None,None,,,,,,,08_AB,24,M,8,2021_Oct_30_1308,Partial repeat,2021.2.3,120.10639158397129,
2,2,0,1,1,3,3,2,3,1,1,1,0,1,1,0,0,60,60,60,,,,,,,,,,,,,,,,,,,,,,,,,,,,,,,,08_AB,24,M,8,2021_Oct_30_1308,Partial repeat,2021.2.3,120.10639158397129,
2,2,0,1,1,3,2,2,2,0,0,0,1,1,1,0,0,61,61,61,0,0,0,0,,,,,,,492.1060526368119,None,0.7529778335973052,492.9719818116855,None,"[87. 87. 93. 87. 87. 87. 93. 87. 87. 87. 87. 87. 93. 93. 87. 87. 93. 87.
 87. 87. 93. 87. 93. 93. 93. 87. 87. 93. 93. 87. 93. 93. 87. 93.]",493.80459428757604,None,s,1,0.6757555971425973,493.80459428757604,None,None,None,,,,,,,08_AB,24,M,8,2021_Oct_30_1308,Partial repeat,2021.2.3,120.10639158397129,
2,2,0,1,1,3,2,2,2,0,0,0,1,1,1,0,0,61,61,61,1,0,1,0,,,,,,,,,0.9678906283471114,494.5539629627019,None,"[93. 87. 87. 93. 87. 93. 93. 87. 87. 87. 93. 87. 87. 87. 87. 87. 87. 93.
 87. 87. 93. 93. 93. 87. 93. 87. 93. 87. 93. 93. 87. 93. 87. 93.]",495.61140085810166,None,s,1,0.5803195452044747,495.61140085810166,None,None,None,,,,,,,08_AB,24,M,8,2021_Oct_30_1308,Partial repeat,2021.2.3,120.10639158397129,
2,2,0,1,1,3,2,2,2,0,0,0,1,1,1,0,0,61,61,61,,,,,,,,,,,,,,,,,,,,,,,,,,,,,,,,08_AB,24,M,8,2021_Oct_30_1308,Partial repeat,2021.2.3,120.10639158397129,
2,2,0,1,1,3,3,3,2,0,1,1,0,0,1,0,0,62,62,62,0,0,0,0,,,,,,,496.2108509624295,None,0.7902112644544727,496.73546702005024,None,"[93. 87. 93. 93. 93. 93. 87. 93. 87. 93. 87. 93. 87. 93. 93. 93. 93. 87.
 87. 87. 93. 87. 87. 93. 93. 93. 93. 87. 87. 93. 87. 93. 93. 93.]",497.6013621992752,None,s,1,0.5904422310150039,497.6013621992752,None,None,None,,,,,,,08_AB,24,M,8,2021_Oct_30_1308,Partial repeat,2021.2.3,120.10639158397129,
2,2,0,1,1,3,3,3,2,0,1,1,0,0,1,0,0,62,62,62,1,0,1,0,,,,,,,,,0.8811944239769245,498.25079200242726,None,"[87. 87. 93. 87. 93. 87. 87. 93. 93. 87. 93. 87. 87. 87. 87. 93. 87. 93.
 93. 93. 87. 87. 93. 87. 87. 87. 93. 93. 87. 93. 87. 93. 87. 87.]",499.2083250215037,None,l,1,0.5034611537639648,499.2083250215037,None,None,None,,,,,,,08_AB,24,M,8,2021_Oct_30_1308,Partial repeat,2021.2.3,120.10639158397129,
2,2,0,1,1,3,3,3,2,0,1,1,0,0,1,0,0,62,62,62,,,,,,,,,,,,,,,,,,,,,,,,,,,,,,,,08_AB,24,M,8,2021_Oct_30_1308,Partial repeat,2021.2.3,120.10639158397129,
2,2,0,1,1,3,2,3,2,0,1,0,0,0,1,0,0,63,63,63,0,0,0,0,,,,,,,499.72455858572994,None,0.9580392449546661,500.45724726318986,None,"[87. 93. 93. 93. 93. 87. 93. 87. 87. 93. 87. 87. 87. 93. 93. 93. 87. 87.
 87. 87. 87. 93. 93. 93. 93. 93. 87. 93. 87. 87. 93. 87. 87. 87.]",501.4896903381159,None,s,1,0.5093077641085983,501.4896903381159,None,None,None,,,,,,,08_AB,24,M,8,2021_Oct_30_1308,Partial repeat,2021.2.3,120.10639158397129,
2,2,0,1,1,3,2,3,2,0,1,0,0,0,1,0,0,63,63,63,1,0,1,0,,,,,,,,,0.9642875602693313,502.0725576210225,None,"[87. 93. 93. 93. 87. 93. 93. 87. 87. 87. 93. 93. 93. 87. 93. 93. 87. 93.
 93. 93. 93. 87. 87. 87. 87. 87. 93. 87. 87. 87. 93. 93. 93. 87.]",503.1133014073557,None,l,1,0.46954985162119556,503.1133014073557,None,None,None,,,,,,,08_AB,24,M,8,2021_Oct_30_1308,Partial repeat,2021.2.3,120.10639158397129,
2,2,0,1,1,3,2,3,2,0,1,0,0,0,1,0,0,63,63,63,,,,,,,,,,,,,,,,,,,,,,,,,,,,,,,,08_AB,24,M,8,2021_Oct_30_1308,Partial repeat,2021.2.3,120.10639158397129,
5,7,0,1,1,2,3,3,2,1,0,0,0,0,0,0,0,64,64,64,0,0,0,0,,,,,,,507.79263070525576,None,0.8614255004162543,511.9474228411,None,"[87. 93. 87. 87. 93. 93. 93. 87. 87. 87. 87. 93. 87. 87. 93. 93. 87. 87.
 93. 93. 87. 93. 87. 87. 93. 87. 87. 87. 93. 93. 93. 93. 93. 93.]",512.8882957467595,None,l,1,2.6624251331277264,512.8882957467595,None,None,None,,,,,,,08_AB,24,M,8,2021_Oct_30_1308,Partial repeat,2021.2.3,120.10639158397129,
5,7,0,1,1,2,3,3,2,1,0,0,0,0,0,0,0,64,64,64,1,0,1,0,,,,,,,,,0.9625995594621446,515.6109605182219,None,"[93. 87. 93. 93. 93. 93. 93. 93. 87. 87. 93. 93. 87. 87. 87. 87. 87. 93.
 87. 93. 87. 87. 93. 93. 87. 87. 87. 87. 93. 87. 87. 93. 93. 87.]",516.6517722958542,None,s,1,0.7543147332162334,516.6517722958542,None,None,None,,,,,,,08_AB,24,M,8,2021_Oct_30_1308,Partial repeat,2021.2.3,120.10639158397129,
5,7,0,1,1,2,3,3,2,1,0,0,0,0,0,0,0,64,64,64,,,,,,,,,,,,,,,,,,,,,,,,,,,,,,,,08_AB,24,M,8,2021_Oct_30_1308,Partial repeat,2021.2.3,120.10639158397129,
3,3,0,1,1,3,3,3,3,0,1,1,1,0,0,0,0,65,65,65,0,0,0,0,,,,,,,517.4260623480222,None,0.7640449297799505,518.5750809962392,None,"[93. 87. 93. 93. 87. 87. 93. 93. 93. 87. 87. 93. 93. 93. 87. 87. 93. 93.
 93. 93. 93. 93. 93. 87. 87. 87. 87. 87. 93. 87. 87. 93. 93. 87.]",519.4160211234857,None,l,0,0.822093720441444,519.4160211234857,None,520.2486589357568,None,,,,,,,08_AB,24,M,8,2021_Oct_30_1308,Partial repeat,2021.2.3,120.10639158397129,
3,3,0,1,1,3,3,3,3,0,1,1,1,0,0,0,0,65,65,65,1,0,1,0,,,,,,,,,0.8749329033095751,520.7981848247264,None,"[87. 87. 87. 93. 87. 93. 87. 93. 93. 93. 87. 87. 93. 87. 87. 93. 87. 93.
 93. 93. 93. 87. 87. 93. 87. 93. 93. 93. 93. 87. 93. 87. 87. 87.]",521.7473857024561,None,l,1,0.778756964024069,521.7473857024561,None,None,None,,,,,,,08_AB,24,M,8,2021_Oct_30_1308,Partial repeat,2021.2.3,120.10639158397129,
3,3,0,1,1,3,3,3,3,0,1,1,1,0,0,0,0,65,65,65,,,,,,,,,,,,,,,,,,,,,,,,,,,,,,,,08_AB,24,M,8,2021_Oct_30_1308,Partial repeat,2021.2.3,120.10639158397129,
1,4,0,1,1,3,3,2,3,0,1,1,0,0,0,0,0,66,66,66,0,0,0,0,,,,,,,522.5466955907641,None,0.8818044950157279,523.5042154605799,None,"[93. 87. 93. 87. 87. 93. 87. 87. 87. 87. 93. 93. 87. 93. 87. 93. 93. 93.
 87. 87. 93. 87. 93. 93. 93. 87. 93. 87. 87. 87. 87. 93. 93. 87.]",524.4617266711266,None,s,1,0.6564611415760737,524.4617266711266,None,None,None,,,,,,,08_AB,24,M,8,2021_Oct_30_1308,Partial repeat,2021.2.3,120.10639158397129,
1,4,0,1,1,3,3,2,3,0,1,1,0,0,0,0,0,66,66,66,1,0,1,0,,,,,,,,,0.8998979035389035,525.1777776851268,None,"[87. 93. 87. 87. 93. 93. 93. 93. 93. 93. 87. 93. 93. 87. 93. 87. 87. 93.
 93. 87. 87. 93. 93. 93. 87. 93. 87. 87. 87. 93. 87. 93. 87. 87.]",526.1519381048256,None,l,1,0.5982888118542178,526.1519381048256,None,None,None,,,,,,,08_AB,24,M,8,2021_Oct_30_1308,Partial repeat,2021.2.3,120.10639158397129,
1,4,0,1,1,3,3,2,3,0,1,1,0,0,0,0,0,66,66,66,,,,,,,,,,,,,,,,,,,,,,,,,,,,,,,,08_AB,24,M,8,2021_Oct_30_1308,Partial repeat,2021.2.3,120.10639158397129,
2,5,0,1,1,3,3,3,3,1,1,1,1,1,0,0,0,67,67,67,0,0,0,0,,,,,,,526.7764099695769,None,0.9263473582930567,527.5507539016426,None,"[87. 87. 93. 93. 87. 93. 93. 93. 87. 93. 87. 93. 93. 93. 93. 87. 93. 93.
 87. 93. 87. 93. 93. 87. 87. 93. 93. 93. 87. 87. 93. 87. 93. 93.]",528.5582194746321,None,l,1,0.8320361651649364,528.5582194746321,None,None,None,,,,,,,08_AB,24,M,8,2021_Oct_30_1308,Partial repeat,2021.2.3,120.10639158397129,
2,5,0,1,1,3,3,3,3,1,1,1,1,1,0,0,0,67,67,67,1,0,1,0,,,,,,,,,0.7130197064412209,529.4491421871262,None,"[87. 93. 93. 87. 87. 87. 87. 87. 87. 93. 87. 93. 87. 93. 87. 87. 87. 93.
 87. 87. 93. 87. 93. 87. 93. 87. 93. 93. 87. 87. 93. 87. 87. 93.]",530.2401247447924,None,l,1,0.8141461147943119,530.2401247447924,None,None,None,,,,,,,08_AB,24,M,8,2021_Oct_30_1308,Partial repeat,2021.2.3,120.10639158397129,
2,5,0,1,1,3,3,3,3,1,1,1,1,1,0,0,0,67,67,67,,,,,,,,,,,,,,,,,,,,,,,,,,,,,,,,08_AB,24,M,8,2021_Oct_30_1308,Partial repeat,2021.2.3,120.10639158397129,
6,5,0,1,1,2,3,3,2,0,1,0,0,0,0,0,0,68,68,68,0,0,0,0,,,,,,,531.0727349756871,None,0.9422037081250327,531.7721281212662,None,"[93. 87. 87. 87. 93. 87. 87. 87. 87. 87. 93. 87. 93. 93. 93. 87. 87. 93.
 87. 93. 87. 87. 93. 93. 87. 87. 93. 93. 93. 93. 93. 87. 93. 87.]",532.7962525248186,None,s,1,0.705537069256934,532.7962525248186,None,None,None,,,,,,,08_AB,24,M,8,2021_Oct_30_1308,Partial repeat,2021.2.3,120.10639158397129,
6,5,0,1,1,2,3,3,2,0,1,0,0,0,0,0,0,68,68,68,1,0,1,0,,,,,,,,,0.7942009270308444,533.5706118511398,None,"[93. 93. 87. 87. 87. 93. 87. 93. 87. 87. 87. 87. 93. 93. 87. 93. 93. 93.
 93. 87. 87. 93. 87. 93. 93. 93. 87. 87. 87. 87. 93. 87. 93. 87.]",534.4448664323745,None,l,1,0.6252967520840684,534.4448664323745,None,None,None,,,,,,,08_AB,24,M,8,2021_Oct_30_1308,Partial repeat,2021.2.3,120.10639158397129,
6,5,0,1,1,2,3,3,2,0,1,0,0,0,0,0,0,68,68,68,,,,,,,,,,,,,,,,,,,,,,,,,,,,,,,,08_AB,24,M,8,2021_Oct_30_1308,Partial repeat,2021.2.3,120.10639158397129,
7,3,0,1,1,3,3,3,2,1,1,1,0,1,0,0,0,69,69,69,0,0,0,0,,,,,,,535.0859788470088,None,0.7962537419569887,535.8186559787764,None,"[87. 87. 87. 93. 93. 93. 87. 93. 93. 87. 93. 93. 93. 93. 93. 93. 93. 93.
 93. 87. 93. 93. 93. 93. 87. 93. 93. 93. 93. 87. 87. 93. 87. 93.]",536.6929432728066,None,l,1,0.6484503553338072,536.6929432728066,None,None,None,,,,,,,08_AB,24,M,8,2021_Oct_30_1308,Partial repeat,2021.2.3,120.10639158397129,
7,3,0,1,1,3,3,3,2,1,1,1,0,1,0,0,0,69,69,69,1,0,1,0,,,,,,,,,0.7453364817999314,537.408999418225,None,"[87. 93. 87. 93. 87. 87. 87. 93. 93. 87. 93. 87. 93. 87. 87. 93. 93. 93.
 87. 93. 87. 87. 93. 87. 93. 87. 87. 93. 87. 87. 87. 93. 93. 87.]",538.2332710934988,None,l,1,1.172152699686194,538.2332710934988,None,None,None,,,,,,,08_AB,24,M,8,2021_Oct_30_1308,Partial repeat,2021.2.3,120.10639158397129,
7,3,0,1,1,3,3,3,2,1,1,1,0,1,0,0,0,69,69,69,,,,,,,,,,,,,,,,,,,,,,,,,,,,,,,,08_AB,24,M,8,2021_Oct_30_1308,Partial repeat,2021.2.3,120.10639158397129,
8,1,0,1,1,2,2,3,3,0,0,1,1,1,0,0,0,70,70,70,0,0,0,0,,,,,,,539.4239222256501,None,0.8273129305507292,540.2648761435848,None,"[87. 87. 87. 93. 87. 93. 93. 93. 87. 87. 87. 93. 87. 87. 87. 93. 93. 93.
 93. 87. 93. 93. 87. 87. 93. 93. 93. 93. 93. 93. 93. 93. 93. 87.]",541.1724236909913,None,s,1,0.600833354173119,541.1724236909913,None,None,None,,,,,,,08_AB,24,M,8,2021_Oct_30_1308,Partial repeat,2021.2.3,120.10639158397129,
8,1,0,1,1,2,2,3,3,0,0,1,1,1,0,0,0,70,70,70,1,0,1,0,,,,,,,,,0.7777635836684677,541.8468588981686,None,"[93. 87. 93. 93. 87. 87. 87. 87. 87. 87. 93. 93. 87. 93. 93. 93. 87. 87.
 93. 93. 87. 87. 93. 93. 93. 87. 93. 93. 87. 93. 87. 93. 87. 87.]",542.7044501588498,None,s,1,1.3890613020612363,542.7044501588498,None,None,None,,,,,,,08_AB,24,M,8,2021_Oct_30_1308,Partial repeat,2021.2.3,120.10639158397129,
8,1,0,1,1,2,2,3,3,0,0,1,1,1,0,0,0,70,70,70,,,,,,,,,,,,,,,,,,,,,,,,,,,,,,,,08_AB,24,M,8,2021_Oct_30_1308,Partial repeat,2021.2.3,120.10639158397129,
7,7,0,1,1,2,3,2,2,1,0,0,1,0,0,0,0,71,71,71,0,0,0,0,,,,,,,544.1199151648179,None,0.9330432793348999,544.70274973493,None,"[87. 93. 93. 93. 87. 87. 93. 87. 87. 87. 87. 87. 87. 87. 93. 87. 93. 87.
 93. 93. 93. 93. 87. 87. 87. 93. 93. 87. 87. 93. 93. 93. 87. 93.]",545.7102326264594,None,l,1,0.7183938391699485,545.7102326264594,None,None,None,,,,,,,08_AB,24,M,8,2021_Oct_30_1308,Partial repeat,2021.2.3,120.10639158397129,
7,7,0,1,1,2,3,2,2,1,0,0,1,0,0,0,0,71,71,71,1,0,1,0,,,,,,,,,0.7203217150729404,546.5012559147617,None,"[93. 93. 87. 87. 93. 87. 93. 93. 87. 93. 93. 93. 87. 87. 93. 93. 87. 93.
 87. 93. 87. 87. 93. 93. 93. 93. 87. 87. 87. 87. 93. 87. 93. 93.]",547.3005183374462,None,s,1,0.8881293081140029,547.3005183374462,None,None,None,,,,,,,08_AB,24,M,8,2021_Oct_30_1308,Partial repeat,2021.2.3,120.10639158397129,
7,7,0,1,1,2,3,2,2,1,0,0,1,0,0,0,0,71,71,71,,,,,,,,,,,,,,,,,,,,,,,,,,,,,,,,08_AB,24,M,8,2021_Oct_30_1308,Partial repeat,2021.2.3,120.10639158397129,
8,2,0,1,1,3,3,3,2,0,1,1,0,0,0,0,0,72,72,72,0,0,0,0,,,,,,,548.2164105340335,None,0.7495167655416473,548.9241403109509,None,"[87. 87. 93. 93. 93. 93. 93. 93. 93. 87. 87. 93. 93. 87. 87. 87. 87. 87.
 87. 87. 93. 87. 93. 87. 93. 93. 87. 87. 93. 93. 87. 87. 93. 87.]",549.7484273804812,None,s,1,0.5841289822683393,549.7484273804812,None,None,None,,,,,,,08_AB,24,M,8,2021_Oct_30_1308,Partial repeat,2021.2.3,120.10639158397129,
8,2,0,1,1,3,3,3,2,0,1,1,0,0,0,0,0,72,72,72,1,0,1,0,,,,,,,,,0.825320656036604,550.4062072849474,None,"[87. 87. 87. 93. 87. 93. 93. 93. 93. 93. 93. 93. 87. 93. 93. 87. 87. 93.
 93. 93. 87. 93. 93. 87. 93. 93. 93. 93. 93. 93. 93. 93. 87. 93.]",551.3137750373153,None,l,1,0.6508531422077795,551.3137750373153,None,None,None,,,,,,,08_AB,24,M,8,2021_Oct_30_1308,Partial repeat,2021.2.3,120.10639158397129,
8,2,0,1,1,3,3,3,2,0,1,1,0,0,0,0,0,72,72,72,,,,,,,,,,,,,,,,,,,,,,,,,,,,,,,,08_AB,24,M,8,2021_Oct_30_1308,Partial repeat,2021.2.3,120.10639158397129,
2,4,0,1,1,3,2,3,3,0,0,0,1,1,0,0,0,73,73,73,0,0,0,0,,,,,,,551.9798543703337,None,0.764000428164817,553.0456019571229,None,"[87. 87. 87. 87. 87. 87. 93. 87. 93. 93. 93. 87. 93. 87. 87. 93. 87. 93.
 87. 87. 93. 87. 87. 93. 93. 93. 93. 87. 87. 93. 93. 87. 87. 87.]",553.886544008652,None,s,1,0.7981088273381829,553.886544008652,None,None,None,,,,,,,08_AB,24,M,8,2021_Oct_30_1308,Partial repeat,2021.2.3,120.10639158397129,
2,4,0,1,1,3,2,3,3,0,0,0,1,1,0,0,0,73,73,73,1,0,1,0,,,,,,,,,0.9888034557347978,554.7524895399238,None,"[93. 93. 93. 93. 87. 93. 93. 87. 93. 87. 93. 87. 93. 87. 93. 93. 93. 93.
 87. 93. 87. 93. 93. 87. 93. 87. 87. 87. 93. 87. 93. 87. 87. 93.]",555.8182329574356,None,l,0,0.6419170970048071,555.8182329574356,None,556.4843806024674,None,,,,,,,08_AB,24,M,8,2021_Oct_30_1308,Partial repeat,2021.2.3,120.10639158397129,
2,4,0,1,1,3,2,3,3,0,0,0,1,1,0,0,0,73,73,73,,,,,,,,,,,,,,,,,,,,,,,,,,,,,,,,08_AB,24,M,8,2021_Oct_30_1308,Partial repeat,2021.2.3,120.10639158397129,
2,8,0,1,1,2,2,3,3,0,1,1,1,0,0,0,0,74,74,74,0,0,0,0,,,,,,,556.9839165297753,None,0.9800163389756034,557.7582540475669,None,"[87. 87. 93. 93. 93. 87. 93. 93. 87. 93. 87. 87. 87. 93. 93. 87. 87. 93.
 93. 93. 93. 87. 87. 93. 87. 87. 93. 93. 87. 93. 93. 87. 93. 87.]",558.8156717380052,None,s,1,1.2770645579466873,558.8156717380052,None,None,None,,,,,,,08_AB,24,M,8,2021_Oct_30_1308,Partial repeat,2021.2.3,120.10639158397129,
2,8,0,1,1,2,2,3,3,0,1,1,1,0,0,0,0,74,74,74,1,0,1,0,,,,,,,,,0.8193248914259006,560.1562029553124,None,"[93. 87. 87. 87. 93. 93. 87. 87. 93. 87. 87. 93. 87. 93. 93. 93. 93. 87.
 87. 93. 93. 87. 87. 93. 87. 93. 93. 87. 93. 87. 87. 87. 87. 87.]",561.0554533191626,None,l,1,0.6213218267621414,561.0554533191626,None,None,None,,,,,,,08_AB,24,M,8,2021_Oct_30_1308,Partial repeat,2021.2.3,120.10639158397129,
2,8,0,1,1,2,2,3,3,0,1,1,1,0,0,0,0,74,74,74,,,,,,,,,,,,,,,,,,,,,,,,,,,,,,,,08_AB,24,M,8,2021_Oct_30_1308,Partial repeat,2021.2.3,120.10639158397129,
3,8,0,1,1,3,3,2,2,0,1,1,1,0,0,0,0,75,75,75,0,0,0,0,,,,,,,561.6965763173475,None,0.7148228172959772,562.312691025084,None,"[87. 93. 93. 87. 87. 87. 93. 87. 93. 87. 93. 87. 87. 87. 87. 93. 87. 93.
 93. 93. 87. 87. 87. 93. 87. 87. 93. 87. 87. 93. 87. 93. 93. 87.]",563.1036799970234,None,s,1,0.6521552397389314,563.1036799970234,None,None,None,,,,,,,08_AB,24,M,8,2021_Oct_30_1308,Partial repeat,2021.2.3,120.10639158397129,
3,8,0,1,1,3,3,2,2,0,1,1,1,0,0,0,0,75,75,75,1,0,1,0,,,,,,,,,0.9666481243896761,563.8280705287862,None,"[87. 87. 87. 93. 93. 87. 93. 93. 93. 87. 93. 93. 93. 87. 93. 87. 93. 87.
 93. 87. 87. 87. 87. 87. 87. 93. 93. 87. 93. 87. 93. 87. 87. 87.]",564.868828747235,None,l,1,0.7270017942801132,564.868828747235,None,None,None,,,,,,,08_AB,24,M,8,2021_Oct_30_1308,Partial repeat,2021.2.3,120.10639158397129,
3,8,0,1,1,3,3,2,2,0,1,1,1,0,0,0,0,75,75,75,,,,,,,,,,,,,,,,,,,,,,,,,,,,,,,,08_AB,24,M,8,2021_Oct_30_1308,Partial repeat,2021.2.3,120.10639158397129,
2,7,0,1,1,2,2,2,2,0,0,1,1,1,0,0,0,76,76,76,0,0,0,0,,,,,,,565.6182102509074,None,0.7912665805305363,566.3092754244162,None,"[87. 93. 87. 87. 93. 93. 93. 93. 93. 93. 87. 87. 93. 87. 87. 93. 93. 93.
 87. 93. 93. 93. 93. 93. 87. 87. 87. 93. 93. 93. 93. 93. 87. 93.]",567.1752106928507,None,s,1,0.596660548512773,567.1752106928507,None,None,None,,,,,,,08_AB,24,M,8,2021_Oct_30_1308,Partial repeat,2021.2.3,120.10639158397129,
2,7,0,1,1,2,2,2,2,0,0,1,1,1,0,0,0,76,76,76,1,0,1,0,,,,,,,,,0.9985140671803268,567.841294836574,None,"[87. 93. 93. 87. 93. 87. 93. 93. 87. 93. 93. 87. 93. 93. 87. 93. 93. 87.
 87. 93. 93. 93. 93. 93. 87. 87. 87. 93. 93. 93. 93. 87. 93. 87.]",568.9153816204125,None,s,1,0.6325035091367681,568.9153816204125,None,None,None,,,,,,,08_AB,24,M,8,2021_Oct_30_1308,Partial repeat,2021.2.3,120.10639158397129,
2,7,0,1,1,2,2,2,2,0,0,1,1,1,0,0,0,76,76,76,,,,,,,,,,,,,,,,,,,,,,,,,,,,,,,,08_AB,24,M,8,2021_Oct_30_1308,Partial repeat,2021.2.3,120.10639158397129,
2,6,0,1,1,3,3,3,3,0,0,1,1,1,0,0,0,77,77,77,0,0,0,0,,,,,,,569.5648104614238,None,0.839810164287174,570.2642273398151,None,"[93. 93. 93. 93. 93. 93. 87. 87. 87. 93. 93. 87. 93. 93. 87. 87. 93. 87.
 87. 93. 87. 93. 93. 87. 93. 87. 87. 93. 87. 93. 93. 93. 93. 87.]",571.1800836164703,None,s,1,0.6398401552278301,571.1800836164703,None,None,None,,,,,,,08_AB,24,M,8,2021_Oct_30_1308,Partial repeat,2021.2.3,120.10639158397129,
2,6,0,1,1,3,3,3,3,0,0,1,1,1,0,0,0,77,77,77,1,0,1,0,,,,,,,,,0.8349706532486286,571.8795184548271,None,"[87. 87. 87. 87. 87. 87. 93. 87. 87. 87. 87. 93. 93. 93. 93. 93. 87. 93.
 93. 93. 87. 93. 93. 87. 93. 93. 87. 87. 87. 93. 93. 93. 93. 93.]",572.795397822867,None,s,1,1.2643277349488926,572.795397822867,None,None,None,,,,,,,08_AB,24,M,8,2021_Oct_30_1308,Partial repeat,2021.2.3,120.10639158397129,
2,6,0,1,1,3,3,3,3,0,0,1,1,1,0,0,0,77,77,77,,,,,,,,,,,,,,,,,,,,,,,,,,,,,,,,08_AB,24,M,8,2021_Oct_30_1308,Partial repeat,2021.2.3,120.10639158397129,
8,3,0,1,1,2,3,3,2,1,1,0,0,1,0,0,0,78,78,78,0,0,0,0,,,,,,,574.0693055843303,None,0.7622876664564499,574.7270925444973,None,"[93. 87. 87. 87. 93. 93. 93. 87. 93. 93. 93. 93. 93. 87. 93. 87. 93. 87.
 87. 87. 87. 87. 87. 87. 87. 93. 87. 93. 87. 87. 87. 87. 87. 87.]",575.5680121460682,None,l,1,0.6839940900954389,575.5680121460682,None,None,None,,,,,,,08_AB,24,M,8,2021_Oct_30_1308,Partial repeat,2021.2.3,120.10639158397129,
8,3,0,1,1,2,3,3,2,1,1,0,0,1,0,0,0,78,78,78,1,0,1,0,,,,,,,,,0.7333105929993337,576.3257415060589,None,"[87. 93. 87. 87. 87. 87. 93. 93. 87. 87. 93. 87. 93. 93. 87. 93. 93. 93.
 87. 87. 93. 93. 93. 93. 93. 93. 87. 93. 87. 93. 87. 87. 87. 93.]",577.1333549921974,None,l,1,0.957787356776862,577.1333549921974,None,None,None,,,,,,,08_AB,24,M,8,2021_Oct_30_1308,Partial repeat,2021.2.3,120.10639158397129,
8,3,0,1,1,2,3,3,2,1,1,0,0,1,0,0,0,78,78,78,,,,,,,,,,,,,,,,,,,,,,,,,,,,,,,,08_AB,24,M,8,2021_Oct_30_1308,Partial repeat,2021.2.3,120.10639158397129,
7,8,0,1,1,3,3,2,3,1,0,1,0,0,0,0,0,79,79,79,0,0,0,0,,,,,,,578.1075141290412,None,0.9439721862073549,578.8735323340325,None,"[93. 93. 93. 93. 93. 93. 87. 93. 87. 93. 93. 87. 93. 93. 93. 93. 87. 87.
 93. 87. 93. 93. 93. 93. 93. 87. 93. 87. 93. 93. 87. 87. 93. 93.]",579.9059689946844,None,l,1,0.7450807450077264,579.9059689946844,None,None,None,,,,,,,08_AB,24,M,8,2021_Oct_30_1308,Partial repeat,2021.2.3,120.10639158397129,
7,8,0,1,1,3,3,2,3,1,0,1,0,0,0,0,0,79,79,79,1,0,1,0,,,,,,,,,0.8537301569240965,580.7136248150282,None,"[93. 93. 87. 93. 93. 87. 87. 93. 87. 87. 93. 93. 87. 87. 87. 87. 93. 87.
 93. 93. 87. 93. 93. 87. 87. 93. 87. 93. 87. 87. 87. 87. 93. 87.]",581.6461710314734,None,s,1,0.6369312821707354,581.6461710314734,None,None,None,,,,,,,08_AB,24,M,8,2021_Oct_30_1308,Partial repeat,2021.2.3,120.10639158397129,
7,8,0,1,1,3,3,2,3,1,0,1,0,0,0,0,0,79,79,79,,,,,,,,,,,,,,,,,,,,,,,,,,,,,,,,08_AB,24,M,8,2021_Oct_30_1308,Partial repeat,2021.2.3,120.10639158397129,
8,6,0,1,1,3,2,2,3,0,1,0,0,0,0,0,0,80,80,80,0,0,0,0,,,,,,,582.3122587030466,None,0.7701594878486578,583.1615325752091,None,"[87. 93. 87. 87. 93. 87. 93. 87. 93. 93. 93. 93. 87. 93. 93. 87. 93. 87.
 87. 87. 87. 87. 93. 93. 87. 93. 87. 87. 87. 93. 93. 87. 87. 93.]",584.0108503851452,None,s,1,0.6082976443094594,584.0108503851452,None,None,None,,,,,,,08_AB,24,M,8,2021_Oct_30_1308,Partial repeat,2021.2.3,120.10639158397129,
8,6,0,1,1,3,2,2,3,0,1,0,0,0,0,0,0,80,80,80,1,0,1,0,,,,,,,,,0.9012599492169704,584.685222091015,None,"[87. 87. 93. 93. 87. 93. 93. 93. 93. 87. 93. 87. 93. 93. 87. 87. 93. 93.
 93. 93. 87. 87. 93. 87. 87. 93. 93. 87. 93. 93. 93. 93. 87. 87.]",585.6760371719984,None,l,1,0.5750928743991608,585.6760371719984,None,None,None,,,,,,,08_AB,24,M,8,2021_Oct_30_1308,Partial repeat,2021.2.3,120.10639158397129,
8,6,0,1,1,3,2,2,3,0,1,0,0,0,0,0,0,80,80,80,,,,,,,,,,,,,,,,,,,,,,,,,,,,,,,,08_AB,24,M,8,2021_Oct_30_1308,Partial repeat,2021.2.3,120.10639158397129,
4,8,0,1,1,3,3,3,2,1,0,1,0,0,0,0,0,81,81,81,0,0,0,0,,,,,,,586.2588919470718,None,0.7142603193852939,587.141464878966,None,"[87. 93. 93. 87. 87. 93. 87. 87. 87. 93. 93. 87. 93. 87. 93. 87. 87. 87.
 87. 87. 93. 93. 87. 87. 87. 87. 87. 87. 87. 93. 93. 93. 93. 87.]",587.9407722015649,None,l,1,0.5664092308606996,587.9407722015649,None,None,None,,,,,,,08_AB,24,M,8,2021_Oct_30_1308,Partial repeat,2021.2.3,120.10639158397129,
4,8,0,1,1,3,3,3,2,1,0,1,0,0,0,0,0,81,81,81,1,0,1,0,,,,,,,,,0.9325438727343598,588.5652447077437,None,"[87. 87. 87. 93. 87. 87. 87. 93. 87. 87. 93. 87. 93. 87. 87. 87. 93. 87.
 87. 93. 93. 87. 87. 93. 87. 87. 87. 87. 93. 87. 93. 87. 87. 93.]",589.5810356870934,None,s,1,0.575234950558297,589.5810356870934,None,None,None,,,,,,,08_AB,24,M,8,2021_Oct_30_1308,Partial repeat,2021.2.3,120.10639158397129,
4,8,0,1,1,3,3,3,2,1,0,1,0,0,0,0,0,81,81,81,,,,,,,,,,,,,,,,,,,,,,,,,,,,,,,,08_AB,24,M,8,2021_Oct_30_1308,Partial repeat,2021.2.3,120.10639158397129,
6,6,0,1,1,3,2,2,3,1,0,0,0,0,0,0,0,82,82,82,0,0,0,0,,,,,,,590.1721889285791,None,0.9320245200002363,590.7966498890655,None,"[87. 93. 93. 87. 87. 93. 87. 87. 93. 87. 87. 87. 87. 87. 93. 93. 93. 87.
 87. 87. 93. 93. 87. 87. 87. 93. 93. 87. 87. 87. 93. 93. 93. 93.]",591.8041494577055,None,l,1,0.49517295018904406,591.8041494577055,None,None,None,,,,,,,08_AB,24,M,8,2021_Oct_30_1308,Partial repeat,2021.2.3,120.10639158397129,
6,6,0,1,1,3,2,2,3,1,0,0,0,0,0,0,0,82,82,82,1,0,1,0,,,,,,,,,0.9987539637870783,592.3620199958568,None,"[87. 93. 87. 87. 87. 93. 93. 93. 87. 93. 87. 93. 87. 87. 93. 87. 93. 87.
 87. 93. 87. 87. 87. 87. 93. 87. 93. 93. 93. 87. 93. 93. 93. 87.]",593.4444145468024,None,s,1,0.9180092393280574,593.4444145468024,None,None,None,,,,,,,08_AB,24,M,8,2021_Oct_30_1308,Partial repeat,2021.2.3,120.10639158397129,
6,6,0,1,1,3,2,2,3,1,0,0,0,0,0,0,0,82,82,82,,,,,,,,,,,,,,,,,,,,,,,,,,,,,,,,08_AB,24,M,8,2021_Oct_30_1308,Partial repeat,2021.2.3,120.10639158397129,
5,1,0,1,1,2,3,2,3,1,0,0,0,0,0,0,0,83,83,83,0,0,0,0,,,,,,,594.3852544189531,None,0.7066955126535571,594.9597770526798,None,"[93. 87. 87. 87. 93. 93. 93. 87. 87. 87. 93. 93. 87. 93. 87. 93. 87. 93.
 93. 93. 87. 93. 87. 93. 87. 87. 87. 87. 93. 87. 87. 87. 87. 87.]",595.7507679489017,None,l,1,0.6435533781886988,595.7507679489017,None,None,None,,,,,,,08_AB,24,M,8,2021_Oct_30_1308,Partial repeat,2021.2.3,120.10639158397129,
5,1,0,1,1,2,3,2,3,1,0,0,0,0,0,0,0,83,83,83,1,0,1,0,,,,,,,,,0.7526569703522352,596.458496442965,None,"[87. 93. 87. 93. 87. 87. 93. 93. 93. 87. 87. 93. 93. 93. 93. 93. 87. 87.
 87. 93. 87. 93. 87. 87. 87. 87. 87. 93. 87. 87. 93. 93. 87. 93.]",597.2911284823895,None,s,1,0.6552334496182084,597.2911284823895,None,None,None,,,,,,,08_AB,24,M,8,2021_Oct_30_1308,Partial repeat,2021.2.3,120.10639158397129,
5,1,0,1,1,2,3,2,3,1,0,0,0,0,0,0,0,83,83,83,,,,,,,,,,,,,,,,,,,,,,,,,,,,,,,,08_AB,24,M,8,2021_Oct_30_1308,Partial repeat,2021.2.3,120.10639158397129,
5,2,0,1,1,2,2,3,2,1,0,1,0,0,0,0,0,84,84,84,0,0,0,0,,,,,,,597.973865683829,None,0.9355371371901715,598.8481237929136,None,"[87. 87. 87. 93. 93. 93. 93. 87. 87. 93. 93. 87. 87. 93. 93. 87. 87. 93.
 87. 93. 93. 87. 87. 87. 87. 93. 87. 87. 93. 93. 93. 87. 87. 93.]",599.8722376129153,None,l,1,0.5701477902020997,599.8722376129153,None,None,None,,,,,,,08_AB,24,M,8,2021_Oct_30_1308,Partial repeat,2021.2.3,120.10639158397129,
5,2,0,1,1,2,2,3,2,1,0,1,0,0,0,0,0,84,84,84,1,0,1,0,,,,,,,,,0.7642277013956267,600.5050502782833,None,"[87. 93. 93. 93. 87. 93. 93. 93. 93. 87. 93. 93. 93. 87. 87. 93. 87. 93.
 87. 87. 93. 93. 87. 93. 93. 93. 87. 93. 93. 93. 93. 87. 87. 93.]",601.3459971405173,None,s,1,1.0013065992761767,601.3459971405173,None,None,None,,,,,,,08_AB,24,M,8,2021_Oct_30_1308,Partial repeat,2021.2.3,120.10639158397129,
5,2,0,1,1,2,2,3,2,1,0,1,0,0,0,0,0,84,84,84,,,,,,,,,,,,,,,,,,,,,,,,,,,,,,,,08_AB,24,M,8,2021_Oct_30_1308,Partial repeat,2021.2.3,120.10639158397129,
5,6,0,1,1,3,2,3,3,0,1,0,1,0,0,0,0,85,85,85,0,0,0,0,,,,,,,602.370131806907,None,0.9616857929590161,603.1444318011991,None,"[93. 93. 87. 93. 87. 93. 87. 93. 87. 93. 93. 87. 87. 87. 87. 93. 93. 87.
 93. 93. 87. 93. 87. 87. 93. 93. 93. 87. 87. 93. 87. 93. 93. 87.]",604.1852137524593,None,s,1,0.6732492197515967,604.1852137524593,None,None,None,,,,,,,08_AB,24,M,8,2021_Oct_30_1308,Partial repeat,2021.2.3,120.10639158397129,
5,6,0,1,1,3,2,3,3,0,1,0,1,0,0,0,0,85,85,85,1,0,1,0,,,,,,,,,0.8160574234354729,604.9262602283607,None,"[93. 93. 93. 87. 87. 93. 87. 93. 93. 93. 93. 93. 87. 93. 87. 93. 93. 93.
 93. 93. 87. 93. 93. 87. 87. 87. 93. 93. 93. 93. 93. 87. 87. 93.]",605.8171361166578,None,l,1,0.497363424608011,605.8171361166578,None,None,None,,,,,,,08_AB,24,M,8,2021_Oct_30_1308,Partial repeat,2021.2.3,120.10639158397129,
5,6,0,1,1,3,2,3,3,0,1,0,1,0,0,0,0,85,85,85,,,,,,,,,,,,,,,,,,,,,,,,,,,,,,,,08_AB,24,M,8,2021_Oct_30_1308,Partial repeat,2021.2.3,120.10639158397129,
3,5,0,1,1,2,3,2,3,1,1,0,0,1,0,0,0,86,86,86,0,0,0,0,,,,,,,606.3333722465932,None,0.9383220125711478,606.8745887648865,None,"[93. 93. 87. 87. 87. 87. 93. 87. 93. 93. 93. 93. 93. 93. 93. 93. 87. 93.
 87. 93. 87. 93. 87. 87. 93. 93. 93. 93. 93. 87. 93. 93. 87. 87.]",607.8987247141322,None,l,1,0.5753523317644067,607.8987247141322,None,None,None,,,,,,,08_AB,24,M,8,2021_Oct_30_1308,Partial repeat,2021.2.3,120.10639158397129,
3,5,0,1,1,2,3,2,3,1,1,0,0,1,0,0,0,86,86,86,1,0,1,0,,,,,,,,,0.918614732032816,608.5481663836899,None,"[87. 87. 87. 93. 93. 93. 93. 93. 87. 93. 93. 93. 93. 93. 93. 93. 87. 87.
 87. 93. 93. 93. 87. 93. 93. 93. 93. 87. 93. 87. 87. 93. 93. 87.]",609.5473126438801,None,l,1,0.5263299632679264,609.5473126438801,None,None,None,,,,,,,08_AB,24,M,8,2021_Oct_30_1308,Partial repeat,2021.2.3,120.10639158397129,
3,5,0,1,1,2,3,2,3,1,1,0,0,1,0,0,0,86,86,86,,,,,,,,,,,,,,,,,,,,,,,,,,,,,,,,08_AB,24,M,8,2021_Oct_30_1308,Partial repeat,2021.2.3,120.10639158397129,
5,4,0,1,1,3,2,3,3,1,1,0,1,1,0,0,0,87,87,87,0,0,0,0,,,,,,,610.0884977322339,None,0.9394667253133053,610.6630399294945,None,"[93. 87. 87. 93. 87. 93. 87. 93. 87. 87. 93. 87. 93. 87. 93. 93. 87. 93.
 93. 93. 93. 93. 93. 87. 87. 87. 93. 93. 93. 93. 93. 93. 93. 87.]",611.6871284131148,None,l,1,0.48332482479327155,611.6871284131148,None,None,None,,,,,,,08_AB,24,M,8,2021_Oct_30_1308,Partial repeat,2021.2.3,120.10639158397129,
5,4,0,1,1,3,2,3,3,1,1,0,1,1,0,0,0,87,87,87,1,0,1,0,,,,,,,,,0.8121497974315859,612.228352307824,None,"[87. 87. 87. 87. 87. 93. 93. 87. 93. 87. 93. 87. 87. 93. 87. 87. 93. 93.
 87. 93. 87. 93. 93. 87. 87. 87. 93. 87. 93. 93. 87. 93. 87. 93.]",613.1275725245878,None,l,1,0.4660258497297036,613.1275725245878,None,None,None,,,,,,,08_AB,24,M,8,2021_Oct_30_1308,Partial repeat,2021.2.3,120.10639158397129,
5,4,0,1,1,3,2,3,3,1,1,0,1,1,0,0,0,87,87,87,,,,,,,,,,,,,,,,,,,,,,,,,,,,,,,,08_AB,24,M,8,2021_Oct_30_1308,Partial repeat,2021.2.3,120.10639158397129,
1,6,0,1,1,3,2,3,2,1,1,0,0,1,0,0,0,88,88,88,0,0,0,0,,,,,,,613.6105387797361,None,0.7897229630834501,614.1849959878718,None,"[93. 93. 87. 87. 87. 87. 87. 93. 93. 87. 87. 93. 87. 93. 87. 87. 87. 93.
 87. 93. 87. 87. 93. 93. 87. 93. 93. 87. 87. 87. 87. 93. 87. 87.]",615.0509331805879,None,l,1,0.6387102809412681,615.0509331805879,None,None,None,,,,,,,08_AB,24,M,8,2021_Oct_30_1308,Partial repeat,2021.2.3,120.10639158397129,
1,6,0,1,1,3,2,3,2,1,1,0,0,1,0,0,0,88,88,88,1,0,1,0,,,,,,,,,0.7025986785408602,615.7586591089421,None,"[93. 93. 93. 93. 87. 87. 93. 93. 87. 93. 87. 87. 93. 87. 87. 87. 87. 93.
 87. 87. 93. 93. 93. 93. 93. 93. 87. 93. 87. 93. 93. 93. 87. 87.]",616.5496448737449,None,l,1,0.5800289786129724,616.5496448737449,None,None,None,,,,,,,08_AB,24,M,8,2021_Oct_30_1308,Partial repeat,2021.2.3,120.10639158397129,
1,6,0,1,1,3,2,3,2,1,1,0,0,1,0,0,0,88,88,88,,,,,,,,,,,,,,,,,,,,,,,,,,,,,,,,08_AB,24,M,8,2021_Oct_30_1308,Partial repeat,2021.2.3,120.10639158397129,
3,6,0,1,1,2,2,3,2,0,0,1,0,1,0,0,0,89,89,89,0,0,0,0,,,,,,,617.1491353879965,None,0.883649448027537,617.8818429875637,None,"[87. 93. 93. 87. 93. 93. 87. 87. 87. 87. 93. 87. 87. 87. 87. 87. 87. 93.
 87. 87. 93. 87. 87. 87. 93. 87. 87. 87. 87. 87. 93. 93. 87. 93.]",618.8560136700999,None,s,1,0.6258612081564934,618.8560136700999,None,None,None,,,,,,,08_AB,24,M,8,2021_Oct_30_1308,Partial repeat,2021.2.3,120.10639158397129,
3,6,0,1,1,2,2,3,2,0,0,1,0,1,0,0,0,89,89,89,1,0,1,0,,,,,,,,,0.9426459729925886,619.5554193235121,None,"[93. 93. 93. 87. 93. 87. 87. 87. 87. 93. 93. 93. 93. 93. 87. 87. 93. 93.
 87. 87. 87. 93. 87. 87. 93. 93. 87. 87. 87. 87. 87. 87. 93. 93.]",620.5878348170618,None,l,0,0.4298560818688202,620.5878348170618,None,621.0374850146536,None,,,,,,,08_AB,24,M,8,2021_Oct_30_1308,Partial repeat,2021.2.3,120.10639158397129,
3,6,0,1,1,2,2,3,2,0,0,1,0,1,0,0,0,89,89,89,,,,,,,,,,,,,,,,,,,,,,,,,,,,,,,,08_AB,24,M,8,2021_Oct_30_1308,Partial repeat,2021.2.3,120.10639158397129,
6,7,0,1,1,2,3,2,2,1,1,0,1,1,0,0,0,90,90,90,0,0,0,0,,,,,,,621.5370520511888,None,0.7818479758137051,622.2947291348491,None,"[87. 87. 93. 93. 87. 93. 93. 93. 93. 87. 87. 93. 87. 93. 93. 87. 87. 93.
 87. 93. 93. 93. 93. 87. 93. 87. 87. 93. 87. 87. 87. 87. 93. 87.]",623.1606522161637,None,l,1,0.6411284620717197,623.1606522161637,None,None,None,,,,,,,08_AB,24,M,8,2021_Oct_30_1308,Partial repeat,2021.2.3,120.10639158397129,
6,7,0,1,1,2,3,2,2,1,1,0,1,1,0,0,0,90,90,90,1,0,1,0,,,,,,,,,0.9109947719704667,623.8683919352052,None,"[87. 93. 93. 93. 87. 93. 87. 93. 87. 93. 93. 87. 87. 87. 93. 87. 87. 87.
 87. 87. 87. 93. 87. 93. 87. 87. 87. 93. 93. 87. 93. 87. 93. 93.]",624.8675304982671,None,l,1,0.5819102850455238,624.8675304982671,None,None,None,,,,,,,08_AB,24,M,8,2021_Oct_30_1308,Partial repeat,2021.2.3,120.10639158397129,
6,7,0,1,1,2,3,2,2,1,1,0,1,1,0,0,0,90,90,90,,,,,,,,,,,,,,,,,,,,,,,,,,,,,,,,08_AB,24,M,8,2021_Oct_30_1308,Partial repeat,2021.2.3,120.10639158397129,
1,2,0,1,1,2,2,2,3,1,1,1,0,1,0,0,0,91,91,91,0,0,0,0,,,,,,,625.4753618131354,None,0.7823918591850552,626.0415244034248,None,"[93. 93. 93. 93. 87. 87. 87. 93. 93. 93. 93. 87. 93. 93. 87. 93. 93. 87.
 93. 93. 93. 93. 87. 93. 87. 93. 87. 87. 87. 93. 93. 93. 87. 93.]",626.8991278512249,None,l,1,0.5496865782761233,626.8991278512249,None,None,None,,,,,,,08_AB,24,M,8,2021_Oct_30_1308,Partial repeat,2021.2.3,120.10639158397129,
1,2,0,1,1,2,2,2,3,1,1,1,0,1,0,0,0,91,91,91,1,0,1,0,,,,,,,,,0.940457134055866,627.515273026761,None,"[93. 87. 87. 87. 87. 93. 87. 87. 87. 93. 93. 87. 87. 93. 87. 87. 93. 87.
 93. 93. 87. 93. 87. 87. 93. 93. 87. 93. 93. 93. 93. 87. 87. 87.]",628.5393971096,None,l,1,0.5414615552972464,628.5393971096,None,None,None,,,,,,,08_AB,24,M,8,2021_Oct_30_1308,Partial repeat,2021.2.3,120.10639158397129,
1,2,0,1,1,2,2,2,3,1,1,1,0,1,0,0,0,91,91,91,,,,,,,,,,,,,,,,,,,,,,,,,,,,,,,,08_AB,24,M,8,2021_Oct_30_1308,Partial repeat,2021.2.3,120.10639158397129,
7,2,0,1,1,2,2,2,2,0,1,1,1,0,0,0,0,92,92,92,0,0,0,0,,,,,,,629.0972554606315,None,0.7451618307488066,629.7966582276204,None,"[93. 93. 93. 87. 87. 87. 87. 87. 87. 93. 87. 87. 87. 87. 93. 87. 87. 87.
 87. 93. 87. 93. 87. 87. 93. 87. 87. 93. 93. 87. 93. 87. 93. 93.]",630.6209545978472,None,s,1,0.9399588834321548,630.6209545978472,None,None,None,,,,,,,08_AB,24,M,8,2021_Oct_30_1308,Partial repeat,2021.2.3,120.10639158397129,
7,2,0,1,1,2,2,2,2,0,1,1,1,0,0,0,0,92,92,92,1,0,1,0,,,,,,,,,0.7837561551973116,631.6284265851109,None,"[87. 93. 87. 87. 87. 93. 87. 87. 87. 87. 87. 93. 93. 87. 87. 87. 93. 87.
 87. 93. 93. 93. 87. 93. 87. 93. 93. 87. 87. 93. 93. 93. 87. 87.]",632.5026776384957,None,l,1,0.6262540824118332,632.5026776384957,None,None,None,,,,,,,08_AB,24,M,8,2021_Oct_30_1308,Partial repeat,2021.2.3,120.10639158397129,
7,2,0,1,1,2,2,2,2,0,1,1,1,0,0,0,0,92,92,92,,,,,,,,,,,,,,,,,,,,,,,,,,,,,,,,08_AB,24,M,8,2021_Oct_30_1308,Partial repeat,2021.2.3,120.10639158397129,
2,2,0,1,1,2,2,2,2,1,1,1,1,1,0,0,0,93,93,93,0,0,0,0,,,,,,,633.1437781867235,None,0.8510584086783216,633.8015798997194,None,"[93. 87. 87. 93. 93. 93. 93. 87. 93. 87. 93. 93. 93. 87. 93. 93. 93. 93.
 87. 87. 87. 87. 93. 93. 93. 93. 93. 93. 93. 87. 87. 87. 87. 93.]",634.7341075147706,None,l,1,0.5548407677906653,634.7341075147706,None,None,None,,,,,,,08_AB,24,M,8,2021_Oct_30_1308,Partial repeat,2021.2.3,120.10639158397129,
2,2,0,1,1,2,2,2,2,1,1,1,1,1,0,0,0,93,93,93,1,0,1,0,,,,,,,,,0.8964775333249699,635.3585655888337,None,"[87. 87. 93. 93. 93. 87. 93. 87. 93. 87. 93. 87. 93. 87. 87. 93. 87. 87.
 87. 87. 87. 93. 87. 87. 87. 93. 93. 87. 87. 93. 87. 87. 87. 87.]",636.3327276121008,None,l,1,0.4920059026217132,636.3327276121008,None,None,None,,,,,,,08_AB,24,M,8,2021_Oct_30_1308,Partial repeat,2021.2.3,120.10639158397129,
2,2,0,1,1,2,2,2,2,1,1,1,1,1,0,0,0,93,93,93,,,,,,,,,,,,,,,,,,,,,,,,,,,,,,,,08_AB,24,M,8,2021_Oct_30_1308,Partial repeat,2021.2.3,120.10639158397129,
7,4,0,1,1,2,3,3,2,0,0,0,0,1,0,0,0,94,94,94,0,0,0,0,,,,,,,636.8489425749331,None,0.9748239947201908,637.4900636488364,None,"[93. 87. 87. 93. 87. 87. 87. 87. 87. 93. 87. 87. 87. 87. 87. 87. 93. 87.
 87. 87. 93. 87. 93. 93. 93. 87. 93. 87. 87. 93. 87. 93. 87. 93.]",638.5391719685986,None,s,1,0.8618381629548821,638.5391719685986,None,None,None,,,,,,,08_AB,24,M,8,2021_Oct_30_1308,Partial repeat,2021.2.3,120.10639158397129,
7,4,0,1,1,2,3,3,2,0,0,0,0,1,0,0,0,94,94,94,1,0,1,0,,,,,,,,,0.9882361928145298,639.463389571546,None,"[87. 93. 87. 93. 93. 87. 87. 87. 87. 93. 93. 87. 87. 93. 87. 93. 87. 87.
 93. 93. 87. 87. 93. 87. 93. 87. 93. 93. 93. 87. 87. 87. 87. 87.]",640.529152873306,None,s,1,0.7429111169776661,640.529152873306,None,None,None,,,,,,,08_AB,24,M,8,2021_Oct_30_1308,Partial repeat,2021.2.3,120.10639158397129,
7,4,0,1,1,2,3,3,2,0,0,0,0,1,0,0,0,94,94,94,,,,,,,,,,,,,,,,,,,,,,,,,,,,,,,,08_AB,24,M,8,2021_Oct_30_1308,Partial repeat,2021.2.3,120.10639158397129,
4,4,0,1,1,2,3,3,3,0,1,0,1,0,0,0,0,95,95,95,0,0,0,0,,,,,,,641.2951556840408,None,0.9752197949921062,642.0195388393886,None,"[93. 93. 87. 87. 87. 87. 87. 87. 87. 93. 87. 93. 87. 93. 93. 93. 87. 87.
 87. 87. 87. 93. 87. 93. 93. 93. 93. 87. 93. 87. 93. 87. 93. 87.]",643.0852828983279,None,s,1,0.6828430487066726,643.0852828983279,None,None,None,,,,,,,08_AB,24,M,8,2021_Oct_30_1308,Partial repeat,2021.2.3,120.10639158397129,
4,4,0,1,1,2,3,3,3,0,1,0,1,0,0,0,0,95,95,95,1,0,1,0,,,,,,,,,0.9933795518649221,643.8263149421145,None,"[87. 87. 93. 93. 93. 87. 87. 93. 87. 87. 87. 87. 93. 87. 93. 93. 87. 93.
 87. 93. 93. 87. 87. 93. 93. 87. 93. 87. 93. 93. 87. 93. 93. 93.]",644.908725528745,None,l,1,0.6193943375592426,644.908725528745,None,None,None,,,,,,,08_AB,24,M,8,2021_Oct_30_1308,Partial repeat,2021.2.3,120.10639158397129,
4,4,0,1,1,2,3,3,3,0,1,0,1,0,0,0,0,95,95,95,,,,,,,,,,,,,,,,,,,,,,,,,,,,,,,,08_AB,24,M,8,2021_Oct_30_1308,Partial repeat,2021.2.3,120.10639158397129,
8,8,0,1,1,3,2,3,2,1,0,0,0,0,0,0,0,96,96,96,0,0,0,0,,,,,,,645.549857186199,None,0.923100658335169,646.04108278069,None,"[87. 93. 87. 87. 93. 93. 93. 87. 93. 87. 87. 87. 93. 87. 87. 87. 87. 93.
 93. 87. 93. 93. 93. 87. 93. 93. 93. 87. 87. 93. 87. 93. 93. 87.]",647.0485762557701,None,l,1,0.5595828402301777,647.0485762557701,None,None,None,,,,,,,08_AB,24,M,8,2021_Oct_30_1308,Partial repeat,2021.2.3,120.10639158397129,
8,8,0,1,1,3,2,3,2,1,0,0,0,0,0,0,0,96,96,96,1,0,1,0,,,,,,,,,0.9487139360808654,647.673021822,None,"[93. 87. 87. 87. 93. 93. 93. 93. 93. 93. 87. 93. 87. 87. 87. 93. 93. 87.
 87. 93. 93. 93. 87. 87. 93. 93. 87. 87. 93. 87. 87. 93. 87. 87.]",648.7054879883108,None,s,1,0.5666343718630742,648.7054879883108,None,None,None,,,,,,,08_AB,24,M,8,2021_Oct_30_1308,Partial repeat,2021.2.3,120.10639158397129,
8,8,0,1,1,3,2,3,2,1,0,0,0,0,0,0,0,96,96,96,,,,,,,,,,,,,,,,,,,,,,,,,,,,,,,,08_AB,24,M,8,2021_Oct_30_1308,Partial repeat,2021.2.3,120.10639158397129,
6,3,0,1,1,2,2,2,2,1,0,1,1,0,0,0,0,97,97,97,0,0,0,0,,,,,,,649.2883212755678,None,0.7854816236335241,649.9294404251896,None,"[87. 87. 93. 93. 87. 93. 87. 87. 93. 87. 93. 87. 87. 87. 87. 93. 87. 93.
 93. 93. 87. 87. 93. 93. 87. 93. 93. 87. 87. 93. 87. 93. 87. 87.]",650.795371845059,None,l,1,0.4941412142889021,650.795371845059,None,None,None,,,,,,,08_AB,24,M,8,2021_Oct_30_1308,Partial repeat,2021.2.3,120.10639158397129,
6,3,0,1,1,2,2,2,2,1,0,1,1,0,0,0,0,97,97,97,1,0,1,0,,,,,,,,,0.8935631365983668,651.3532109532698,None,"[87. 87. 93. 93. 87. 93. 93. 93. 87. 93. 93. 93. 93. 93. 93. 87. 87. 87.
 87. 87. 93. 93. 87. 87. 87. 93. 87. 93. 87. 93. 87. 93. 93. 93.]",652.3274028029091,None,s,1,0.6888221138005974,652.3274028029091,None,None,None,,,,,,,08_AB,24,M,8,2021_Oct_30_1308,Partial repeat,2021.2.3,120.10639158397129,
6,3,0,1,1,2,2,2,2,1,0,1,1,0,0,0,0,97,97,97,,,,,,,,,,,,,,,,,,,,,,,,,,,,,,,,08_AB,24,M,8,2021_Oct_30_1308,Partial repeat,2021.2.3,120.10639158397129,
7,1,0,1,1,3,2,2,2,0,0,0,1,1,0,0,0,98,98,98,0,0,0,0,,,,,,,653.0351027534552,None,0.982292247899439,653.6845598172704,None,"[93. 93. 87. 93. 87. 87. 87. 93. 93. 87. 93. 87. 93. 87. 87. 93. 93. 87.
 93. 93. 93. 93. 87. 87. 93. 93. 87. 93. 87. 93. 93. 87. 93. 93.]",654.7503070833463,None,s,1,0.8099665741456192,654.7503070833463,None,None,None,,,,,,,08_AB,24,M,8,2021_Oct_30_1308,Partial repeat,2021.2.3,120.10639158397129,
7,1,0,1,1,3,2,2,2,0,0,0,1,1,0,0,0,98,98,98,1,0,1,0,,,,,,,,,0.9991114501102569,655.6328992580611,None,"[93. 93. 87. 87. 87. 93. 87. 93. 93. 87. 87. 87. 93. 93. 87. 87. 93. 93.
 87. 93. 93. 87. 87. 87. 87. 87. 87. 87. 87. 87. 87. 87. 87. 87.]",656.7069828347621,None,s,1,0.5964228996772363,656.7069828347621,None,None,None,,,,,,,08_AB,24,M,8,2021_Oct_30_1308,Partial repeat,2021.2.3,120.10639158397129,
7,1,0,1,1,3,2,2,2,0,0,0,1,1,0,0,0,98,98,98,,,,,,,,,,,,,,,,,,,,,,,,,,,,,,,,08_AB,24,M,8,2021_Oct_30_1308,Partial repeat,2021.2.3,120.10639158397129,
3,1,0,1,1,2,2,3,2,1,1,1,0,1,0,0,0,99,99,99,0,0,0,0,,,,,,,657.3147721361393,None,0.7322690409729741,659.3630443553429,None,"[87. 93. 87. 93. 87. 87. 93. 87. 93. 93. 87. 87. 93. 87. 87. 93. 87. 87.
 87. 87. 93. 87. 93. 93. 93. 87. 93. 93. 93. 87. 87. 87. 87. 93.]",660.1706834985762,None,l,1,0.4936928565666676,660.1706834985762,None,None,None,,,,,,,08_AB,24,M,8,2021_Oct_30_1308,Partial repeat,2021.2.3,120.10639158397129,
3,1,0,1,1,2,2,3,2,1,1,1,0,1,0,0,0,99,99,99,1,0,1,0,,,,,,,,,0.7967079170329694,660.7368711045319,None,"[93. 87. 93. 93. 93. 93. 87. 93. 93. 87. 93. 87. 93. 87. 87. 93. 87. 93.
 93. 93. 87. 87. 93. 87. 87. 87. 93. 87. 93. 87. 93. 93. 87. 93.]",661.611128572189,None,s,0,0.4282422506430521,661.611128572189,None,662.0607178341825,None,,,,,,,08_AB,24,M,8,2021_Oct_30_1308,Partial repeat,2021.2.3,120.10639158397129,
3,1,0,1,1,2,2,3,2,1,1,1,0,1,0,0,0,99,99,99,,,,,,,,,,,,,,,,,,,,,,,,,,,,,,,,08_AB,24,M,8,2021_Oct_30_1308,Partial repeat,2021.2.3,120.10639158397129,
5,5,0,1,1,3,3,2,3,1,1,1,0,1,0,0,0,100,100,100,0,0,0,0,,,,,,,662.5602864742859,None,0.7846558660868871,663.1431653028849,None,"[87. 87. 87. 93. 93. 93. 93. 87. 87. 87. 87. 93. 93. 93. 93. 87. 87. 87.
 93. 87. 87. 93. 93. 87. 87. 87. 93. 93. 93. 87. 93. 93. 93. 93.]",664.009090308482,None,l,1,0.6378796325161602,664.009090308482,None,None,None,,,,,,,08_AB,24,M,8,2021_Oct_30_1308,Partial repeat,2021.2.3,120.10639158397129,
5,5,0,1,1,3,3,2,3,1,1,1,0,1,0,0,0,100,100,100,1,0,1,0,,,,,,,,,0.7875315302073985,664.7167947490188,None,"[93. 93. 93. 93. 93. 87. 87. 87. 87. 87. 87. 87. 87. 93. 93. 93. 93. 87.
 93. 93. 93. 93. 93. 93. 93. 93. 93. 93. 87. 93. 87. 87. 93. 93.]",665.582711095346,None,l,1,0.5207168324805025,665.582711095346,None,None,None,,,,,,,08_AB,24,M,8,2021_Oct_30_1308,Partial repeat,2021.2.3,120.10639158397129,
5,5,0,1,1,3,3,2,3,1,1,1,0,1,0,0,0,100,100,100,,,,,,,,,,,,,,,,,,,,,,,,,,,,,,,,08_AB,24,M,8,2021_Oct_30_1308,Partial repeat,2021.2.3,120.10639158397129,
4,2,0,1,1,3,3,2,2,1,0,1,1,0,0,0,0,101,101,101,0,0,0,0,,,,,,,666.1239237650761,None,0.9960914117580691,666.881607583724,None,"[93. 87. 93. 93. 87. 87. 87. 93. 87. 93. 87. 87. 87. 93. 87. 87. 93. 93.
 93. 87. 87. 93. 93. 93. 87. 87. 93. 93. 93. 93. 87. 93. 93. 87.]",667.9556994989807,None,l,1,0.5157990089464874,667.9556994989807,None,None,None,,,,,,,08_AB,24,M,8,2021_Oct_30_1308,Partial repeat,2021.2.3,120.10639158397129,
4,2,0,1,1,3,3,2,2,1,0,1,1,0,0,0,0,101,101,101,1,0,1,0,,,,,,,,,0.8058464514811374,668.5385247683962,None,"[93. 87. 87. 93. 93. 87. 93. 93. 93. 93. 93. 93. 87. 87. 93. 87. 87. 87.
