prime_tar_pos,probe_tar_pos,dimension,tar_color,tar_shape,prime_dist_color,probe_dist_color,prime_dist_shape,probe_dist_shape,prime_tar_ori,probe_tar_ori,col_rep,shape_rep,resp_rep,pos_fixed,sparse,MainLoop.thisRepN,MainLoop.thisTrialN,MainLoop.thisN,MainLoop.thisIndex,PrimeProbe.thisRepN,PrimeProbe.thisTrialN,PrimeProbe.thisN,PrimeProbe.thisIndex,Instruction.started,Instruction.stopped,instruction_key.keys,instruction_key.rt,instruction_key.started,instruction_key.stopped,PairStartText.started,PairStartText.stopped,fixdur,FixCross.started,FixCross.stopped,dist_ori,SearchFixCross.started,SearchFixCross.stopped,key_resp.keys,key_resp.corr,key_resp.rt,key_resp.started,key_resp.stopped,feedback_text.started,feedback_text.stopped,participant,age,gender,group,date,expName,psychopyVersion,frameRate,
,,,,,,,,,,,,,,,,,,,,,,,,76.03946285590428,None,space,2.0725317448905116,76.03946285590428,None,,,,,,,,,,,,,,,,09_BC,28,F,9,2021_Oct_30_1521,Partial repeat,2021.2.3,120.09945228074372,
6,5,0,1,1,3,2,3,2,0,1,0,0,0,0,0,0,0,0,0,0,0,0,0,,,,,,,125.1231476379744,None,0.7314505015422826,152.0411475648525,None,"[93. 93. 93. 93. 87. 93. 87. 87. 93. 87. 87. 87. 93. 93. 93. 87. 93. 87.
 93. 87. 93. 87. 87. 93. 93. 93. 87. 93. 87. 87. 87. 93. 87. 93.]",152.85711307658676,None,s,1,0.7711211819932942,152.85711307658676,None,None,None,09_BC,28,F,9,2021_Oct_30_1521,Partial repeat,2021.2.3,120.09945228074372,
6,5,0,1,1,3,2,3,2,0,1,0,0,0,0,0,0,0,0,0,1,0,1,0,,,,,,,,,0.8319096959733996,153.69804871384076,None,"[87. 87. 87. 87. 87. 93. 87. 87. 87. 93. 93. 87. 93. 87. 87. 87. 87. 93.
 93. 87. 87. 93. 93. 87. 87. 93. 93. 93. 87. 93. 93. 87. 87. 87.]",154.6139547011171,None,l,1,0.6613601329263474,154.6139547011171,None,None,None,09_BC,28,F,9,2021_Oct_30_1521,Partial repeat,2021.2.3,120.09945228074372,
6,5,0,1,1,3,2,3,2,0,1,0,0,0,0,0,0,0,0,0,,,,,,,,,,,,,,,,,,,,,,,,,,09_BC,28,F,9,2021_Oct_30_1521,Partial repeat,2021.2.3,120.09945228074372,
4,3,0,1,1,3,3,2,3,0,1,1,0,0,0,0,0,1,1,1,0,0,0,0,,,,,,,155.2966842054284,None,0.9585907468877501,156.029389880714,None,"[93. 87. 93. 87. 93. 87. 87. 93. 93. 87. 87. 87. 93. 87. 87. 93. 87. 93.
 93. 93. 87. 87. 93. 93. 93. 87. 93. 87. 87. 87. 93. 93. 87. 93.]",157.07018305695237,None,s,1,0.6691210832141223,157.07018305695237,None,None,None,09_BC,28,F,9,2021_Oct_30_1521,Partial repeat,2021.2.3,120.09945228074372,
4,3,0,1,1,3,3,2,3,0,1,1,0,0,0,0,0,1,1,1,1,0,1,0,,,,,,,,,0.8138773338692569,157.8028726965531,None,"[93. 87. 87. 87. 93. 93. 93. 87. 87. 87. 93. 93. 87. 87. 93. 87. 87. 93.
 87. 87. 87. 87. 87. 93. 93. 87. 87. 93. 87. 87. 87. 93. 93. 93.]",158.70210830757424,None,l,1,0.6372386157963774,158.70210830757424,None,None,None,09_BC,28,F,9,2021_Oct_30_1521,Partial repeat,2021.2.3,120.09945228074372,
4,3,0,1,1,3,3,2,3,0,1,1,0,0,0,0,0,1,1,1,,,,,,,,,,,,,,,,,,,,,,,,,,09_BC,28,F,9,2021_Oct_30_1521,Partial repeat,2021.2.3,120.09945228074372,
3,7,0,1,1,2,2,3,2,0,1,1,0,0,0,0,0,2,2,2,0,0,0,0,,,,,,,159.35988789132716,None,0.9361333291258984,160.42564157167544,None,"[87. 93. 87. 87. 93. 93. 87. 87. 87. 87. 93. 93. 93. 87. 93. 93. 87. 93.
 93. 93. 93. 87. 87. 87. 87. 93. 87. 87. 93. 87. 87. 87. 87. 87.]",161.44976533380213,None,s,1,0.785620326649223,161.44976533380213,None,None,None,09_BC,28,F,9,2021_Oct_30_1521,Partial repeat,2021.2.3,120.09945228074372,
3,7,0,1,1,2,2,3,2,0,1,1,0,0,0,0,0,2,2,2,1,0,1,0,,,,,,,,,0.8728523057345925,162.30735883947818,None,"[93. 93. 93. 87. 93. 93. 93. 87. 93. 93. 87. 87. 87. 87. 93. 93. 87. 87.
 93. 87. 87. 87. 87. 87. 93. 87. 87. 87. 93. 87. 87. 93. 87. 93.]",163.25655234079204,None,l,1,0.6593627281417866,163.25655234079204,None,None,None,09_BC,28,F,9,2021_Oct_30_1521,Partial repeat,2021.2.3,120.09945228074372,
3,7,0,1,1,2,2,3,2,0,1,1,0,0,0,0,0,2,2,2,,,,,,,,,,,,,,,,,,,,,,,,,,09_BC,28,F,9,2021_Oct_30_1521,Partial repeat,2021.2.3,120.09945228074372,
2,5,0,1,1,2,2,3,2,0,0,1,0,1,0,0,0,3,3,3,0,0,0,0,,,,,,,163.93931872717621,None,0.7101170999384685,164.62204374149587,None,"[87. 87. 93. 87. 93. 93. 93. 87. 87. 93. 87. 87. 93. 93. 87. 93. 93. 93.
 93. 93. 93. 87. 93. 93. 87. 93. 87. 87. 93. 93. 93. 93. 87. 87.]",165.41304361770017,None,s,1,0.6464107062656694,165.41304361770017,None,None,None,09_BC,28,F,9,2021_Oct_30_1521,Partial repeat,2021.2.3,120.09945228074372,
2,5,0,1,1,2,2,3,2,0,0,1,0,1,0,0,0,3,3,3,1,0,1,0,,,,,,,,,0.8984510124454099,166.12077179105108,None,"[93. 87. 93. 93. 87. 93. 93. 87. 87. 93. 87. 93. 87. 87. 93. 87. 87. 87.
 87. 87. 93. 93. 87. 87. 87. 93. 93. 87. 93. 87. 87. 93. 87. 87.]",167.10326338995583,None,s,1,0.6362113698851317,167.10326338995583,None,None,None,09_BC,28,F,9,2021_Oct_30_1521,Partial repeat,2021.2.3,120.09945228074372,
2,5,0,1,1,2,2,3,2,0,0,1,0,1,0,0,0,3,3,3,,,,,,,,,,,,,,,,,,,,,,,,,,09_BC,28,F,9,2021_Oct_30_1521,Partial repeat,2021.2.3,120.09945228074372,
7,2,0,1,1,2,2,2,2,0,1,1,1,0,0,0,0,4,4,4,0,0,0,0,,,,,,,167.76102982444718,None,0.9318368025835119,168.20232222359664,None,"[93. 87. 87. 93. 87. 87. 87. 93. 93. 93. 87. 93. 87. 87. 93. 93. 87. 93.
 93. 87. 93. 87. 87. 93. 87. 87. 87. 93. 87. 87. 93. 93. 87. 87.]",169.21812122078882,None,s,1,0.5693698287414009,169.21812122078882,None,None,None,09_BC,28,F,9,2021_Oct_30_1521,Partial repeat,2021.2.3,120.09945228074372,
7,2,0,1,1,2,2,2,2,0,1,1,1,0,0,0,0,4,4,4,1,0,1,0,,,,,,,,,0.7506117822706507,169.8509184919003,None,"[93. 87. 87. 93. 87. 87. 93. 87. 87. 93. 87. 93. 87. 93. 87. 93. 87. 87.
 87. 93. 87. 93. 87. 93. 93. 87. 93. 87. 93. 87. 93. 93. 87. 87.]",170.68354090991488,None,l,1,0.7519761790008488,170.68354090991488,None,None,None,09_BC,28,F,9,2021_Oct_30_1521,Partial repeat,2021.2.3,120.09945228074372,
7,2,0,1,1,2,2,2,2,0,1,1,1,0,0,0,0,4,4,4,,,,,,,,,,,,,,,,,,,,,,,,,,09_BC,28,F,9,2021_Oct_30_1521,Partial repeat,2021.2.3,120.09945228074372,
6,7,0,1,1,3,3,2,3,1,0,1,0,0,0,0,0,5,5,5,0,0,0,0,,,,,,,171.45787650342572,None,0.7396847079127769,172.05736477268147,None,"[93. 93. 93. 87. 93. 87. 93. 87. 93. 87. 87. 93. 93. 87. 93. 87. 87. 93.
 87. 93. 87. 93. 93. 87. 93. 87. 87. 93. 93. 87. 87. 93. 87. 87.]",172.881653125065,None,l,1,0.6809002551690355,172.881653125065,None,None,None,09_BC,28,F,9,2021_Oct_30_1521,Partial repeat,2021.2.3,120.09945228074372,
6,7,0,1,1,3,3,2,3,1,0,1,0,0,0,0,0,5,5,5,1,0,1,0,,,,,,,,,0.7369124398975815,173.62269446954815,None,"[93. 93. 93. 87. 93. 87. 87. 87. 87. 93. 87. 87. 87. 93. 93. 93. 93. 87.
 93. 93. 93. 87. 87. 93. 93. 87. 93. 87. 87. 87. 93. 87. 87. 93.]",174.43866479198732,None,s,1,0.6279289391586644,174.43866479198732,None,None,None,09_BC,28,F,9,2021_Oct_30_1521,Partial repeat,2021.2.3,120.09945228074372,
6,7,0,1,1,3,3,2,3,1,0,1,0,0,0,0,0,5,5,5,,,,,,,,,,,,,,,,,,,,,,,,,,09_BC,28,F,9,2021_Oct_30_1521,Partial repeat,2021.2.3,120.09945228074372,
7,6,0,1,1,2,3,3,2,1,0,0,0,0,0,0,0,6,6,6,0,0,0,0,,,,,,,175.08811640367094,None,0.8999527625161325,175.62098185851028,None,"[87. 87. 87. 93. 87. 93. 93. 87. 87. 87. 87. 93. 93. 93. 93. 93. 87. 93.
 87. 93. 87. 93. 87. 93. 93. 93. 93. 87. 93. 87. 87. 87. 93. 93.]",176.59515767246558,None,l,1,0.7758145059542585,176.59515767246558,None,None,None,09_BC,28,F,9,2021_Oct_30_1521,Partial repeat,2021.2.3,120.09945228074372,
7,6,0,1,1,2,3,3,2,1,0,0,0,0,0,0,0,6,6,6,1,0,1,0,,,,,,,,,0.8039918664266459,177.44442897891713,None,"[87. 93. 87. 87. 93. 93. 93. 93. 87. 93. 87. 93. 87. 93. 87. 87. 93. 93.
 93. 93. 87. 87. 87. 87. 93. 87. 93. 93. 87. 93. 87. 87. 87. 87.]",178.33533020359573,None,s,1,0.8113146236555622,178.33533020359573,None,None,None,09_BC,28,F,9,2021_Oct_30_1521,Partial repeat,2021.2.3,120.09945228074372,
7,6,0,1,1,2,3,3,2,1,0,0,0,0,0,0,0,6,6,6,,,,,,,,,,,,,,,,,,,,,,,,,,09_BC,28,F,9,2021_Oct_30_1521,Partial repeat,2021.2.3,120.09945228074372,
1,4,0,1,1,2,2,2,2,1,1,1,1,1,0,0,0,7,7,7,0,0,0,0,,,,,,,179.16795454589192,None,0.8411461984820412,179.59259356661096,None,"[87. 87. 87. 87. 87. 87. 93. 87. 93. 87. 87. 93. 87. 93. 87. 87. 87. 87.
 93. 93. 87. 93. 93. 93. 93. 87. 87. 87. 87. 93. 93. 87. 93. 87.]",180.5168025102903,None,l,1,0.7259329455137049,180.5168025102903,None,None,None,09_BC,28,F,9,2021_Oct_30_1521,Partial repeat,2021.2.3,120.09945228074372,
1,4,0,1,1,2,2,2,2,1,1,1,1,1,0,0,0,7,7,7,1,0,1,0,,,,,,,,,0.9677931808958803,181.30779052008802,None,"[87. 87. 93. 87. 93. 93. 93. 87. 87. 87. 93. 87. 87. 93. 93. 93. 93. 87.
 87. 93. 93. 87. 93. 87. 87. 93. 87. 87. 87. 93. 93. 93. 93. 93.]",182.35689819842264,None,l,1,0.61382844160471,182.35689819842264,None,None,None,09_BC,28,F,9,2021_Oct_30_1521,Partial repeat,2021.2.3,120.09945228074372,
1,4,0,1,1,2,2,2,2,1,1,1,1,1,0,0,0,7,7,7,,,,,,,,,,,,,,,,,,,,,,,,,,09_BC,28,F,9,2021_Oct_30_1521,Partial repeat,2021.2.3,120.09945228074372,
4,7,0,1,1,3,3,3,3,1,0,1,1,0,0,0,0,8,8,8,0,0,0,0,,,,,,,182.9896877724059,None,0.7891527890691592,183.51423423515917,None,"[93. 87. 87. 93. 93. 87. 93. 93. 87. 87. 93. 87. 87. 93. 87. 93. 87. 93.
 93. 93. 93. 87. 93. 87. 87. 87. 93. 87. 93. 93. 87. 93. 87. 87.]",184.3801704657326,None,l,1,0.5902033892471081,184.3801704657326,None,None,None,09_BC,28,F,9,2021_Oct_30_1521,Partial repeat,2021.2.3,120.09945228074372,
4,7,0,1,1,3,3,3,3,1,0,1,1,0,0,0,0,8,8,8,1,0,1,0,,,,,,,,,0.9532518771890665,185.03793337237403,None,"[93. 87. 93. 93. 87. 87. 87. 87. 87. 93. 87. 87. 87. 93. 93. 93. 87. 87.
 93. 93. 93. 93. 93. 87. 87. 93. 93. 93. 93. 87. 87. 93. 87. 87.]",186.07036714660353,None,s,1,0.691878925785204,186.07036714660353,None,None,None,09_BC,28,F,9,2021_Oct_30_1521,Partial repeat,2021.2.3,120.09945228074372,
4,7,0,1,1,3,3,3,3,1,0,1,1,0,0,0,0,8,8,8,,,,,,,,,,,,,,,,,,,,,,,,,,09_BC,28,F,9,2021_Oct_30_1521,Partial repeat,2021.2.3,120.09945228074372,
6,6,0,1,1,3,3,3,2,0,0,1,0,1,0,0,0,9,9,9,0,0,0,0,,,,,,,186.78645600481832,None,0.7222879401043654,187.44421987359965,None,"[93. 87. 87. 93. 93. 87. 87. 93. 87. 93. 87. 93. 93. 87. 87. 93. 93. 87.
 87. 87. 87. 87. 93. 87. 87. 87. 93. 87. 93. 93. 87. 87. 93. 87.]",188.2435329690452,None,s,1,0.9182610894877143,188.2435329690452,None,None,None,09_BC,28,F,9,2021_Oct_30_1521,Partial repeat,2021.2.3,120.09945228074372,
6,6,0,1,1,3,3,3,2,0,0,1,0,1,0,0,0,9,9,9,1,0,1,0,,,,,,,,,0.810801598772682,189.22602071938672,None,"[93. 87. 87. 87. 93. 87. 87. 93. 93. 87. 93. 87. 87. 93. 87. 93. 87. 87.
 93. 87. 93. 87. 93. 87. 93. 93. 87. 87. 87. 87. 93. 87. 93. 87.]",190.1252861567791,None,l,0,0.8445588413487712,190.1252861567791,None,190.98285753321034,None,09_BC,28,F,9,2021_Oct_30_1521,Partial repeat,2021.2.3,120.09945228074372,
6,6,0,1,1,3,3,3,2,0,0,1,0,1,0,0,0,9,9,9,,,,,,,,,,,,,,,,,,,,,,,,,,09_BC,28,F,9,2021_Oct_30_1521,Partial repeat,2021.2.3,120.09945228074372,
4,2,0,1,1,2,3,2,3,0,1,0,0,0,0,0,0,10,10,10,0,0,0,0,,,,,,,191.48243130473384,None,0.9380335932059576,193.55565729306,None,"[93. 87. 93. 87. 87. 87. 87. 93. 87. 87. 93. 87. 87. 87. 87. 87. 93. 93.
 87. 93. 93. 87. 93. 93. 87. 93. 93. 93. 93. 87. 87. 87. 93. 87.]",194.57979516658816,None,s,1,0.8701142693298607,194.57979516658816,None,None,None,09_BC,28,F,9,2021_Oct_30_1521,Partial repeat,2021.2.3,120.09945228074372,
4,2,0,1,1,2,3,2,3,0,1,0,0,0,0,0,0,10,10,10,1,0,1,0,,,,,,,,,0.7548156015180174,195.51232053664353,None,"[87. 87. 87. 87. 93. 93. 93. 93. 93. 87. 87. 93. 87. 87. 87. 93. 93. 87.
 93. 93. 93. 87. 87. 87. 93. 87. 93. 87. 87. 93. 93. 93. 87. 93.]",196.34495193464136,None,l,1,0.9770036481277202,196.34495193464136,None,None,None,09_BC,28,F,9,2021_Oct_30_1521,Partial repeat,2021.2.3,120.09945228074372,
4,2,0,1,1,2,3,2,3,0,1,0,0,0,0,0,0,10,10,10,,,,,,,,,,,,,,,,,,,,,,,,,,09_BC,28,F,9,2021_Oct_30_1521,Partial repeat,2021.2.3,120.09945228074372,
2,8,0,1,1,3,2,3,3,0,0,0,1,1,0,0,0,11,11,11,0,0,0,0,,,,,,,197.34408504556995,None,0.8952897956357397,199.23413541686023,None,"[93. 93. 93. 93. 87. 93. 87. 87. 93. 93. 93. 87. 87. 93. 87. 87. 93. 93.
 93. 93. 93. 87. 87. 87. 87. 87. 93. 87. 87. 87. 93. 87. 87. 93.]",200.20831700366216,None,s,1,0.825598569434078,200.20831700366216,None,None,None,09_BC,28,F,9,2021_Oct_30_1521,Partial repeat,2021.2.3,120.09945228074372,
2,8,0,1,1,3,2,3,3,0,0,0,1,1,0,0,0,11,11,11,1,0,1,0,,,,,,,,,0.984217844510793,201.1075352961434,None,"[87. 87. 87. 93. 93. 87. 87. 93. 87. 87. 87. 93. 93. 93. 87. 87. 87. 93.
 87. 87. 87. 93. 87. 93. 87. 93. 87. 87. 87. 93. 87. 87. 87. 87.]",202.17330693645818,None,s,1,0.6357537114690786,202.17330693645818,None,None,None,09_BC,28,F,9,2021_Oct_30_1521,Partial repeat,2021.2.3,120.09945228074372,
2,8,0,1,1,3,2,3,3,0,0,0,1,1,0,0,0,11,11,11,,,,,,,,,,,,,,,,,,,,,,,,,,09_BC,28,F,9,2021_Oct_30_1521,Partial repeat,2021.2.3,120.09945228074372,
7,4,0,1,1,2,3,2,3,0,0,0,0,1,0,0,0,12,12,12,0,0,0,0,,,,,,,202.8310643909681,None,0.9432128564686268,203.50548997673468,None,"[93. 93. 93. 93. 93. 93. 93. 87. 93. 93. 93. 93. 93. 87. 93. 93. 87. 87.
 87. 93. 87. 93. 93. 93. 87. 87. 93. 93. 87. 93. 93. 87. 87. 87.]",204.52961822885118,None,s,1,0.7919431968057324,204.52961822885118,None,None,None,09_BC,28,F,9,2021_Oct_30_1521,Partial repeat,2021.2.3,120.09945228074372,
7,4,0,1,1,2,3,2,3,0,0,0,0,1,0,0,0,12,12,12,1,0,1,0,,,,,,,,,0.7221966962103468,205.38721750737386,None,"[93. 87. 93. 87. 87. 93. 93. 93. 93. 87. 87. 87. 87. 87. 87. 87. 93. 87.
 93. 87. 93. 93. 93. 93. 87. 87. 87. 87. 93. 87. 93. 93. 87. 87.]",206.18653669637933,None,s,1,0.6545558715388324,206.18653669637933,None,None,None,09_BC,28,F,9,2021_Oct_30_1521,Partial repeat,2021.2.3,120.09945228074372,
7,4,0,1,1,2,3,2,3,0,0,0,0,1,0,0,0,12,12,12,,,,,,,,,,,,,,,,,,,,,,,,,,09_BC,28,F,9,2021_Oct_30_1521,Partial repeat,2021.2.3,120.09945228074372,
3,1,0,1,1,3,2,2,3,1,0,0,0,0,0,0,0,13,13,13,0,0,0,0,,,,,,,206.860956188586,None,0.9892120665308306,207.50207084821704,None,"[93. 87. 87. 93. 87. 93. 93. 93. 87. 87. 87. 93. 93. 87. 93. 93. 93. 87.
 87. 87. 87. 93. 93. 87. 87. 87. 93. 93. 93. 87. 93. 87. 93. 93.]",208.5761601977647,None,l,1,0.6649854803381459,208.5761601977647,None,None,None,09_BC,28,F,9,2021_Oct_30_1521,Partial repeat,2021.2.3,120.09945228074372,
3,1,0,1,1,3,2,2,3,1,0,0,0,0,0,0,0,13,13,13,1,0,1,0,,,,,,,,,0.9283594312200143,209.30054816381744,None,"[87. 93. 93. 87. 87. 87. 87. 87. 93. 93. 87. 93. 87. 87. 93. 93. 93. 87.
 87. 87. 93. 93. 93. 93. 87. 87. 87. 93. 93. 93. 87. 93. 93. 93.]",210.31633689817136,None,s,1,0.7496247063154442,210.31633689817136,None,None,None,09_BC,28,F,9,2021_Oct_30_1521,Partial repeat,2021.2.3,120.09945228074372,
3,1,0,1,1,3,2,2,3,1,0,0,0,0,0,0,0,13,13,13,,,,,,,,,,,,,,,,,,,,,,,,,,09_BC,28,F,9,2021_Oct_30_1521,Partial repeat,2021.2.3,120.09945228074372,
8,4,0,1,1,2,2,2,3,1,0,1,0,0,0,0,0,14,14,14,0,0,0,0,,,,,,,211.0740223203884,None,0.9681090415626697,211.706806121525,None,"[87. 87. 93. 93. 87. 87. 87. 93. 87. 93. 93. 93. 93. 93. 87. 87. 93. 93.
 87. 93. 87. 87. 87. 87. 87. 87. 87. 87. 87. 93. 87. 93. 93. 87.]",212.76424690334898,None,l,1,0.860957573117048,212.76424690334898,None,None,None,09_BC,28,F,9,2021_Oct_30_1521,Partial repeat,2021.2.3,120.09945228074372,
8,4,0,1,1,2,2,2,3,1,0,1,0,0,0,0,0,14,14,14,1,0,1,0,,,,,,,,,0.7407140886161588,213.6967812533876,None,"[93. 93. 93. 87. 87. 87. 87. 87. 93. 93. 93. 93. 93. 87. 87. 93. 87. 87.
 93. 87. 93. 93. 93. 93. 87. 93. 93. 87. 93. 93. 93. 87. 93. 93.]",214.51275093439835,None,s,1,0.9204855595544359,214.51275093439835,None,None,None,09_BC,28,F,9,2021_Oct_30_1521,Partial repeat,2021.2.3,120.09945228074372,
8,4,0,1,1,2,2,2,3,1,0,1,0,0,0,0,0,14,14,14,,,,,,,,,,,,,,,,,,,,,,,,,,09_BC,28,F,9,2021_Oct_30_1521,Partial repeat,2021.2.3,120.09945228074372,
8,2,0,1,1,2,3,3,3,1,0,0,1,0,0,0,0,15,15,15,0,0,0,0,,,,,,,215.4536158222163,None,0.8806608012519912,215.98649635059883,None,"[93. 87. 93. 87. 93. 93. 93. 93. 87. 87. 93. 87. 87. 87. 87. 87. 87. 87.
 87. 87. 87. 93. 87. 87. 93. 93. 87. 93. 87. 87. 93. 87. 93. 87.]",216.94399120474736,None,l,1,0.664300756636294,216.94399120474736,None,None,None,09_BC,28,F,9,2021_Oct_30_1521,Partial repeat,2021.2.3,120.09945228074372,
8,2,0,1,1,2,3,3,3,1,0,0,1,0,0,0,0,15,15,15,1,0,1,0,,,,,,,,,0.9747751276296748,217.66838494364674,None,"[93. 87. 87. 87. 93. 87. 93. 87. 93. 87. 87. 93. 93. 87. 87. 87. 87. 93.
 87. 87. 87. 93. 93. 93. 93. 93. 87. 93. 93. 93. 87. 87. 87. 93.]",218.72581546263245,None,s,1,0.6585163647469017,218.72581546263245,None,None,None,09_BC,28,F,9,2021_Oct_30_1521,Partial repeat,2021.2.3,120.09945228074372,
8,2,0,1,1,2,3,3,3,1,0,0,1,0,0,0,0,15,15,15,,,,,,,,,,,,,,,,,,,,,,,,,,09_BC,28,F,9,2021_Oct_30_1521,Partial repeat,2021.2.3,120.09945228074372,
4,1,0,1,1,2,3,2,3,1,1,0,0,1,0,0,0,16,16,16,0,0,0,0,,,,,,,219.40856420976343,None,0.7699650944929374,219.9164576148014,None,"[87. 93. 87. 93. 93. 87. 93. 93. 87. 87. 93. 93. 93. 87. 87. 87. 93. 87.
 87. 93. 93. 93. 87. 87. 93. 93. 93. 87. 87. 93. 87. 87. 87. 93.]",220.77405561046908,None,l,1,0.5786172869266011,220.77405561046908,None,None,None,09_BC,28,F,9,2021_Oct_30_1521,Partial repeat,2021.2.3,120.09945228074372,
4,1,0,1,1,2,3,2,3,1,1,0,0,1,0,0,0,16,16,16,1,0,1,0,,,,,,,,,0.7932493660199553,221.4151911164863,None,"[87. 87. 87. 93. 87. 93. 93. 93. 87. 87. 87. 87. 87. 87. 93. 87. 93. 93.
 87. 93. 87. 93. 87. 93. 87. 93. 93. 87. 87. 87. 87. 93. 93. 93.]",222.2977637276672,None,l,1,0.6225775107322988,222.2977637276672,None,None,None,09_BC,28,F,9,2021_Oct_30_1521,Partial repeat,2021.2.3,120.09945228074372,
4,1,0,1,1,2,3,2,3,1,1,0,0,1,0,0,0,16,16,16,,,,,,,,,,,,,,,,,,,,,,,,,,09_BC,28,F,9,2021_Oct_30_1521,Partial repeat,2021.2.3,120.09945228074372,
3,5,0,1,1,3,2,3,2,1,1,0,0,1,0,0,0,17,17,17,0,0,0,0,,,,,,,222.93887934943814,None,0.8063814986949143,223.51338562676756,None,"[93. 87. 93. 87. 93. 93. 87. 93. 93. 87. 93. 87. 87. 93. 87. 87. 93. 87.
 87. 93. 87. 87. 93. 87. 87. 93. 93. 87. 93. 87. 93. 93. 93. 87.]",224.3959723493499,None,l,1,0.636402194524635,224.3959723493499,None,None,None,09_BC,28,F,9,2021_Oct_30_1521,Partial repeat,2021.2.3,120.09945228074372,
3,5,0,1,1,3,2,3,2,1,1,0,0,1,0,0,0,17,17,17,1,0,1,0,,,,,,,,,0.9575611797474207,225.10369699484727,None,"[87. 93. 87. 93. 93. 93. 87. 87. 93. 87. 87. 87. 93. 93. 87. 93. 87. 93.
 87. 87. 87. 87. 87. 87. 87. 93. 93. 87. 93. 87. 93. 93. 93. 93.]",226.13614937046987,None,l,1,0.7362300995646365,226.13614937046987,None,None,None,09_BC,28,F,9,2021_Oct_30_1521,Partial repeat,2021.2.3,120.09945228074372,
3,5,0,1,1,3,2,3,2,1,1,0,0,1,0,0,0,17,17,17,,,,,,,,,,,,,,,,,,,,,,,,,,09_BC,28,F,9,2021_Oct_30_1521,Partial repeat,2021.2.3,120.09945228074372,
2,3,0,1,1,3,2,2,3,0,0,0,0,1,0,0,0,18,18,18,0,0,0,0,,,,,,,226.9021611611879,None,0.892569190678372,227.64319897782116,None,"[93. 87. 87. 87. 87. 93. 87. 87. 87. 87. 93. 87. 93. 93. 93. 93. 87. 87.
 87. 93. 87. 87. 93. 87. 87. 87. 87. 87. 93. 93. 93. 87. 87. 93.]",228.6256886524443,None,s,1,0.6627674245446542,228.6256886524443,None,None,None,09_BC,28,F,9,2021_Oct_30_1521,Partial repeat,2021.2.3,120.09945228074372,
2,3,0,1,1,3,2,2,3,0,0,0,0,1,0,0,0,18,18,18,1,0,1,0,,,,,,,,,0.9545297803024793,229.35840940127127,None,"[87. 87. 87. 93. 87. 93. 87. 87. 93. 87. 87. 93. 87. 87. 87. 93. 87. 93.
 87. 93. 93. 93. 93. 93. 87. 87. 93. 93. 87. 93. 93. 93. 87. 93.]",230.39917948612674,None,s,1,0.8893025686684268,230.39917948612674,None,None,None,09_BC,28,F,9,2021_Oct_30_1521,Partial repeat,2021.2.3,120.09945228074372,
2,3,0,1,1,3,2,2,3,0,0,0,0,1,0,0,0,18,18,18,,,,,,,,,,,,,,,,,,,,,,,,,,09_BC,28,F,9,2021_Oct_30_1521,Partial repeat,2021.2.3,120.09945228074372,
4,4,0,1,1,3,3,3,3,0,0,1,1,1,0,0,0,19,19,19,0,0,0,0,,,,,,,231.30672927852902,None,0.9599544707597418,232.26423760265243,None,"[87. 93. 93. 87. 93. 93. 93. 93. 87. 87. 93. 87. 87. 93. 93. 87. 93. 87.
 93. 93. 87. 93. 93. 87. 87. 93. 87. 93. 93. 93. 93. 87. 93. 87.]",233.30502596818587,None,s,1,1.05453682114603,233.30502596818587,None,None,None,09_BC,28,F,9,2021_Oct_30_1521,Partial repeat,2021.2.3,120.09945228074372,
4,4,0,1,1,3,3,3,3,0,0,1,1,1,0,0,0,19,19,19,1,0,1,0,,,,,,,,,0.9888593676248861,234.4207368974021,None,"[87. 93. 87. 93. 87. 93. 93. 93. 87. 93. 87. 93. 93. 87. 93. 93. 87. 93.
 93. 87. 93. 87. 93. 93. 93. 87. 93. 93. 93. 87. 87. 87. 93. 93.]",235.48649506774382,None,s,1,0.8730975479611516,235.48649506774382,None,None,None,09_BC,28,F,9,2021_Oct_30_1521,Partial repeat,2021.2.3,120.09945228074372,
4,4,0,1,1,3,3,3,3,0,0,1,1,1,0,0,0,19,19,19,,,,,,,,,,,,,,,,,,,,,,,,,,09_BC,28,F,9,2021_Oct_30_1521,Partial repeat,2021.2.3,120.09945228074372,
1,1,0,1,1,2,3,3,3,0,0,0,1,1,0,0,0,20,20,20,0,0,0,0,,,,,,,236.3773924438574,None,0.8203523896685673,237.0851215793482,None,"[87. 93. 93. 93. 87. 87. 87. 87. 93. 87. 87. 93. 87. 87. 87. 87. 93. 93.
 93. 87. 87. 93. 93. 93. 87. 93. 87. 87. 93. 87. 87. 87. 87. 87.]",237.98435719036752,None,s,1,0.6632491364871385,237.98435719036752,None,None,None,09_BC,28,F,9,2021_Oct_30_1521,Partial repeat,2021.2.3,120.09945228074372,
1,1,0,1,1,2,3,3,3,0,0,0,1,1,0,0,0,20,20,20,1,0,1,0,,,,,,,,,0.9486943847592608,238.71706511064804,None,"[93. 93. 93. 87. 93. 87. 93. 93. 93. 93. 87. 87. 87. 93. 93. 87. 87. 87.
 87. 87. 93. 87. 87. 87. 87. 93. 87. 93. 87. 87. 87. 93. 87. 93.]",239.74119592847455,None,s,1,0.6024472753215377,239.74119592847455,None,None,None,09_BC,28,F,9,2021_Oct_30_1521,Partial repeat,2021.2.3,120.09945228074372,
1,1,0,1,1,2,3,3,3,0,0,0,1,1,0,0,0,20,20,20,,,,,,,,,,,,,,,,,,,,,,,,,,09_BC,28,F,9,2021_Oct_30_1521,Partial repeat,2021.2.3,120.09945228074372,
7,5,0,1,1,2,2,3,3,0,1,1,1,0,0,0,0,21,21,21,0,0,0,0,,,,,,,240.36565432325187,None,0.7123898637418747,240.9734625467354,None,"[93. 87. 93. 87. 93. 87. 93. 87. 93. 87. 93. 93. 93. 87. 87. 93. 93. 93.
 93. 87. 93. 93. 87. 87. 87. 87. 93. 93. 93. 87. 87. 93. 87. 87.]",241.76445440509815,None,s,1,0.803198001900455,241.76445440509815,None,None,None,09_BC,28,F,9,2021_Oct_30_1521,Partial repeat,2021.2.3,120.09945228074372,
7,5,0,1,1,2,2,3,3,0,1,1,1,0,0,0,0,21,21,21,1,0,1,0,,,,,,,,,0.9709941501616226,242.62205785289916,None,"[87. 93. 87. 93. 87. 87. 87. 93. 87. 93. 93. 87. 93. 93. 93. 93. 93. 93.
 93. 93. 87. 93. 87. 93. 93. 93. 87. 87. 93. 93. 87. 87. 93. 87.]",243.67116007910045,None,l,1,0.5925574276407133,243.67116007910045,None,None,None,09_BC,28,F,9,2021_Oct_30_1521,Partial repeat,2021.2.3,120.09945228074372,
7,5,0,1,1,2,2,3,3,0,1,1,1,0,0,0,0,21,21,21,,,,,,,,,,,,,,,,,,,,,,,,,,09_BC,28,F,9,2021_Oct_30_1521,Partial repeat,2021.2.3,120.09945228074372,
4,5,0,1,1,2,3,3,3,1,1,0,1,1,0,0,0,22,22,22,0,0,0,0,,,,,,,244.2789766411388,None,0.7895281705241975,244.88679352389227,None,"[93. 93. 87. 93. 93. 93. 87. 87. 93. 87. 87. 87. 93. 87. 93. 87. 93. 87.
 87. 87. 87. 87. 93. 93. 93. 93. 87. 93. 93. 93. 93. 87. 87. 93.]",245.75271724663435,None,l,1,0.7190173964809219,245.75271724663435,None,None,None,09_BC,28,F,9,2021_Oct_30_1521,Partial repeat,2021.2.3,120.09945228074372,
4,5,0,1,1,2,3,3,3,1,1,0,1,1,0,0,0,22,22,22,1,0,1,0,,,,,,,,,0.7584020033225235,246.5353830572094,None,"[87. 87. 93. 87. 93. 93. 87. 93. 87. 93. 93. 93. 87. 93. 87. 87. 87. 87.
 87. 93. 93. 87. 93. 87. 87. 93. 87. 87. 87. 87. 93. 87. 87. 93.]",247.36800675807717,None,l,1,0.7677851183179882,247.36800675807717,None,None,None,09_BC,28,F,9,2021_Oct_30_1521,Partial repeat,2021.2.3,120.09945228074372,
4,5,0,1,1,2,3,3,3,1,1,0,1,1,0,0,0,22,22,22,,,,,,,,,,,,,,,,,,,,,,,,,,09_BC,28,F,9,2021_Oct_30_1521,Partial repeat,2021.2.3,120.09945228074372,
8,7,0,1,1,3,2,3,3,1,1,0,1,1,0,0,0,23,23,23,0,0,0,0,,,,,,,248.1589934850217,None,0.9586618019896569,248.74182901727545,None,"[87. 87. 93. 87. 87. 93. 93. 87. 93. 93. 87. 93. 93. 87. 87. 87. 87. 93.
 87. 93. 93. 93. 93. 87. 87. 93. 93. 93. 87. 87. 87. 93. 93. 87.]",249.79093252633174,None,l,1,0.4559186481001234,249.79093252633174,None,None,None,09_BC,28,F,9,2021_Oct_30_1521,Partial repeat,2021.2.3,120.09945228074372,
8,7,0,1,1,3,2,3,3,1,1,0,1,1,0,0,0,23,23,23,1,0,1,0,,,,,,,,,0.7138464599253453,250.31547417837828,None,"[93. 93. 87. 87. 93. 93. 87. 87. 93. 93. 93. 93. 87. 93. 87. 87. 93. 93.
 87. 93. 93. 87. 87. 87. 87. 93. 87. 93. 93. 87. 87. 87. 93. 87.]",251.1064952216857,None,l,1,0.6123098623393162,251.1064952216857,None,None,None,09_BC,28,F,9,2021_Oct_30_1521,Partial repeat,2021.2.3,120.09945228074372,
8,7,0,1,1,3,2,3,3,1,1,0,1,1,0,0,0,23,23,23,,,,,,,,,,,,,,,,,,,,,,,,,,09_BC,28,F,9,2021_Oct_30_1521,Partial repeat,2021.2.3,120.09945228074372,
8,6,0,1,1,3,3,3,2,1,1,1,0,1,0,0,0,24,24,24,0,0,0,0,,,,,,,251.73926715641755,None,0.8375556534779804,252.14725055371127,None,"[87. 93. 87. 87. 93. 87. 87. 93. 87. 87. 87. 93. 87. 93. 87. 93. 87. 87.
 87. 93. 93. 93. 87. 93. 87. 93. 93. 93. 93. 93. 87. 93. 87. 93.]",253.0631353738845,None,l,1,0.6876984229966183,253.0631353738845,None,None,None,09_BC,28,F,9,2021_Oct_30_1521,Partial repeat,2021.2.3,120.09945228074372,
8,6,0,1,1,3,3,3,2,1,1,1,0,1,0,0,0,24,24,24,1,0,1,0,,,,,,,,,0.8329529594770594,253.82082175824144,None,"[93. 87. 93. 87. 93. 93. 93. 87. 93. 87. 93. 93. 93. 87. 87. 87. 93. 93.
 87. 93. 87. 87. 93. 93. 87. 93. 93. 93. 87. 93. 93. 87. 87. 87.]",254.72837988919855,None,l,1,0.6225188201296987,254.72837988919855,None,None,None,09_BC,28,F,9,2021_Oct_30_1521,Partial repeat,2021.2.3,120.09945228074372,
8,6,0,1,1,3,3,3,2,1,1,1,0,1,0,0,0,24,24,24,,,,,,,,,,,,,,,,,,,,,,,,,,09_BC,28,F,9,2021_Oct_30_1521,Partial repeat,2021.2.3,120.09945228074372,
6,3,0,1,1,2,3,2,2,1,1,0,1,1,0,0,0,25,25,25,0,0,0,0,,,,,,,255.3694964731112,None,0.9533477269894403,255.8523838326946,None,"[87. 93. 87. 87. 87. 87. 87. 87. 93. 87. 93. 87. 87. 87. 93. 93. 87. 87.
 93. 87. 87. 93. 87. 93. 87. 93. 93. 87. 93. 93. 93. 87. 87. 87.]",256.8848711661085,None,l,1,0.5780197973435861,256.8848711661085,None,None,None,09_BC,28,F,9,2021_Oct_30_1521,Partial repeat,2021.2.3,120.09945228074372,
6,3,0,1,1,2,3,2,2,1,1,0,1,1,0,0,0,25,25,25,1,0,1,0,,,,,,,,,0.7879943811057543,257.5343176463721,None,"[87. 93. 93. 87. 93. 87. 93. 93. 93. 87. 93. 87. 93. 87. 93. 93. 93. 93.
 93. 93. 93. 87. 93. 93. 93. 87. 93. 93. 87. 93. 87. 87. 93. 93.]",258.40024361410906,None,l,1,0.8387103067198041,258.40024361410906,None,None,None,09_BC,28,F,9,2021_Oct_30_1521,Partial repeat,2021.2.3,120.09945228074372,
6,3,0,1,1,2,3,2,2,1,1,0,1,1,0,0,0,25,25,25,,,,,,,,,,,,,,,,,,,,,,,,,,09_BC,28,F,9,2021_Oct_30_1521,Partial repeat,2021.2.3,120.09945228074372,
2,7,0,1,1,3,2,3,2,1,0,0,0,0,0,0,0,26,26,26,0,0,0,0,,,,,,,259.257840647635,None,0.8790841309309436,259.74075398502646,None,"[87. 93. 93. 93. 87. 87. 93. 87. 93. 87. 93. 87. 93. 93. 87. 87. 87. 93.
 87. 87. 87. 93. 87. 87. 93. 93. 87. 93. 93. 87. 87. 93. 93. 87.]",260.70662171116055,None,l,1,0.820361956502893,260.70662171116055,None,None,None,09_BC,28,F,9,2021_Oct_30_1521,Partial repeat,2021.2.3,120.09945228074372,
2,7,0,1,1,3,2,3,2,1,0,0,0,0,0,0,0,26,26,26,1,0,1,0,,,,,,,,,0.8730897218115905,261.59752037012913,None,"[87. 87. 87. 87. 87. 93. 93. 93. 93. 87. 93. 87. 93. 93. 87. 87. 93. 93.
 87. 93. 93. 93. 93. 93. 93. 87. 93. 87. 93. 93. 87. 93. 87. 93.]",262.5467000807548,None,s,1,0.77228376907442,262.5467000807548,None,None,None,09_BC,28,F,9,2021_Oct_30_1521,Partial repeat,2021.2.3,120.09945228074372,
2,7,0,1,1,3,2,3,2,1,0,0,0,0,0,0,0,26,26,26,,,,,,,,,,,,,,,,,,,,,,,,,,09_BC,28,F,9,2021_Oct_30_1521,Partial repeat,2021.2.3,120.09945228074372,
7,3,0,1,1,2,2,3,2,1,1,1,0,1,0,0,0,27,27,27,0,0,0,0,,,,,,,263.3460183076186,None,0.7035747677479234,264.012108865616,None,"[87. 87. 93. 93. 87. 93. 93. 87. 93. 87. 93. 87. 93. 87. 87. 93. 87. 87.
 87. 87. 93. 93. 87. 93. 93. 93. 87. 87. 93. 87. 93. 87. 87. 93.]",264.7947746761911,None,l,1,0.8273050869138387,264.7947746761911,None,None,None,09_BC,28,F,9,2021_Oct_30_1521,Partial repeat,2021.2.3,120.09945228074372,
7,3,0,1,1,2,2,3,2,1,1,1,0,1,0,0,0,27,27,27,1,0,1,0,,,,,,,,,0.7118826896654112,265.69401509791714,None,"[93. 87. 87. 93. 87. 93. 87. 87. 87. 87. 87. 93. 93. 87. 87. 93. 93. 93.
 93. 93. 93. 93. 93. 93. 93. 93. 93. 87. 87. 93. 93. 87. 87. 93.]",266.49332530693937,None,l,1,0.8567263975673995,266.49332530693937,None,None,None,09_BC,28,F,9,2021_Oct_30_1521,Partial repeat,2021.2.3,120.09945228074372,
7,3,0,1,1,2,2,3,2,1,1,1,0,1,0,0,0,27,27,27,,,,,,,,,,,,,,,,,,,,,,,,,,09_BC,28,F,9,2021_Oct_30_1521,Partial repeat,2021.2.3,120.09945228074372,
5,8,0,1,1,2,3,2,2,0,0,0,1,1,0,0,0,28,28,28,0,0,0,0,,,,,,,267.36757668103564,None,0.8569972357883419,267.91710705999867,None,"[87. 93. 87. 93. 87. 93. 93. 93. 93. 93. 93. 87. 87. 93. 87. 93. 93. 87.
 87. 93. 87. 93. 93. 93. 93. 93. 87. 87. 93. 93. 87. 93. 93. 93.]",268.85797932422975,None,s,1,0.7481218420216464,268.85797932422975,None,None,None,09_BC,28,F,9,2021_Oct_30_1521,Partial repeat,2021.2.3,120.09945228074372,
5,8,0,1,1,2,3,2,2,0,0,0,1,1,0,0,0,28,28,28,1,0,1,0,,,,,,,,,0.9153566086886349,269.6656053182014,None,"[93. 93. 93. 93. 87. 87. 93. 93. 87. 87. 87. 93. 87. 93. 87. 93. 87. 93.
 93. 87. 93. 87. 93. 93. 93. 93. 87. 87. 93. 87. 87. 93. 87. 87.]",270.6647724247814,None,s,1,0.8293656722926244,270.6647724247814,None,None,None,09_BC,28,F,9,2021_Oct_30_1521,Partial repeat,2021.2.3,120.09945228074372,
5,8,0,1,1,2,3,2,2,0,0,0,1,1,0,0,0,28,28,28,,,,,,,,,,,,,,,,,,,,,,,,,,09_BC,28,F,9,2021_Oct_30_1521,Partial repeat,2021.2.3,120.09945228074372,
7,8,0,1,1,3,3,2,3,1,1,1,0,1,0,0,0,29,29,29,0,0,0,0,,,,,,,271.5140299405448,None,0.8731792341349973,272.0885349350192,None,"[93. 93. 87. 87. 93. 93. 87. 87. 87. 93. 87. 87. 87. 87. 87. 93. 93. 87.
 87. 93. 87. 87. 93. 87. 87. 93. 87. 93. 87. 93. 93. 87. 87. 93.]",273.0460586533991,None,l,1,0.7680933241626917,273.0460586533991,None,None,None,09_BC,28,F,9,2021_Oct_30_1521,Partial repeat,2021.2.3,120.09945228074372,
7,8,0,1,1,3,3,2,3,1,1,1,0,1,0,0,0,29,29,29,1,0,1,0,,,,,,,,,0.9167492037477986,273.87867754356375,None,"[87. 93. 93. 93. 93. 93. 93. 93. 87. 87. 87. 93. 87. 93. 87. 93. 87. 87.
 93. 87. 87. 87. 93. 87. 87. 93. 93. 93. 93. 87. 93. 93. 93. 87.]",274.87782540732223,None,l,1,0.856382592504815,274.87782540732223,None,None,None,09_BC,28,F,9,2021_Oct_30_1521,Partial repeat,2021.2.3,120.09945228074372,
7,8,0,1,1,3,3,2,3,1,1,1,0,1,0,0,0,29,29,29,,,,,,,,,,,,,,,,,,,,,,,,,,09_BC,28,F,9,2021_Oct_30_1521,Partial repeat,2021.2.3,120.09945228074372,
5,5,0,1,1,2,2,2,2,1,0,1,1,0,0,0,0,30,30,30,0,0,0,0,,,,,,,275.7437510543459,None,0.782192886627754,276.2932746983206,None,"[93. 87. 87. 93. 93. 87. 87. 93. 87. 87. 87. 93. 93. 93. 93. 87. 87. 93.
 93. 93. 93. 93. 93. 93. 87. 93. 87. 93. 87. 93. 87. 87. 93. 87.]",277.1508768632666,None,l,1,0.631360896224578,277.1508768632666,None,None,None,09_BC,28,F,9,2021_Oct_30_1521,Partial repeat,2021.2.3,120.09945228074372,
5,5,0,1,1,2,2,2,2,1,0,1,1,0,0,0,0,30,30,30,1,0,1,0,,,,,,,,,0.8026319785512176,277.83363779751744,None,"[87. 87. 93. 93. 93. 87. 93. 93. 87. 93. 93. 87. 93. 87. 93. 93. 87. 87.
 93. 87. 93. 93. 87. 93. 87. 93. 93. 93. 87. 93. 93. 93. 87. 87.]",278.7162123329799,None,s,1,0.7620465884810983,278.7162123329799,None,None,None,09_BC,28,F,9,2021_Oct_30_1521,Partial repeat,2021.2.3,120.09945228074372,
5,5,0,1,1,2,2,2,2,1,0,1,1,0,0,0,0,30,30,30,,,,,,,,,,,,,,,,,,,,,,,,,,09_BC,28,F,9,2021_Oct_30_1521,Partial repeat,2021.2.3,120.09945228074372,
1,7,0,1,1,3,3,2,3,0,0,1,0,1,0,0,0,31,31,31,0,0,0,0,,,,,,,279.50719938063776,None,0.8638709614687518,279.99844678365844,None,"[87. 93. 93. 87. 87. 93. 93. 93. 93. 87. 93. 87. 93. 93. 87. 87. 87. 93.
 93. 87. 93. 93. 93. 87. 87. 93. 87. 93. 93. 93. 87. 87. 87. 87.]",280.9476377192641,None,s,1,0.6416869145050441,280.9476377192641,None,None,None,09_BC,28,F,9,2021_Oct_30_1521,Partial repeat,2021.2.3,120.09945228074372,
1,7,0,1,1,3,3,2,3,0,0,1,0,1,0,0,0,31,31,31,1,0,1,0,,,,,,,,,0.9812779443517783,281.6553700618915,None,"[87. 87. 87. 93. 93. 93. 87. 87. 93. 93. 93. 93. 93. 87. 93. 87. 93. 93.
 93. 87. 93. 87. 93. 93. 87. 87. 87. 87. 93. 87. 93. 87. 87. 93.]",282.72111732796657,None,s,1,0.6601962629883928,282.72111732796657,None,None,None,09_BC,28,F,9,2021_Oct_30_1521,Partial repeat,2021.2.3,120.09945228074372,
1,7,0,1,1,3,3,2,3,0,0,1,0,1,0,0,0,31,31,31,,,,,,,,,,,,,,,,,,,,,,,,,,09_BC,28,F,9,2021_Oct_30_1521,Partial repeat,2021.2.3,120.09945228074372,
5,1,0,1,1,2,2,2,2,0,0,1,1,1,0,0,0,32,32,32,0,0,0,0,,,,,,,283.40386735795437,None,0.9786540618939507,283.9367475656218,None,"[93. 93. 87. 93. 87. 87. 87. 87. 87. 93. 87. 87. 93. 93. 87. 93. 87. 93.
 87. 87. 93. 93. 87. 87. 93. 87. 87. 87. 93. 93. 93. 87. 87. 87.]",284.99417134962096,None,s,1,0.6762011583632557,284.99417134962096,None,None,None,09_BC,28,F,9,2021_Oct_30_1521,Partial repeat,2021.2.3,120.09945228074372,
5,1,0,1,1,2,2,2,2,0,0,1,1,1,0,0,0,32,32,32,1,0,1,0,,,,,,,,,0.9800844684202007,285.72687766633317,None,"[87. 93. 87. 93. 93. 87. 87. 93. 87. 87. 93. 93. 87. 93. 93. 93. 93. 87.
 87. 87. 93. 87. 87. 93. 87. 87. 87. 93. 87. 93. 93. 93. 87. 87.]",286.78431941029703,None,s,1,0.7410606889807241,286.78431941029703,None,None,None,09_BC,28,F,9,2021_Oct_30_1521,Partial repeat,2021.2.3,120.09945228074372,
5,1,0,1,1,2,2,2,2,0,0,1,1,1,0,0,0,32,32,32,,,,,,,,,,,,,,,,,,,,,,,,,,09_BC,28,F,9,2021_Oct_30_1521,Partial repeat,2021.2.3,120.09945228074372,
7,1,0,1,1,3,2,3,2,0,0,0,0,1,0,0,0,33,33,33,0,0,0,0,,,,,,,287.5419968146707,None,0.747700841381139,288.1747735601075,None,"[87. 87. 93. 87. 87. 87. 93. 87. 93. 87. 87. 93. 87. 87. 93. 87. 87. 87.
 93. 93. 87. 87. 93. 87. 93. 93. 87. 87. 93. 93. 87. 93. 87. 87.]",288.99908179674094,None,s,1,0.590320129025713,288.99908179674094,None,None,None,09_BC,28,F,9,2021_Oct_30_1521,Partial repeat,2021.2.3,120.09945228074372,
7,1,0,1,1,3,2,3,2,0,0,0,0,1,0,0,0,33,33,33,1,0,1,0,,,,,,,,,0.9524060969892847,289.64853308770944,None,"[93. 87. 87. 87. 93. 93. 87. 87. 87. 93. 87. 93. 87. 93. 87. 87. 87. 93.
 93. 93. 87. 93. 87. 87. 87. 87. 93. 93. 87. 93. 87. 93. 93. 93.]",290.6893220946695,None,s,1,0.612127376258286,290.6893220946695,None,None,None,09_BC,28,F,9,2021_Oct_30_1521,Partial repeat,2021.2.3,120.09945228074372,
7,1,0,1,1,3,2,3,2,0,0,0,0,1,0,0,0,33,33,33,,,,,,,,,,,,,,,,,,,,,,,,,,09_BC,28,F,9,2021_Oct_30_1521,Partial repeat,2021.2.3,120.09945228074372,
5,7,0,1,1,3,2,2,2,0,0,0,1,1,0,0,0,34,34,34,0,0,0,0,,,,,,,291.3304258500357,None,0.8532378700848102,292.0131826150082,None,"[87. 87. 87. 93. 93. 93. 87. 93. 87. 93. 93. 87. 93. 87. 87. 93. 87. 93.
 93. 87. 87. 93. 93. 93. 87. 93. 93. 93. 87. 87. 93. 87. 87. 87.]",292.9457147200519,None,s,1,0.5805489454069175,292.9457147200519,None,None,None,09_BC,28,F,9,2021_Oct_30_1521,Partial repeat,2021.2.3,120.09945228074372,
5,7,0,1,1,3,2,2,2,0,0,0,1,1,0,0,0,34,34,34,1,0,1,0,,,,,,,,,0.9870621567815225,293.5951644074521,None,"[87. 93. 93. 93. 87. 93. 87. 87. 87. 93. 93. 87. 87. 93. 87. 93. 87. 87.
 87. 93. 93. 87. 93. 87. 87. 93. 93. 93. 87. 93. 93. 93. 87. 93.]",294.6609180878022,None,s,1,0.624590309775158,294.6609180878022,None,None,None,09_BC,28,F,9,2021_Oct_30_1521,Partial repeat,2021.2.3,120.09945228074372,
5,7,0,1,1,3,2,2,2,0,0,0,1,1,0,0,0,34,34,34,,,,,,,,,,,,,,,,,,,,,,,,,,09_BC,28,F,9,2021_Oct_30_1521,Partial repeat,2021.2.3,120.09945228074372,
8,8,0,1,1,2,3,3,2,0,1,0,0,0,0,0,0,35,35,35,0,0,0,0,,,,,,,295.30203338885985,None,0.882657853355791,295.83491103081724,None,"[87. 93. 87. 93. 87. 87. 87. 93. 93. 87. 87. 93. 87. 93. 93. 87. 87. 87.
 93. 93. 93. 87. 93. 93. 87. 87. 93. 87. 87. 93. 87. 93. 87. 93.]",296.792427372784,None,s,1,0.6850098802369757,296.792427372784,None,None,None,09_BC,28,F,9,2021_Oct_30_1521,Partial repeat,2021.2.3,120.09945228074372,
8,8,0,1,1,2,3,3,2,0,1,0,0,0,0,0,0,35,35,35,1,0,1,0,,,,,,,,,0.7337683332251875,297.54177872937,None,"[87. 87. 87. 93. 93. 87. 87. 87. 93. 93. 87. 87. 87. 93. 87. 87. 87. 87.
 93. 93. 87. 93. 87. 93. 93. 87. 87. 93. 93. 93. 87. 87. 87. 87.]",298.3577529003742,None,l,1,1.1508137843484292,298.3577529003742,None,None,None,09_BC,28,F,9,2021_Oct_30_1521,Partial repeat,2021.2.3,120.09945228074372,
8,8,0,1,1,2,3,3,2,0,1,0,0,0,0,0,0,35,35,35,,,,,,,,,,,,,,,,,,,,,,,,,,09_BC,28,F,9,2021_Oct_30_1521,Partial repeat,2021.2.3,120.09945228074372,
8,3,0,1,1,3,3,3,3,0,1,1,1,0,0,0,0,36,36,36,0,0,0,0,,,,,,,299.52342171988494,None,0.7050939366973045,300.00635333795617,None,"[87. 87. 93. 93. 87. 87. 93. 93. 93. 87. 93. 93. 87. 87. 87. 93. 87. 93.
 93. 87. 93. 93. 93. 87. 87. 87. 87. 87. 87. 93. 93. 93. 93. 87.]",300.79733493348067,None,s,1,0.7752657648507011,300.79733493348067,None,None,None,09_BC,28,F,9,2021_Oct_30_1521,Partial repeat,2021.2.3,120.09945228074372,
8,3,0,1,1,3,3,3,3,0,1,1,1,0,0,0,0,36,36,36,1,0,1,0,,,,,,,,,0.7850060645393615,301.6382962278294,None,"[93. 87. 87. 93. 93. 87. 93. 87. 87. 87. 87. 93. 93. 87. 87. 93. 93. 93.
 87. 87. 93. 87. 93. 93. 93. 93. 87. 87. 87. 93. 93. 93. 87. 93.]",302.50421385701156,None,l,1,0.9084260838444607,302.50421385701156,None,None,None,09_BC,28,F,9,2021_Oct_30_1521,Partial repeat,2021.2.3,120.09945228074372,
8,3,0,1,1,3,3,3,3,0,1,1,1,0,0,0,0,36,36,36,,,,,,,,,,,,,,,,,,,,,,,,,,09_BC,28,F,9,2021_Oct_30_1521,Partial repeat,2021.2.3,120.09945228074372,
6,2,0,1,1,2,3,3,2,1,1,0,0,1,0,0,0,37,37,37,0,0,0,0,,,,,,,303.43674467919845,None,0.9195869683078088,303.99460078523407,None,"[93. 93. 93. 87. 93. 93. 93. 93. 87. 87. 93. 87. 93. 93. 87. 87. 87. 93.
 93. 93. 93. 87. 93. 87. 87. 93. 93. 87. 93. 87. 87. 93. 93. 93.]",304.9937521768443,None,l,1,0.6425643871298234,304.9937521768443,None,None,None,09_BC,28,F,9,2021_Oct_30_1521,Partial repeat,2021.2.3,120.09945228074372,
6,2,0,1,1,2,3,3,2,1,1,0,0,1,0,0,0,37,37,37,1,0,1,0,,,,,,,,,0.8109625732467245,305.7014806709067,None,"[93. 87. 87. 93. 87. 87. 87. 87. 93. 93. 93. 87. 93. 93. 93. 93. 87. 87.
 93. 87. 93. 87. 87. 93. 87. 87. 93. 87. 93. 93. 87. 87. 87. 87.]",306.59237708487854,None,l,1,1.3163411691257352,306.59237708487854,None,None,None,09_BC,28,F,9,2021_Oct_30_1521,Partial repeat,2021.2.3,120.09945228074372,
6,2,0,1,1,2,3,3,2,1,1,0,0,1,0,0,0,37,37,37,,,,,,,,,,,,,,,,,,,,,,,,,,09_BC,28,F,9,2021_Oct_30_1521,Partial repeat,2021.2.3,120.09945228074372,
5,2,0,1,1,2,2,3,2,1,0,1,0,0,0,0,0,38,38,38,0,0,0,0,,,,,,,307.9245739158432,None,0.7355177635450821,308.4741020498095,None,"[93. 93. 93. 93. 93. 93. 93. 93. 93. 93. 93. 93. 93. 87. 87. 93. 87. 93.
 87. 93. 87. 93. 87. 93. 93. 87. 87. 87. 87. 93. 93. 93. 87. 87.]",309.2900803900902,None,l,1,0.5066484962135291,309.2900803900902,None,None,None,09_BC,28,F,9,2021_Oct_30_1521,Partial repeat,2021.2.3,120.09945228074372,
5,2,0,1,1,2,2,3,2,1,0,1,0,0,0,0,0,38,38,38,1,0,1,0,,,,,,,,,0.7727689590837054,309.8479310439925,None,"[93. 87. 93. 87. 87. 93. 87. 93. 87. 87. 87. 87. 93. 93. 87. 87. 93. 93.
 93. 93. 93. 87. 87. 93. 87. 93. 87. 93. 93. 93. 87. 93. 93. 87.]",310.69721100971583,None,s,1,0.6839505629577616,310.69721100971583,None,None,None,09_BC,28,F,9,2021_Oct_30_1521,Partial repeat,2021.2.3,120.09945228074372,
5,2,0,1,1,2,2,3,2,1,0,1,0,0,0,0,0,38,38,38,,,,,,,,,,,,,,,,,,,,,,,,,,09_BC,28,F,9,2021_Oct_30_1521,Partial repeat,2021.2.3,120.09945228074372,
5,4,0,1,1,3,2,2,2,1,0,0,1,0,0,0,0,39,39,39,0,0,0,0,,,,,,,311.3966076831439,None,0.9055706426729239,311.82957082737084,None,"[93. 93. 87. 87. 93. 93. 87. 93. 93. 93. 87. 93. 87. 87. 87. 87. 93. 93.
 93. 93. 87. 87. 87. 93. 87. 87. 93. 93. 87. 87. 93. 87. 87. 93.]",312.81207429268215,None,l,1,0.5516776587082859,312.81207429268215,None,None,None,09_BC,28,F,9,2021_Oct_30_1521,Partial repeat,2021.2.3,120.09945228074372,
5,4,0,1,1,3,2,2,2,1,0,0,1,0,0,0,0,39,39,39,1,0,1,0,,,,,,,,,0.8300103511583368,313.4365349324544,None,"[87. 93. 93. 87. 93. 87. 93. 87. 93. 87. 87. 87. 87. 87. 93. 87. 93. 87.
 87. 87. 87. 87. 87. 87. 87. 93. 87. 93. 93. 93. 87. 93. 93. 93.]",314.3524184697726,None,s,1,0.7874236996594846,314.3524184697726,None,None,None,09_BC,28,F,9,2021_Oct_30_1521,Partial repeat,2021.2.3,120.09945228074372,
5,4,0,1,1,3,2,2,2,1,0,0,1,0,0,0,0,39,39,39,,,,,,,,,,,,,,,,,,,,,,,,,,09_BC,28,F,9,2021_Oct_30_1521,Partial repeat,2021.2.3,120.09945228074372,
8,1,0,1,1,3,2,2,2,1,1,0,1,1,0,0,0,40,40,40,0,0,0,0,,,,,,,315.16006242370895,None,0.8941918640612851,315.65963619523245,None,"[93. 93. 87. 93. 87. 87. 93. 87. 87. 93. 87. 87. 87. 93. 93. 93. 93. 93.
 93. 87. 87. 93. 87. 93. 93. 87. 87. 87. 87. 87. 93. 93. 87. 87.]",316.6421277941372,None,l,1,0.7700487154543225,316.6421277941372,None,None,None,09_BC,28,F,9,2021_Oct_30_1521,Partial repeat,2021.2.3,120.09945228074372,
8,1,0,1,1,3,2,2,2,1,1,0,1,1,0,0,0,40,40,40,1,0,1,0,,,,,,,,,0.7221641610754619,317.4747547021434,None,"[87. 93. 93. 93. 87. 93. 87. 93. 87. 93. 87. 93. 87. 87. 87. 93. 93. 87.
 93. 93. 93. 93. 93. 93. 93. 87. 87. 93. 93. 93. 87. 87. 87. 87.]",318.2823832618251,None,l,1,0.6015024528278445,318.2823832618251,None,None,None,09_BC,28,F,9,2021_Oct_30_1521,Partial repeat,2021.2.3,120.09945228074372,
8,1,0,1,1,3,2,2,2,1,1,0,1,1,0,0,0,40,40,40,,,,,,,,,,,,,,,,,,,,,,,,,,09_BC,28,F,9,2021_Oct_30_1521,Partial repeat,2021.2.3,120.09945228074372,
1,3,0,1,1,2,3,3,3,0,1,0,1,0,0,0,0,41,41,41,0,0,0,0,,,,,,,318.898535493061,None,0.7726048637583489,319.52300286782156,None,"[93. 87. 93. 93. 93. 87. 87. 93. 87. 93. 93. 93. 87. 87. 87. 87. 87. 93.
 87. 87. 93. 87. 87. 87. 87. 87. 93. 87. 93. 93. 87. 93. 93. 87.]",320.38060054277594,None,s,1,0.7113234753542201,320.38060054277594,None,None,None,09_BC,28,F,9,2021_Oct_30_1521,Partial repeat,2021.2.3,120.09945228074372,
1,3,0,1,1,2,3,3,3,0,1,0,1,0,0,0,0,41,41,41,1,0,1,0,,,,,,,,,0.9049544368735696,321.16325801479434,None,"[93. 87. 87. 87. 87. 87. 87. 93. 87. 93. 87. 93. 93. 93. 87. 93. 93. 87.
 87. 93. 93. 87. 93. 87. 93. 93. 93. 93. 93. 93. 87. 93. 93. 87.]",322.15408432075674,None,l,1,0.8575887966471782,322.15408432075674,None,None,None,09_BC,28,F,9,2021_Oct_30_1521,Partial repeat,2021.2.3,120.09945228074372,
1,3,0,1,1,2,3,3,3,0,1,0,1,0,0,0,0,41,41,41,,,,,,,,,,,,,,,,,,,,,,,,,,09_BC,28,F,9,2021_Oct_30_1521,Partial repeat,2021.2.3,120.09945228074372,
4,8,0,1,1,2,2,3,3,0,0,1,1,1,0,0,0,42,42,42,0,0,0,0,,,,,,,323.0200077227855,None,0.878894549857824,323.5279081835215,None,"[93. 93. 87. 93. 93. 87. 87. 93. 93. 87. 87. 87. 87. 93. 87. 87. 87. 87.
 87. 87. 93. 87. 93. 93. 87. 93. 87. 87. 93. 93. 93. 93. 87. 87.]",324.48542388405986,None,s,1,1.134555204454955,324.48542388405986,None,None,None,09_BC,28,F,9,2021_Oct_30_1521,Partial repeat,2021.2.3,120.09945228074372,
4,8,0,1,1,2,2,3,3,0,0,1,1,1,0,0,0,42,42,42,1,0,1,0,,,,,,,,,0.9140355152809693,325.6843956118664,None,"[93. 93. 93. 93. 87. 87. 87. 93. 87. 93. 87. 93. 93. 93. 93. 87. 93. 87.
 93. 87. 87. 87. 87. 87. 93. 87. 87. 87. 87. 93. 93. 87. 93. 87.]",326.67522352139713,None,s,1,0.5767818425483711,326.67522352139713,None,None,None,09_BC,28,F,9,2021_Oct_30_1521,Partial repeat,2021.2.3,120.09945228074372,
4,8,0,1,1,2,2,3,3,0,0,1,1,1,0,0,0,42,42,42,,,,,,,,,,,,,,,,,,,,,,,,,,09_BC,28,F,9,2021_Oct_30_1521,Partial repeat,2021.2.3,120.09945228074372,
3,6,0,1,1,3,3,2,2,1,0,1,1,0,0,0,0,43,43,43,0,0,0,0,,,,,,,327.27470505566635,None,0.7932928420110265,327.7992694783843,None,"[87. 93. 87. 87. 87. 93. 93. 93. 87. 93. 93. 93. 87. 87. 87. 87. 93. 87.
 87. 93. 87. 87. 93. 87. 87. 93. 93. 87. 93. 87. 87. 93. 93. 93.]",328.68181835675205,None,l,1,0.6332232805507374,328.68181835675205,None,None,None,09_BC,28,F,9,2021_Oct_30_1521,Partial repeat,2021.2.3,120.09945228074372,
3,6,0,1,1,3,3,2,2,1,0,1,1,0,0,0,0,43,43,43,1,0,1,0,,,,,,,,,0.9778831397700498,329.3729056595057,None,"[87. 93. 87. 93. 87. 93. 87. 87. 93. 93. 93. 87. 87. 87. 87. 87. 93. 87.
 87. 87. 93. 87. 93. 87. 93. 93. 87. 93. 93. 87. 93. 87. 93. 93.]",330.4386667162689,None,s,1,0.8444029745005537,330.4386667162689,None,None,None,09_BC,28,F,9,2021_Oct_30_1521,Partial repeat,2021.2.3,120.09945228074372,
3,6,0,1,1,3,3,2,2,1,0,1,1,0,0,0,0,43,43,43,,,,,,,,,,,,,,,,,,,,,,,,,,09_BC,28,F,9,2021_Oct_30_1521,Partial repeat,2021.2.3,120.09945228074372,
3,3,0,1,1,2,2,3,3,1,1,1,1,1,0,0,0,44,44,44,0,0,0,0,,,,,,,331.31291873179543,None,0.8577527537629845,331.9207375388305,None,"[93. 93. 87. 93. 87. 87. 93. 93. 93. 87. 87. 93. 93. 87. 87. 87. 93. 87.
 93. 93. 93. 87. 87. 93. 93. 87. 87. 87. 93. 87. 87. 93. 87. 93.]",332.8615876738186,None,l,1,0.6295190375731181,332.8615876738186,None,None,None,09_BC,28,F,9,2021_Oct_30_1521,Partial repeat,2021.2.3,120.09945228074372,
3,3,0,1,1,2,2,3,3,1,1,1,1,1,0,0,0,44,44,44,1,0,1,0,,,,,,,,,0.816086907021601,333.5526669587289,None,"[93. 93. 87. 93. 93. 87. 93. 93. 87. 93. 87. 93. 93. 93. 93. 93. 93. 93.
 87. 87. 93. 87. 93. 87. 87. 93. 87. 87. 87. 87. 87. 87. 87. 93.]",334.4435803705255,None,l,1,0.615565106169015,334.4435803705255,None,None,None,09_BC,28,F,9,2021_Oct_30_1521,Partial repeat,2021.2.3,120.09945228074372,
3,3,0,1,1,2,2,3,3,1,1,1,1,1,0,0,0,44,44,44,,,,,,,,,,,,,,,,,,,,,,,,,,09_BC,28,F,9,2021_Oct_30_1521,Partial repeat,2021.2.3,120.09945228074372,
2,6,0,1,1,2,2,2,3,0,1,1,0,0,0,0,0,45,45,45,0,0,0,0,,,,,,,335.07636513380385,None,0.8893754737347004,335.59259132161606,None,"[87. 93. 93. 87. 87. 93. 93. 93. 87. 87. 87. 93. 93. 87. 93. 87. 93. 87.
 87. 87. 93. 93. 87. 87. 93. 93. 87. 93. 93. 87. 87. 93. 87. 93.]",336.55843820136033,None,s,1,0.7251555355596793,336.55843820136033,None,None,None,09_BC,28,F,9,2021_Oct_30_1521,Partial repeat,2021.2.3,120.09945228074372,
2,6,0,1,1,2,2,2,3,0,1,1,0,0,0,0,0,45,45,45,1,0,1,0,,,,,,,,,0.9583710811725157,337.3494265318732,None,"[87. 93. 87. 87. 93. 93. 93. 93. 87. 93. 93. 93. 93. 93. 93. 93. 87. 87.
 87. 87. 87. 93. 87. 93. 93. 93. 93. 87. 87. 93. 93. 93. 87. 87.]",338.3818846803406,None,l,1,0.5813247517926357,338.3818846803406,None,None,None,09_BC,28,F,9,2021_Oct_30_1521,Partial repeat,2021.2.3,120.09945228074372,
2,6,0,1,1,2,2,2,3,0,1,1,0,0,0,0,0,45,45,45,,,,,,,,,,,,,,,,,,,,,,,,,,09_BC,28,F,9,2021_Oct_30_1521,Partial repeat,2021.2.3,120.09945228074372,
7,7,0,1,1,2,3,3,2,0,0,0,0,1,0,0,0,46,46,46,0,0,0,0,,,,,,,338.9813649317548,None,0.7851904511067855,339.4809569839563,None,"[93. 93. 87. 87. 87. 93. 87. 93. 87. 87. 87. 93. 93. 93. 93. 93. 87. 87.
 87. 93. 87. 87. 87. 93. 87. 93. 93. 93. 87. 93. 87. 87. 87. 87.]",340.3468723681435,None,s,1,0.6003555807146768,340.3468723681435,None,None,None,09_BC,28,F,9,2021_Oct_30_1521,Partial repeat,2021.2.3,120.09945228074372,
7,7,0,1,1,2,3,3,2,0,0,0,0,1,0,0,0,46,46,46,1,0,1,0,,,,,,,,,0.7414639731070514,341.00462789837,None,"[87. 93. 93. 87. 87. 87. 93. 93. 93. 93. 87. 87. 87. 93. 87. 87. 93. 93.
 87. 93. 93. 93. 87. 93. 93. 93. 93. 87. 87. 87. 93. 87. 93. 93.]",341.82060752150574,None,s,1,0.6776745169972855,341.82060752150574,None,None,None,09_BC,28,F,9,2021_Oct_30_1521,Partial repeat,2021.2.3,120.09945228074372,
7,7,0,1,1,2,3,3,2,0,0,0,0,1,0,0,0,46,46,46,,,,,,,,,,,,,,,,,,,,,,,,,,09_BC,28,F,9,2021_Oct_30_1521,Partial repeat,2021.2.3,120.09945228074372,
4,6,0,1,1,3,2,2,3,1,1,0,0,1,0,0,0,47,47,47,0,0,0,0,,,,,,,342.5116755814379,None,0.9526853438530909,343.0778570938328,None,"[93. 87. 93. 93. 93. 93. 87. 87. 87. 87. 87. 93. 87. 87. 87. 87. 93. 93.
 87. 93. 87. 87. 93. 93. 93. 93. 93. 87. 93. 87. 87. 87. 87. 93.]",344.11031844943864,None,l,1,0.5479910549838678,344.11031844943864,None,None,None,09_BC,28,F,9,2021_Oct_30_1521,Partial repeat,2021.2.3,120.09945228074372,
4,6,0,1,1,3,2,2,3,1,1,0,0,1,0,0,0,47,47,47,1,0,1,0,,,,,,,,,0.8936171064582638,344.72645496570476,None,"[93. 93. 93. 93. 93. 87. 93. 87. 87. 87. 93. 93. 93. 87. 87. 93. 93. 87.
 93. 93. 93. 93. 93. 93. 87. 87. 93. 93. 87. 87. 93. 87. 87. 87.]",345.7089491303195,None,l,1,0.6614925876747293,345.7089491303195,None,None,None,09_BC,28,F,9,2021_Oct_30_1521,Partial repeat,2021.2.3,120.09945228074372,
4,6,0,1,1,3,2,2,3,1,1,0,0,1,0,0,0,47,47,47,,,,,,,,,,,,,,,,,,,,,,,,,,09_BC,28,F,9,2021_Oct_30_1521,Partial repeat,2021.2.3,120.09945228074372,
6,4,0,1,1,2,2,2,3,0,0,1,0,1,0,0,0,48,48,48,0,0,0,0,,,,,,,346.3916956324556,None,0.7649637421721905,346.90793336595925,None,"[87. 87. 93. 93. 87. 87. 93. 93. 87. 93. 87. 93. 87. 93. 93. 87. 93. 93.
 87. 93. 87. 87. 87. 93. 87. 93. 93. 87. 87. 93. 93. 93. 93. 87.]",347.7488770210566,None,l,0,0.6054821888537845,347.7488770210566,None,348.3650189894561,None,09_BC,28,F,9,2021_Oct_30_1521,Partial repeat,2021.2.3,120.09945228074372,
6,4,0,1,1,2,2,2,3,0,0,1,0,1,0,0,0,48,48,48,1,0,1,0,,,,,,,,,0.7794528666281859,348.93119023901454,None,"[87. 87. 87. 93. 93. 93. 87. 93. 93. 87. 93. 93. 87. 93. 87. 87. 93. 93.
 93. 93. 93. 87. 93. 87. 93. 87. 87. 93. 93. 93. 87. 93. 87. 87.]",349.78879496966874,None,s,1,0.7735906773123133,349.78879496966874,None,None,None,09_BC,28,F,9,2021_Oct_30_1521,Partial repeat,2021.2.3,120.09945228074372,
6,4,0,1,1,2,2,2,3,0,0,1,0,1,0,0,0,48,48,48,,,,,,,,,,,,,,,,,,,,,,,,,,09_BC,28,F,9,2021_Oct_30_1521,Partial repeat,2021.2.3,120.09945228074372,
5,6,0,1,1,3,2,2,2,0,1,0,1,0,0,0,0,49,49,49,0,0,0,0,,,,,,,350.579782658755,None,0.7155932542869662,351.3874208398465,None,"[93. 93. 87. 93. 93. 87. 87. 87. 93. 87. 87. 93. 93. 93. 87. 87. 87. 93.
 87. 87. 93. 87. 87. 93. 93. 93. 87. 93. 87. 93. 93. 87. 93. 93.]",352.1784130189226,None,s,1,0.8320275958176353,352.1784130189226,None,None,None,09_BC,28,F,9,2021_Oct_30_1521,Partial repeat,2021.2.3,120.09945228074372,
5,6,0,1,1,3,2,2,2,0,1,0,1,0,0,0,0,49,49,49,1,0,1,0,,,,,,,,,0.704613397849666,353.0776473470887,None,"[87. 93. 87. 87. 93. 87. 93. 93. 87. 93. 93. 87. 93. 93. 93. 93. 87. 93.
 93. 93. 93. 93. 87. 87. 87. 87. 87. 87. 93. 87. 87. 93. 87. 93.]",353.8603176476536,None,l,1,0.8461255276633892,353.8603176476536,None,None,None,09_BC,28,F,9,2021_Oct_30_1521,Partial repeat,2021.2.3,120.09945228074372,
5,6,0,1,1,3,2,2,2,0,1,0,1,0,0,0,0,49,49,49,,,,,,,,,,,,,,,,,,,,,,,,,,09_BC,28,F,9,2021_Oct_30_1521,Partial repeat,2021.2.3,120.09945228074372,
6,1,0,1,1,3,2,2,3,0,1,0,0,0,0,0,0,50,50,50,0,0,0,0,,,,,,,354.72624169110895,None,0.810184400483596,355.4339599223349,None,"[87. 93. 93. 93. 93. 87. 87. 93. 93. 93. 93. 93. 87. 93. 87. 93. 93. 93.
 87. 87. 93. 93. 93. 93. 93. 87. 87. 93. 93. 87. 87. 93. 93. 93.]",356.3248823141148,None,s,1,0.8618741728078021,356.3248823141148,None,None,None,09_BC,28,F,9,2021_Oct_30_1521,Partial repeat,2021.2.3,120.09945228074372,
6,1,0,1,1,3,2,2,3,0,1,0,0,0,0,0,0,50,50,50,1,0,1,0,,,,,,,,,0.802590833097292,357.24907939138757,None,"[93. 87. 87. 87. 87. 87. 87. 87. 93. 93. 93. 93. 87. 93. 93. 93. 93. 87.
 87. 93. 93. 93. 87. 93. 93. 93. 93. 93. 93. 93. 93. 93. 87. 93.]",358.13167349038486,None,l,1,0.6218841277604952,358.13167349038486,None,None,None,09_BC,28,F,9,2021_Oct_30_1521,Partial repeat,2021.2.3,120.09945228074372,
6,1,0,1,1,3,2,2,3,0,1,0,0,0,0,0,0,50,50,50,,,,,,,,,,,,,,,,,,,,,,,,,,09_BC,28,F,9,2021_Oct_30_1521,Partial repeat,2021.2.3,120.09945228074372,
2,1,0,1,1,2,3,2,2,0,1,0,1,0,0,0,0,51,51,51,0,0,0,0,,,,,,,358.77278141502757,None,0.8666061428858748,359.30565713270335,None,"[93. 87. 93. 93. 93. 87. 93. 93. 93. 87. 93. 87. 87. 93. 93. 93. 87. 87.
 87. 93. 93. 87. 87. 93. 87. 87. 93. 93. 87. 87. 93. 87. 87. 93.]",360.24651336125135,None,s,1,0.7150610725529987,360.24651336125135,None,None,None,09_BC,28,F,9,2021_Oct_30_1521,Partial repeat,2021.2.3,120.09945228074372,
2,1,0,1,1,2,3,2,2,0,1,0,1,0,0,0,0,51,51,51,1,0,1,0,,,,,,,,,0.9335049693809575,361.0208528033254,None,"[87. 93. 93. 93. 87. 87. 93. 87. 87. 87. 87. 87. 93. 87. 93. 87. 93. 93.
 87. 87. 93. 87. 93. 93. 87. 93. 93. 87. 93. 87. 93. 87. 87. 93.]",362.0283315255765,None,l,1,0.7101544739962264,362.0283315255765,None,None,None,09_BC,28,F,9,2021_Oct_30_1521,Partial repeat,2021.2.3,120.09945228074372,
2,1,0,1,1,2,3,2,2,0,1,0,1,0,0,0,0,51,51,51,,,,,,,,,,,,,,,,,,,,,,,,,,09_BC,28,F,9,2021_Oct_30_1521,Partial repeat,2021.2.3,120.09945228074372,
2,4,0,1,1,2,3,2,2,1,0,0,1,0,0,0,0,52,52,52,0,0,0,0,,,,,,,362.76103848371713,None,0.9706449549004155,363.3521920459152,None,"[93. 87. 87. 87. 93. 93. 93. 87. 87. 93. 87. 87. 87. 93. 93. 93. 87. 93.
 93. 87. 87. 93. 87. 93. 93. 87. 93. 93. 87. 93. 93. 93. 87. 93.]",364.4013051763832,None,l,1,1.1683144883136265,364.4013051763832,None,None,None,09_BC,28,F,9,2021_Oct_30_1521,Partial repeat,2021.2.3,120.09945228074372,
2,4,0,1,1,2,3,2,2,1,0,0,1,0,0,0,0,52,52,52,1,0,1,0,,,,,,,,,0.8940079419347968,365.6335910374637,None,"[87. 87. 93. 87. 87. 87. 93. 87. 87. 87. 93. 93. 87. 87. 87. 93. 93. 93.
 87. 87. 87. 93. 87. 93. 87. 93. 87. 87. 87. 87. 93. 93. 93. 93.]",366.6077476085975,None,s,1,0.81791330757369,366.6077476085975,None,None,None,09_BC,28,F,9,2021_Oct_30_1521,Partial repeat,2021.2.3,120.09945228074372,
2,4,0,1,1,2,3,2,2,1,0,0,1,0,0,0,0,52,52,52,,,,,,,,,,,,,,,,,,,,,,,,,,09_BC,28,F,9,2021_Oct_30_1521,Partial repeat,2021.2.3,120.09945228074372,
1,5,0,1,1,3,3,3,2,1,0,1,0,0,0,0,0,53,53,53,0,0,0,0,,,,,,,367.4486967158264,None,0.8521286640627238,367.9565994215609,None,"[87. 93. 93. 93. 87. 87. 93. 93. 93. 87. 87. 93. 87. 87. 93. 93. 87. 93.
 93. 93. 87. 93. 93. 93. 87. 93. 93. 87. 87. 93. 87. 93. 93. 93.]",368.89747168579197,None,l,1,0.6722512487067434,368.89747168579197,None,None,None,09_BC,28,F,9,2021_Oct_30_1521,Partial repeat,2021.2.3,120.09945228074372,
1,5,0,1,1,3,3,3,2,1,0,1,0,0,0,0,0,53,53,53,1,0,1,0,,,,,,,,,0.8341104802144113,369.6301606839661,None,"[93. 93. 93. 93. 93. 87. 87. 87. 87. 93. 87. 87. 93. 93. 93. 93. 87. 93.
 87. 87. 87. 87. 93. 93. 93. 93. 93. 87. 93. 87. 93. 93. 93. 87.]",370.54605416340746,None,s,1,0.7996675857339142,370.54605416340746,None,None,None,09_BC,28,F,9,2021_Oct_30_1521,Partial repeat,2021.2.3,120.09945228074372,
1,5,0,1,1,3,3,3,2,1,0,1,0,0,0,0,0,53,53,53,,,,,,,,,,,,,,,,,,,,,,,,,,09_BC,28,F,9,2021_Oct_30_1521,Partial repeat,2021.2.3,120.09945228074372,
8,5,0,1,1,3,2,3,3,1,0,0,1,0,0,0,0,54,54,54,0,0,0,0,,,,,,,371.3703466850711,None,0.8106355503754885,371.9448503966905,None,"[93. 93. 93. 87. 93. 87. 93. 93. 93. 93. 93. 93. 87. 93. 93. 93. 93. 87.
 93. 93. 87. 87. 93. 93. 93. 93. 87. 87. 87. 93. 87. 87. 93. 87.]",372.84408408342824,None,l,1,0.6936604902639374,372.84408408342824,None,None,None,09_BC,28,F,9,2021_Oct_30_1521,Partial repeat,2021.2.3,120.09945228074372,
8,5,0,1,1,3,2,3,3,1,0,0,1,0,0,0,0,54,54,54,1,0,1,0,,,,,,,,,0.9019717502348936,373.6017723920686,None,"[87. 93. 87. 93. 87. 93. 93. 93. 87. 87. 87. 87. 87. 93. 93. 87. 93. 87.
 93. 87. 93. 87. 93. 93. 93. 93. 93. 87. 87. 87. 93. 93. 87. 93.]",374.58424603100684,None,s,1,0.7125380180514185,374.58424603100684,None,None,None,09_BC,28,F,9,2021_Oct_30_1521,Partial repeat,2021.2.3,120.09945228074372,
8,5,0,1,1,3,2,3,3,1,0,0,1,0,0,0,0,54,54,54,,,,,,,,,,,,,,,,,,,,,,,,,,09_BC,28,F,9,2021_Oct_30_1521,Partial repeat,2021.2.3,120.09945228074372,
2,2,0,1,1,3,3,2,2,0,0,1,1,1,0,0,0,55,55,55,0,0,0,0,,,,,,,375.30864682560787,None,0.8200408371178884,375.81654536206224,None,"[93. 93. 87. 93. 93. 93. 87. 87. 87. 87. 93. 93. 87. 87. 93. 93. 93. 87.
 93. 93. 93. 93. 93. 93. 87. 87. 87. 93. 87. 93. 87. 87. 93. 93.]",376.72410413444777,None,s,1,0.8927239421846025,376.72410413444777,None,None,None,09_BC,28,F,9,2021_Oct_30_1521,Partial repeat,2021.2.3,120.09945228074372,
2,2,0,1,1,3,3,2,2,0,0,1,1,1,0,0,0,55,55,55,1,0,1,0,,,,,,,,,0.7725086214712881,377.6732867314968,None,"[93. 87. 87. 87. 93. 87. 87. 87. 87. 93. 93. 93. 87. 87. 93. 93. 93. 87.
 93. 87. 87. 87. 93. 93. 87. 93. 93. 87. 93. 93. 93. 87. 93. 93.]",378.5225660557917,None,s,1,1.2542827517718251,378.5225660557917,None,None,None,09_BC,28,F,9,2021_Oct_30_1521,Partial repeat,2021.2.3,120.09945228074372,
2,2,0,1,1,3,3,2,2,0,0,1,1,1,0,0,0,55,55,55,,,,,,,,,,,,,,,,,,,,,,,,,,09_BC,28,F,9,2021_Oct_30_1521,Partial repeat,2021.2.3,120.09945228074372,
3,4,0,1,1,2,2,2,3,1,1,1,0,1,0,0,0,56,56,56,0,0,0,0,,,,,,,379.7964741379692,None,0.7702687131291275,380.5541550701946,None,"[93. 87. 93. 87. 93. 87. 93. 93. 87. 93. 93. 87. 93. 93. 93. 93. 87. 87.
 93. 87. 87. 93. 87. 87. 93. 87. 93. 93. 93. 87. 93. 87. 93. 93.]",381.4117729501104,None,l,1,0.893108798596586,381.4117729501104,None,None,None,09_BC,28,F,9,2021_Oct_30_1521,Partial repeat,2021.2.3,120.09945228074372,
3,4,0,1,1,2,2,2,3,1,1,1,0,1,0,0,0,56,56,56,1,0,1,0,,,,,,,,,0.7573458076284878,382.3609571507277,None,"[93. 93. 87. 93. 87. 87. 87. 93. 93. 93. 87. 93. 87. 93. 87. 93. 93. 87.
 93. 87. 87. 87. 87. 93. 87. 93. 87. 87. 93. 87. 87. 87. 87. 93.]",383.20190176796496,None,l,1,0.8950314770954719,383.20190176796496,None,None,None,09_BC,28,F,9,2021_Oct_30_1521,Partial repeat,2021.2.3,120.09945228074372,
3,4,0,1,1,2,2,2,3,1,1,1,0,1,0,0,0,56,56,56,,,,,,,,,,,,,,,,,,,,,,,,,,09_BC,28,F,9,2021_Oct_30_1521,Partial repeat,2021.2.3,120.09945228074372,
6,8,0,1,1,3,3,3,2,0,1,1,0,0,0,0,0,57,57,57,0,0,0,0,,,,,,,384.1177830602883,None,0.7354220100152294,384.8671417932892,None,"[93. 87. 93. 93. 93. 87. 93. 87. 87. 93. 93. 93. 87. 87. 87. 87. 93. 87.
 87. 87. 87. 93. 93. 87. 87. 93. 93. 93. 93. 93. 87. 87. 93. 93.]",385.6914375220895,None,s,1,0.5655225474638428,385.6914375220895,None,None,None,09_BC,28,F,9,2021_Oct_30_1521,Partial repeat,2021.2.3,120.09945228074372,
6,8,0,1,1,3,3,3,2,0,1,1,0,0,0,0,0,57,57,57,1,0,1,0,,,,,,,,,0.8498763874302937,386.3075769247789,None,"[93. 87. 87. 87. 87. 93. 87. 93. 93. 93. 93. 87. 87. 87. 93. 93. 87. 87.
 93. 87. 87. 93. 93. 93. 93. 87. 87. 87. 87. 87. 93. 87. 93. 93.]",387.23178683059814,None,l,1,0.9611918223872635,387.23178683059814,None,None,None,09_BC,28,F,9,2021_Oct_30_1521,Partial repeat,2021.2.3,120.09945228074372,
6,8,0,1,1,3,3,3,2,0,1,1,0,0,0,0,0,57,57,57,,,,,,,,,,,,,,,,,,,,,,,,,,09_BC,28,F,9,2021_Oct_30_1521,Partial repeat,2021.2.3,120.09945228074372,
5,3,0,1,1,2,2,3,3,1,0,1,1,0,0,0,0,58,58,58,0,0,0,0,,,,,,,388.2226051187172,None,0.7897073198238597,388.73882617511117,None,"[93. 87. 93. 87. 93. 87. 87. 93. 93. 93. 93. 93. 87. 87. 93. 87. 87. 93.
 87. 87. 87. 93. 93. 87. 87. 87. 93. 87. 93. 87. 87. 87. 87. 87.]",389.60475567069807,None,l,1,0.6993053717069415,389.60475567069807,None,None,None,09_BC,28,F,9,2021_Oct_30_1521,Partial repeat,2021.2.3,120.09945228074372,
5,3,0,1,1,2,2,3,3,1,0,1,1,0,0,0,0,58,58,58,1,0,1,0,,,,,,,,,0.8000444553065348,390.3541137622724,None,"[87. 87. 87. 93. 87. 93. 93. 87. 93. 87. 87. 93. 93. 93. 87. 87. 87. 87.
 93. 93. 87. 87. 87. 93. 93. 87. 93. 87. 87. 87. 87. 87. 87. 93.]",391.2283721920703,None,s,1,0.6276627468068909,391.2283721920703,None,None,None,09_BC,28,F,9,2021_Oct_30_1521,Partial repeat,2021.2.3,120.09945228074372,
5,3,0,1,1,2,2,3,3,1,0,1,1,0,0,0,0,58,58,58,,,,,,,,,,,,,,,,,,,,,,,,,,09_BC,28,F,9,2021_Oct_30_1521,Partial repeat,2021.2.3,120.09945228074372,
3,2,0,1,1,3,3,2,2,0,1,1,1,0,0,0,0,59,59,59,0,0,0,0,,,,,,,391.87780969235246,None,0.7848174433773755,392.3440898562749,None,"[87. 93. 87. 87. 87. 87. 93. 87. 87. 93. 93. 87. 87. 93. 87. 87. 93. 87.
 93. 87. 93. 87. 93. 87. 87. 93. 93. 93. 87. 87. 93. 93. 87. 87.]",393.21001069259364,None,s,1,0.7587092419507826,393.21001069259364,None,None,None,09_BC,28,F,9,2021_Oct_30_1521,Partial repeat,2021.2.3,120.09945228074372,
3,2,0,1,1,3,3,2,2,0,1,1,1,0,0,0,0,59,59,59,1,0,1,0,,,,,,,,,0.8242236845277964,394.0343057799655,None,"[93. 87. 93. 93. 87. 93. 93. 87. 93. 87. 93. 87. 93. 93. 93. 93. 87. 93.
 87. 93. 87. 87. 87. 87. 93. 87. 93. 93. 93. 93. 87. 93. 87. 93.]",394.93354267383984,None,l,1,0.5225738545959757,394.93354267383984,None,None,None,09_BC,28,F,9,2021_Oct_30_1521,Partial repeat,2021.2.3,120.09945228074372,
3,2,0,1,1,3,3,2,2,0,1,1,1,0,0,0,0,59,59,59,,,,,,,,,,,,,,,,,,,,,,,,,,09_BC,28,F,9,2021_Oct_30_1521,Partial repeat,2021.2.3,120.09945228074372,
3,8,0,1,1,2,3,2,3,1,0,0,0,0,0,0,0,60,60,60,0,0,0,0,,,,,,,395.47474219431024,None,0.8880572564157465,395.87440178881116,None,"[87. 93. 93. 93. 87. 87. 87. 87. 93. 87. 87. 87. 87. 93. 93. 87. 87. 93.
 87. 87. 93. 93. 93. 93. 87. 93. 87. 93. 93. 87. 87. 87. 87. 87.]",396.8485663777883,None,l,1,0.7355604494059662,396.8485663777883,None,None,None,09_BC,28,F,9,2021_Oct_30_1521,Partial repeat,2021.2.3,120.09945228074372,
3,8,0,1,1,2,3,2,3,1,0,0,0,0,0,0,0,60,60,60,1,0,1,0,,,,,,,,,0.7670635747184187,397.64786343754895,None,"[93. 87. 87. 87. 93. 87. 87. 87. 93. 93. 93. 87. 87. 93. 93. 93. 93. 93.
 87. 87. 93. 87. 87. 87. 87. 87. 87. 87. 93. 93. 87. 93. 87. 93.]",398.49716136323696,None,s,1,0.6385320540593966,398.49716136323696,None,None,None,09_BC,28,F,9,2021_Oct_30_1521,Partial repeat,2021.2.3,120.09945228074372,
3,8,0,1,1,2,3,2,3,1,0,0,0,0,0,0,0,60,60,60,,,,,,,,,,,,,,,,,,,,,,,,,,09_BC,28,F,9,2021_Oct_30_1521,Partial repeat,2021.2.3,120.09945228074372,
1,6,0,1,1,3,3,2,2,1,1,1,1,1,0,0,0,61,61,61,0,0,0,0,,,,,,,399.1549268355884,None,0.7332950035799285,399.5712433363715,None,"[87. 93. 87. 87. 87. 93. 93. 93. 87. 93. 93. 93. 93. 93. 93. 93. 93. 93.
 93. 93. 93. 93. 93. 87. 93. 93. 93. 87. 93. 93. 87. 93. 87. 93.]",400.387207885964,None,l,1,0.5889962229648518,400.387207885964,None,None,None,09_BC,28,F,9,2021_Oct_30_1521,Partial repeat,2021.2.3,120.09945228074372,
1,6,0,1,1,3,3,2,2,1,1,1,1,1,0,0,0,61,61,61,1,0,1,0,,,,,,,,,0.7367995661814006,401.044981376157,None,"[93. 93. 93. 93. 87. 87. 87. 87. 93. 87. 93. 87. 93. 93. 87. 93. 87. 87.
 93. 93. 87. 87. 87. 93. 93. 87. 87. 93. 87. 93. 87. 93. 93. 93.]",401.86927069068224,None,l,1,0.7869358941552491,401.86927069068224,None,None,None,09_BC,28,F,9,2021_Oct_30_1521,Partial repeat,2021.2.3,120.09945228074372,
1,6,0,1,1,3,3,2,2,1,1,1,1,1,0,0,0,61,61,61,,,,,,,,,,,,,,,,,,,,,,,,,,09_BC,28,F,9,2021_Oct_30_1521,Partial repeat,2021.2.3,120.09945228074372,
1,8,0,1,1,3,2,3,3,0,1,0,1,0,0,0,0,62,62,62,0,0,0,0,,,,,,,402.6769200967519,None,0.7585925723018339,403.3346897383799,None,"[93. 93. 87. 87. 93. 87. 87. 87. 93. 87. 87. 87. 93. 93. 93. 87. 93. 87.
 93. 93. 87. 87. 93. 93. 93. 87. 93. 87. 87. 87. 87. 93. 93. 93.]",404.1673144013912,None,s,1,0.7119719584079576,404.1673144013912,None,None,None,09_BC,28,F,9,2021_Oct_30_1521,Partial repeat,2021.2.3,120.09945228074372,
1,8,0,1,1,3,2,3,3,0,1,0,1,0,0,0,0,62,62,62,1,0,1,0,,,,,,,,,0.7334949514465291,404.9499731562646,None,"[87. 93. 93. 87. 87. 93. 87. 93. 93. 93. 93. 87. 87. 93. 93. 87. 93. 93.
 93. 87. 87. 93. 93. 93. 93. 87. 87. 93. 87. 87. 87. 87. 93. 87.]",405.75761807234267,None,l,1,0.8336728569847764,405.75761807234267,None,None,None,09_BC,28,F,9,2021_Oct_30_1521,Partial repeat,2021.2.3,120.09945228074372,
1,8,0,1,1,3,2,3,3,0,1,0,1,0,0,0,0,62,62,62,,,,,,,,,,,,,,,,,,,,,,,,,,09_BC,28,F,9,2021_Oct_30_1521,Partial repeat,2021.2.3,120.09945228074372,
1,2,0,1,1,3,3,3,3,1,1,1,1,1,0,0,0,63,63,63,0,0,0,0,,,,,,,406.61521863372036,None,0.9420782748924714,407.2730017453232,None,"[87. 93. 93. 87. 87. 93. 93. 93. 93. 87. 87. 87. 93. 87. 93. 87. 87. 93.
 93. 87. 93. 93. 93. 87. 87. 93. 93. 93. 93. 87. 93. 87. 93. 87.]",408.3054403302576,None,l,1,0.6219569297663838,408.3054403302576,None,None,None,09_BC,28,F,9,2021_Oct_30_1521,Partial repeat,2021.2.3,120.09945228074372,
1,2,0,1,1,3,3,3,3,1,1,1,1,1,0,0,0,63,63,63,1,0,1,0,,,,,,,,,0.8863597448563746,408.98819420880864,None,"[87. 87. 87. 93. 93. 87. 93. 93. 87. 87. 87. 93. 93. 93. 87. 93. 93. 93.
 93. 93. 87. 93. 87. 87. 93. 93. 87. 87. 87. 93. 93. 87. 93. 87.]",409.95406802850266,None,l,1,0.7812842777275364,409.95406802850266,None,None,None,09_BC,28,F,9,2021_Oct_30_1521,Partial repeat,2021.2.3,120.09945228074372,
1,2,0,1,1,3,3,3,3,1,1,1,1,1,0,0,0,63,63,63,,,,,,,,,,,,,,,,,,,,,,,,,,09_BC,28,F,9,2021_Oct_30_1521,Partial repeat,2021.2.3,120.09945228074372,
2,2,0,1,1,2,2,3,2,0,0,1,0,1,1,0,0,64,64,64,0,0,0,0,,,,,,,414.24200412694336,None,0.8285698683723346,418.8131259128313,None,"[93. 93. 87. 93. 93. 93. 93. 87. 87. 93. 93. 87. 87. 93. 93. 93. 93. 87.
 87. 93. 93. 87. 87. 87. 93. 93. 93. 93. 87. 87. 93. 93. 87. 87.]",419.7206827609334,None,s,1,0.6618472970021685,419.7206827609334,None,None,None,09_BC,28,F,9,2021_Oct_30_1521,Partial repeat,2021.2.3,120.09945228074372,
2,2,0,1,1,2,2,3,2,0,0,1,0,1,1,0,0,64,64,64,1,0,1,0,,,,,,,,,0.9383663055475544,420.4367385856385,None,"[87. 93. 93. 87. 93. 87. 93. 93. 93. 87. 87. 87. 93. 87. 87. 87. 87. 87.
 87. 87. 87. 87. 87. 87. 87. 93. 93. 87. 93. 87. 87. 87. 87. 93.]",421.45254207282414,None,s,1,0.9139837311668089,421.45254207282414,None,None,None,09_BC,28,F,9,2021_Oct_30_1521,Partial repeat,2021.2.3,120.09945228074372,
2,2,0,1,1,2,2,3,2,0,0,1,0,1,1,0,0,64,64,64,,,,,,,,,,,,,,,,,,,,,,,,,,09_BC,28,F,9,2021_Oct_30_1521,Partial repeat,2021.2.3,120.09945228074372,
2,2,0,1,1,2,3,3,2,0,1,0,0,0,1,0,0,65,65,65,0,0,0,0,,,,,,,422.3933938113805,None,0.8472769015661985,423.6006976805347,None,"[87. 87. 93. 93. 87. 93. 87. 93. 93. 93. 93. 87. 87. 87. 93. 93. 93. 87.
 93. 93. 93. 93. 93. 93. 93. 93. 87. 93. 87. 93. 93. 87. 87. 93.]",424.52491175563046,None,s,1,0.8656582734929543,424.52491175563046,None,None,None,09_BC,28,F,9,2021_Oct_30_1521,Partial repeat,2021.2.3,120.09945228074372,
2,2,0,1,1,2,3,3,2,0,1,0,0,0,1,0,0,65,65,65,1,0,1,0,,,,,,,,,0.7024928944819846,425.4491206993098,None,"[93. 93. 93. 93. 87. 93. 93. 87. 93. 87. 87. 93. 93. 93. 93. 87. 93. 87.
 93. 87. 87. 93. 87. 87. 93. 87. 93. 93. 93. 93. 93. 87. 93. 93.]",426.23178554774313,None,l,1,2.374834853953871,426.23178554774313,None,None,None,09_BC,28,F,9,2021_Oct_30_1521,Partial repeat,2021.2.3,120.09945228074372,
2,2,0,1,1,2,3,3,2,0,1,0,0,0,1,0,0,65,65,65,,,,,,,,,,,,,,,,,,,,,,,,,,09_BC,28,F,9,2021_Oct_30_1521,Partial repeat,2021.2.3,120.09945228074372,
2,2,0,1,1,2,3,3,2,1,1,0,0,1,1,0,0,66,66,66,0,0,0,0,,,,,,,428.62140359699515,None,0.9071145123211208,429.3624388479184,None,"[93. 87. 93. 87. 87. 87. 93. 87. 87. 87. 93. 87. 87. 87. 87. 87. 93. 87.
 93. 87. 93. 93. 93. 87. 87. 87. 87. 93. 87. 93. 87. 87. 87. 87.]",430.35326002246256,None,l,1,0.7814378995790321,430.35326002246256,None,None,None,09_BC,28,F,9,2021_Oct_30_1521,Partial repeat,2021.2.3,120.09945228074372,
2,2,0,1,1,2,3,3,2,1,1,0,0,1,1,0,0,66,66,66,1,0,1,0,,,,,,,,,0.7426031222073307,431.2025274803509,None,"[93. 87. 87. 87. 93. 87. 93. 93. 87. 93. 93. 93. 87. 87. 87. 87. 93. 87.
 87. 87. 93. 93. 87. 93. 87. 87. 93. 87. 93. 87. 93. 87. 87. 93.]",432.0351559919254,None,l,1,0.6995324369909213,432.0351559919254,None,None,None,09_BC,28,F,9,2021_Oct_30_1521,Partial repeat,2021.2.3,120.09945228074372,
2,2,0,1,1,2,3,3,2,1,1,0,0,1,1,0,0,66,66,66,,,,,,,,,,,,,,,,,,,,,,,,,,09_BC,28,F,9,2021_Oct_30_1521,Partial repeat,2021.2.3,120.09945228074372,
2,2,0,1,1,2,2,2,3,1,0,1,0,0,1,0,0,67,67,67,0,0,0,0,,,,,,,432.7512070059256,None,0.9612272669831999,433.30073962988354,None,"[93. 87. 87. 87. 87. 93. 87. 87. 87. 87. 93. 87. 93. 93. 87. 87. 87. 87.
 93. 93. 93. 93. 93. 87. 87. 87. 93. 93. 93. 87. 87. 87. 93. 93.]",434.3415109975922,None,l,1,0.6170525762045145,434.3415109975922,None,None,None,09_BC,28,F,9,2021_Oct_30_1521,Partial repeat,2021.2.3,120.09945228074372,
2,2,0,1,1,2,2,2,3,1,0,1,0,0,1,0,0,67,67,67,1,0,1,0,,,,,,,,,0.879239697965983,435.0076288162509,None,"[93. 93. 87. 87. 87. 93. 87. 93. 93. 93. 87. 87. 87. 93. 93. 87. 87. 93.
 93. 93. 93. 93. 87. 87. 93. 87. 93. 93. 93. 93. 87. 93. 93. 93.]",435.9651384232293,None,s,1,0.8015322150567954,435.9651384232293,None,None,None,09_BC,28,F,9,2021_Oct_30_1521,Partial repeat,2021.2.3,120.09945228074372,
2,2,0,1,1,2,2,2,3,1,0,1,0,0,1,0,0,67,67,67,,,,,,,,,,,,,,,,,,,,,,,,,,09_BC,28,F,9,2021_Oct_30_1521,Partial repeat,2021.2.3,120.09945228074372,
2,2,0,1,1,3,3,2,2,0,0,1,1,1,1,0,0,68,68,68,0,0,0,0,,,,,,,436.78943030346454,None,0.8980990675767087,437.28066359508375,None,"[93. 87. 87. 87. 87. 87. 93. 87. 93. 87. 93. 87. 93. 87. 87. 93. 93. 87.
 93. 93. 87. 87. 87. 87. 93. 87. 93. 87. 93. 87. 93. 87. 87. 93.]",438.25484101260736,None,s,1,1.166972943001383,438.25484101260736,None,None,None,09_BC,28,F,9,2021_Oct_30_1521,Partial repeat,2021.2.3,120.09945228074372,
2,2,0,1,1,3,3,2,2,0,0,1,1,1,1,0,0,68,68,68,1,0,1,0,,,,,,,,,0.7983833742545555,439.48712013870136,None,"[93. 93. 87. 93. 93. 87. 93. 93. 87. 93. 93. 87. 93. 93. 87. 93. 93. 87.
 87. 87. 93. 93. 93. 87. 87. 93. 93. 87. 93. 93. 87. 93. 93. 93.]",440.36137311636776,None,s,1,0.836464348834852,440.36137311636776,None,None,None,09_BC,28,F,9,2021_Oct_30_1521,Partial repeat,2021.2.3,120.09945228074372,
2,2,0,1,1,3,3,2,2,0,0,1,1,1,1,0,0,68,68,68,,,,,,,,,,,,,,,,,,,,,,,,,,09_BC,28,F,9,2021_Oct_30_1521,Partial repeat,2021.2.3,120.09945228074372,
2,2,0,1,1,2,2,3,2,1,0,1,0,0,1,0,0,69,69,69,0,0,0,0,,,,,,,441.2106396121162,None,0.8402974245794542,441.77682721807105,None,"[87. 87. 93. 87. 87. 93. 93. 93. 87. 93. 87. 87. 93. 93. 93. 87. 87. 93.
 93. 87. 87. 87. 93. 93. 93. 93. 93. 87. 87. 87. 87. 87. 93. 87.]",442.6927139625259,None,l,1,0.7771515612748772,442.6927139625259,None,None,None,09_BC,28,F,9,2021_Oct_30_1521,Partial repeat,2021.2.3,120.09945228074372,
2,2,0,1,1,2,2,3,2,1,0,1,0,0,1,0,0,69,69,69,1,0,1,0,,,,,,,,,0.8963816495543078,443.53365857976314,None,"[87. 87. 93. 87. 87. 93. 93. 93. 93. 93. 93. 93. 93. 93. 93. 93. 93. 93.
 87. 93. 87. 93. 93. 93. 87. 93. 87. 93. 93. 87. 87. 93. 93. 87.]",444.50783535586015,None,s,1,0.8660710319945792,444.50783535586015,None,None,None,09_BC,28,F,9,2021_Oct_30_1521,Partial repeat,2021.2.3,120.09945228074372,
2,2,0,1,1,2,2,3,2,1,0,1,0,0,1,0,0,69,69,69,,,,,,,,,,,,,,,,,,,,,,,,,,09_BC,28,F,9,2021_Oct_30_1521,Partial repeat,2021.2.3,120.09945228074372,
2,2,0,1,1,3,2,2,3,0,1,0,0,0,1,0,0,70,70,70,0,0,0,0,,,,,,,445.3987102820156,None,0.8125344548761693,445.7817357409094,None,"[93. 87. 93. 87. 93. 93. 87. 87. 87. 93. 93. 93. 93. 87. 93. 93. 87. 87.
 87. 87. 93. 87. 93. 87. 87. 87. 87. 93. 87. 93. 93. 93. 93. 93.]",446.6809774454887,None,s,1,1.1889642798814748,446.6809774454887,None,None,None,09_BC,28,F,9,2021_Oct_30_1521,Partial repeat,2021.2.3,120.09945228074372,
2,2,0,1,1,3,2,2,3,0,1,0,0,0,1,0,0,70,70,70,1,0,1,0,,,,,,,,,0.7599541978893857,447.93822637639096,None,"[93. 93. 93. 87. 87. 93. 93. 87. 93. 87. 87. 87. 93. 87. 87. 93. 93. 93.
 93. 87. 87. 93. 93. 93. 93. 93. 87. 93. 93. 93. 93. 93. 93. 87.]",448.77917837004316,None,l,1,0.9307974664352514,448.77917837004316,None,None,None,09_BC,28,F,9,2021_Oct_30_1521,Partial repeat,2021.2.3,120.09945228074372,
2,2,0,1,1,3,2,2,3,0,1,0,0,0,1,0,0,70,70,70,,,,,,,,,,,,,,,,,,,,,,,,,,09_BC,28,F,9,2021_Oct_30_1521,Partial repeat,2021.2.3,120.09945228074372,
2,2,0,1,1,3,3,3,2,0,0,1,0,1,1,0,0,71,71,71,0,0,0,0,,,,,,,449.73668669416656,None,0.9139890861005042,450.62759305026157,None,"[93. 87. 93. 87. 93. 93. 93. 93. 93. 87. 93. 87. 87. 93. 87. 93. 87. 93.
 87. 93. 93. 93. 93. 93. 87. 93. 93. 87. 93. 93. 87. 87. 93. 87.]",451.61842929834893,None,s,1,0.7306583408408187,451.61842929834893,None,None,None,09_BC,28,F,9,2021_Oct_30_1521,Partial repeat,2021.2.3,120.09945228074372,
2,2,0,1,1,3,3,3,2,0,0,1,0,1,1,0,0,71,71,71,1,0,1,0,,,,,,,,,0.884047501913708,452.4094035174585,None,"[93. 93. 93. 87. 87. 87. 93. 87. 87. 87. 87. 87. 87. 87. 87. 93. 87. 87.
 93. 87. 93. 93. 87. 93. 87. 87. 93. 93. 93. 87. 93. 93. 93. 87.]",453.37524815220786,None,s,1,0.7977994285611203,453.37524815220786,None,None,None,09_BC,28,F,9,2021_Oct_30_1521,Partial repeat,2021.2.3,120.09945228074372,
2,2,0,1,1,3,3,3,2,0,0,1,0,1,1,0,0,71,71,71,,,,,,,,,,,,,,,,,,,,,,,,,,09_BC,28,F,9,2021_Oct_30_1521,Partial repeat,2021.2.3,120.09945228074372,
2,2,0,1,1,2,3,2,3,0,1,0,0,0,1,0,0,72,72,72,0,0,0,0,,,,,,,454.1995406738697,None,0.871408627479267,454.6907861526088,None,"[93. 87. 87. 87. 87. 93. 93. 87. 93. 93. 93. 93. 87. 93. 93. 87. 93. 87.
 93. 87. 87. 93. 87. 93. 93. 87. 93. 87. 93. 87. 93. 87. 87. 87.]",455.639985106056,None,s,1,1.2534591590465425,455.639985106056,None,None,None,09_BC,28,F,9,2021_Oct_30_1521,Partial repeat,2021.2.3,120.09945228074372,
2,2,0,1,1,2,3,2,3,0,1,0,0,0,1,0,0,72,72,72,1,0,1,0,,,,,,,,,0.8532879882917777,456.96384113640306,None,"[87. 87. 87. 87. 93. 87. 93. 93. 93. 93. 87. 93. 87. 87. 93. 93. 87. 93.
 87. 93. 93. 93. 93. 93. 87. 87. 87. 87. 93. 87. 87. 87. 87. 93.]",457.89638510785153,None,l,1,0.9007241448744026,457.89638510785153,None,None,None,09_BC,28,F,9,2021_Oct_30_1521,Partial repeat,2021.2.3,120.09945228074372,
2,2,0,1,1,2,3,2,3,0,1,0,0,0,1,0,0,72,72,72,,,,,,,,,,,,,,,,,,,,,,,,,,09_BC,28,F,9,2021_Oct_30_1521,Partial repeat,2021.2.3,120.09945228074372,
2,2,0,1,1,3,3,2,3,1,0,1,0,0,1,0,0,73,73,73,0,0,0,0,,,,,,,458.81227185230637,None,0.9702883034399434,459.3784411775832,None,"[93. 93. 93. 87. 93. 87. 93. 87. 93. 93. 93. 87. 93. 87. 93. 93. 93. 93.
 87. 87. 93. 87. 93. 93. 93. 93. 87. 93. 93. 87. 93. 93. 93. 87.]",460.43587490370555,None,l,1,1.0012948227922607,460.43587490370555,None,None,None,09_BC,28,F,9,2021_Oct_30_1521,Partial repeat,2021.2.3,120.09945228074372,
2,2,0,1,1,3,3,2,3,1,0,1,0,0,1,0,0,73,73,73,1,0,1,0,,,,,,,,,0.8134871625297736,461.50995495255665,None,"[87. 87. 87. 87. 87. 87. 87. 87. 87. 87. 93. 87. 93. 87. 87. 87. 93. 87.
 93. 93. 87. 93. 87. 87. 93. 93. 93. 93. 87. 87. 87. 93. 87. 87.]",462.4008712507766,None,s,1,1.0523213310625579,462.4008712507766,None,None,None,09_BC,28,F,9,2021_Oct_30_1521,Partial repeat,2021.2.3,120.09945228074372,
2,2,0,1,1,3,3,2,3,1,0,1,0,0,1,0,0,73,73,73,,,,,,,,,,,,,,,,,,,,,,,,,,09_BC,28,F,9,2021_Oct_30_1521,Partial repeat,2021.2.3,120.09945228074372,
2,2,0,1,1,3,2,3,2,0,1,0,0,0,1,0,0,74,74,74,0,0,0,0,,,,,,,463.4749266046747,None,0.8027434532395803,464.18266921013856,None,"[93. 87. 93. 87. 93. 93. 87. 87. 87. 87. 87. 87. 93. 87. 87. 93. 87. 87.
 87. 87. 93. 93. 87. 87. 93. 87. 93. 87. 93. 93. 93. 87. 93. 87.]",465.0652517634444,None,s,1,1.1081787494567834,465.0652517634444,None,None,None,09_BC,28,F,9,2021_Oct_30_1521,Partial repeat,2021.2.3,120.09945228074372,
2,2,0,1,1,3,2,3,2,0,1,0,0,0,1,0,0,74,74,74,1,0,1,0,,,,,,,,,0.877053193838051,466.24757556495206,None,"[87. 87. 87. 87. 93. 93. 93. 87. 87. 93. 93. 87. 87. 93. 93. 87. 87. 93.
 93. 87. 93. 93. 87. 93. 87. 87. 87. 93. 87. 93. 93. 87. 93. 93.]",467.21342565183477,None,l,1,0.7993279499496566,467.21342565183477,None,None,None,09_BC,28,F,9,2021_Oct_30_1521,Partial repeat,2021.2.3,120.09945228074372,
2,2,0,1,1,3,2,3,2,0,1,0,0,0,1,0,0,74,74,74,,,,,,,,,,,,,,,,,,,,,,,,,,09_BC,28,F,9,2021_Oct_30_1521,Partial repeat,2021.2.3,120.09945228074372,
2,2,0,1,1,3,2,2,2,1,1,0,1,1,1,0,0,75,75,75,0,0,0,0,,,,,,,468.02105677722466,None,0.8294529322213993,468.6288685285581,None,"[93. 87. 87. 93. 87. 93. 87. 87. 93. 87. 87. 93. 93. 87. 87. 87. 87. 93.
 93. 93. 87. 93. 87. 87. 87. 87. 93. 87. 93. 87. 93. 87. 93. 87.]",469.53643211164854,None,l,1,0.7168249977803498,469.53643211164854,None,None,None,09_BC,28,F,9,2021_Oct_30_1521,Partial repeat,2021.2.3,120.09945228074372,
2,2,0,1,1,3,2,2,2,1,1,0,1,1,1,0,0,75,75,75,1,0,1,0,,,,,,,,,0.8187280352897024,470.30243556381174,None,"[87. 93. 93. 93. 93. 93. 93. 93. 93. 87. 93. 87. 93. 93. 87. 87. 87. 87.
 87. 93. 93. 87. 87. 93. 93. 87. 93. 93. 93. 93. 87. 93. 87. 93.]",471.2016721369728,None,l,1,0.6666644164433819,471.2016721369728,None,None,None,09_BC,28,F,9,2021_Oct_30_1521,Partial repeat,2021.2.3,120.09945228074372,
2,2,0,1,1,3,2,2,2,1,1,0,1,1,1,0,0,75,75,75,,,,,,,,,,,,,,,,,,,,,,,,,,09_BC,28,F,9,2021_Oct_30_1521,Partial repeat,2021.2.3,120.09945228074372,
2,2,0,1,1,3,3,2,2,1,0,1,1,0,1,0,0,76,76,76,0,0,0,0,,,,,,,471.88442184624546,None,0.9098709473648737,472.4839033805147,None,"[93. 87. 93. 93. 93. 93. 87. 93. 93. 87. 87. 93. 87. 93. 87. 93. 87. 87.
 93. 87. 93. 93. 93. 87. 87. 93. 93. 87. 87. 93. 93. 87. 87. 87.]",473.4830441885715,None,l,1,0.7853310429127305,473.4830441885715,None,None,None,09_BC,28,F,9,2021_Oct_30_1521,Partial repeat,2021.2.3,120.09945228074372,
2,2,0,1,1,3,3,2,2,1,0,1,1,0,1,0,0,76,76,76,1,0,1,0,,,,,,,,,0.8284681609528837,474.34065821992226,None,"[93. 87. 87. 87. 87. 93. 93. 87. 93. 87. 87. 87. 87. 93. 93. 87. 87. 87.
 87. 93. 87. 93. 87. 93. 93. 87. 93. 93. 93. 87. 93. 93. 93. 93.]",475.25655073722373,None,s,1,0.69208482396607,475.25655073722373,None,None,None,09_BC,28,F,9,2021_Oct_30_1521,Partial repeat,2021.2.3,120.09945228074372,
2,2,0,1,1,3,3,2,2,1,0,1,1,0,1,0,0,76,76,76,,,,,,,,,,,,,,,,,,,,,,,,,,09_BC,28,F,9,2021_Oct_30_1521,Partial repeat,2021.2.3,120.09945228074372,
2,2,0,1,1,3,2,3,3,0,0,0,1,1,1,0,0,77,77,77,0,0,0,0,,,,,,,475.9642753827229,None,0.9780504509901295,476.6553527433516,None,"[93. 93. 93. 87. 87. 93. 93. 93. 87. 87. 93. 87. 93. 87. 93. 87. 93. 93.
 87. 93. 93. 87. 87. 93. 87. 93. 93. 87. 93. 93. 93. 93. 87. 93.]",477.7127746030674,None,s,1,0.7316740410606144,477.7127746030674,None,None,None,09_BC,28,F,9,2021_Oct_30_1521,Partial repeat,2021.2.3,120.09945228074372,
2,2,0,1,1,3,2,3,3,0,0,0,1,1,1,0,0,77,77,77,1,0,1,0,,,,,,,,,0.893162283382875,478.5037587643019,None,"[87. 87. 93. 87. 87. 87. 93. 87. 87. 87. 87. 93. 93. 87. 93. 87. 87. 93.
 87. 87. 93. 93. 93. 87. 87. 87. 93. 93. 93. 93. 87. 93. 87. 87.]",479.48626575746493,None,s,1,1.1342787492631032,479.48626575746493,None,None,None,09_BC,28,F,9,2021_Oct_30_1521,Partial repeat,2021.2.3,120.09945228074372,
2,2,0,1,1,3,2,3,3,0,0,0,1,1,1,0,0,77,77,77,,,,,,,,,,,,,,,,,,,,,,,,,,09_BC,28,F,9,2021_Oct_30_1521,Partial repeat,2021.2.3,120.09945228074372,
2,2,0,1,1,3,2,3,2,0,0,0,0,1,1,0,0,78,78,78,0,0,0,0,,,,,,,480.643596021353,None,0.7764441179431761,481.3430087304678,None,"[87. 87. 87. 93. 93. 93. 93. 93. 93. 93. 87. 93. 93. 87. 87. 93. 93. 87.
 93. 87. 87. 93. 87. 87. 87. 93. 87. 93. 87. 87. 93. 87. 93. 87.]",482.20060576399374,None,s,1,0.6269177289323125,482.20060576399374,None,None,None,09_BC,28,F,9,2021_Oct_30_1521,Partial repeat,2021.2.3,120.09945228074372,
2,2,0,1,1,3,2,3,2,0,0,0,0,1,1,0,0,78,78,78,1,0,1,0,,,,,,,,,0.7479098923664721,482.8916773517776,None,"[87. 87. 93. 87. 93. 93. 87. 87. 87. 93. 87. 87. 93. 87. 93. 93. 87. 93.
 87. 87. 93. 87. 87. 93. 93. 87. 87. 93. 93. 93. 87. 93. 87. 87.]",483.7159753255728,None,s,1,0.9355921359183412,483.7159753255728,None,None,None,09_BC,28,F,9,2021_Oct_30_1521,Partial repeat,2021.2.3,120.09945228074372,
2,2,0,1,1,3,2,3,2,0,0,0,0,1,1,0,0,78,78,78,,,,,,,,,,,,,,,,,,,,,,,,,,09_BC,28,F,9,2021_Oct_30_1521,Partial repeat,2021.2.3,120.09945228074372,
2,2,0,1,1,3,2,2,3,0,0,0,0,1,1,0,0,79,79,79,0,0,0,0,,,,,,,484.6734862154044,None,0.9055264260367242,485.2313391143034,None,"[93. 87. 93. 93. 93. 93. 93. 93. 93. 93. 87. 93. 87. 87. 87. 87. 87. 87.
 93. 87. 93. 93. 87. 87. 87. 87. 87. 87. 87. 87. 93. 87. 93. 93.]",486.2221663824075,None,s,1,0.8454161090085108,486.2221663824075,None,None,None,09_BC,28,F,9,2021_Oct_30_1521,Partial repeat,2021.2.3,120.09945228074372,
2,2,0,1,1,3,2,2,3,0,0,0,0,1,1,0,0,79,79,79,1,0,1,0,,,,,,,,,0.8935845852097797,487.1380438261658,None,"[87. 93. 93. 93. 87. 93. 93. 87. 87. 93. 93. 87. 93. 87. 93. 87. 93. 87.
 87. 93. 87. 93. 87. 93. 87. 93. 87. 87. 87. 87. 87. 87. 87. 87.]",488.1122173951244,None,s,1,1.1313708383477206,488.1122173951244,None,None,None,09_BC,28,F,9,2021_Oct_30_1521,Partial repeat,2021.2.3,120.09945228074372,
2,2,0,1,1,3,2,2,3,0,0,0,0,1,1,0,0,79,79,79,,,,,,,,,,,,,,,,,,,,,,,,,,09_BC,28,F,9,2021_Oct_30_1521,Partial repeat,2021.2.3,120.09945228074372,
2,2,0,1,1,2,2,3,3,1,0,1,1,0,1,0,0,80,80,80,0,0,0,0,,,,,,,489.26123476048815,None,0.9670699067209154,489.7441535500111,None,"[87. 93. 87. 93. 93. 93. 93. 93. 93. 87. 93. 87. 87. 87. 87. 87. 87. 87.
 87. 93. 93. 87. 93. 93. 93. 93. 87. 93. 93. 93. 93. 87. 87. 87.]",490.7932516069359,None,l,1,0.6578787859543809,490.7932516069359,None,None,None,09_BC,28,F,9,2021_Oct_30_1521,Partial repeat,2021.2.3,120.09945228074372,
2,2,0,1,1,2,2,3,3,1,0,1,1,0,1,0,0,80,80,80,1,0,1,0,,,,,,,,,0.9111989989933802,491.5009871566999,None,"[93. 87. 93. 93. 93. 87. 93. 87. 87. 87. 93. 93. 93. 93. 93. 93. 87. 93.
 87. 93. 87. 93. 87. 93. 93. 87. 87. 93. 87. 93. 87. 87. 87. 93.]",492.49181859408054,None,s,1,0.8478419872662926,492.49181859408054,None,None,None,09_BC,28,F,9,2021_Oct_30_1521,Partial repeat,2021.2.3,120.09945228074372,
2,2,0,1,1,2,2,3,3,1,0,1,1,0,1,0,0,80,80,80,,,,,,,,,,,,,,,,,,,,,,,,,,09_BC,28,F,9,2021_Oct_30_1521,Partial repeat,2021.2.3,120.09945228074372,
2,2,0,1,1,3,3,3,3,0,1,1,1,0,1,0,0,81,81,81,0,0,0,0,,,,,,,493.3577349404077,None,0.9209936558328943,493.7740373297893,None,"[87. 93. 87. 93. 87. 93. 93. 93. 87. 93. 93. 87. 87. 87. 87. 87. 87. 93.
 93. 93. 93. 93. 93. 93. 87. 87. 93. 87. 87. 93. 87. 87. 93. 87.]",494.773190324966,None,s,1,0.7418419474979601,494.773190324966,None,None,None,09_BC,28,F,9,2021_Oct_30_1521,Partial repeat,2021.2.3,120.09945228074372,
2,2,0,1,1,3,3,3,3,0,1,1,1,0,1,0,0,81,81,81,1,0,1,0,,,,,,,,,0.8126586120250883,495.5808265817759,None,"[93. 87. 93. 87. 93. 93. 93. 93. 87. 87. 93. 87. 93. 93. 93. 87. 87. 93.
 87. 93. 87. 93. 93. 93. 93. 87. 93. 87. 87. 93. 87. 87. 93. 87.]",496.47174031428585,None,l,1,0.6599826676811062,496.47174031428585,None,None,None,09_BC,28,F,9,2021_Oct_30_1521,Partial repeat,2021.2.3,120.09945228074372,
2,2,0,1,1,3,3,3,3,0,1,1,1,0,1,0,0,81,81,81,,,,,,,,,,,,,,,,,,,,,,,,,,09_BC,28,F,9,2021_Oct_30_1521,Partial repeat,2021.2.3,120.09945228074372,
2,2,0,1,1,2,2,3,2,1,1,1,0,1,1,0,0,82,82,82,0,0,0,0,,,,,,,497.16281190206973,None,0.9779072172779825,497.6790374484535,None,"[87. 87. 87. 93. 87. 87. 93. 93. 93. 93. 87. 87. 87. 93. 93. 93. 93. 93.
 87. 93. 93. 87. 87. 87. 87. 87. 93. 93. 87. 87. 87. 87. 87. 93.]",498.7364650810141,None,l,1,0.7783285804725892,498.7364650810141,None,None,None,09_BC,28,F,9,2021_Oct_30_1521,Partial repeat,2021.2.3,120.09945228074372,
2,2,0,1,1,2,2,3,2,1,1,1,0,1,1,0,0,82,82,82,1,0,1,0,,,,,,,,,0.9624919048562448,499.5857354253276,None,"[87. 87. 93. 93. 87. 87. 87. 93. 87. 87. 87. 87. 87. 87. 93. 87. 87. 87.
 93. 87. 93. 87. 93. 87. 93. 87. 87. 87. 93. 87. 93. 93. 93. 87.]",500.6265215458643,None,l,1,0.6643004359229963,500.6265215458643,None,None,None,09_BC,28,F,9,2021_Oct_30_1521,Partial repeat,2021.2.3,120.09945228074372,
2,2,0,1,1,2,2,3,2,1,1,1,0,1,1,0,0,82,82,82,,,,,,,,,,,,,,,,,,,,,,,,,,09_BC,28,F,9,2021_Oct_30_1521,Partial repeat,2021.2.3,120.09945228074372,
2,2,0,1,1,3,2,3,3,0,1,0,1,0,1,0,0,83,83,83,0,0,0,0,,,,,,,501.3176351471393,None,0.9773007254480466,506.36328104203676,None,"[93. 93. 87. 87. 87. 93. 87. 87. 93. 87. 87. 93. 93. 87. 93. 93. 93. 93.
 93. 93. 93. 93. 93. 87. 93. 93. 87. 87. 87. 87. 93. 93. 87. 93.]",507.42903664666846,None,s,1,0.5658519204098411,507.42903664666846,None,None,None,09_BC,28,F,9,2021_Oct_30_1521,Partial repeat,2021.2.3,120.09945228074372,
2,2,0,1,1,3,2,3,3,0,1,0,1,0,1,0,0,83,83,83,1,0,1,0,,,,,,,,,0.8847170183616946,508.0534953621591,None,"[87. 93. 93. 93. 93. 87. 93. 93. 87. 87. 87. 87. 93. 87. 87. 93. 87. 87.
 87. 87. 93. 93. 93. 93. 87. 87. 93. 93. 93. 93. 87. 87. 93. 87.]",509.02766893111766,None,l,1,0.6312342143228307,509.02766893111766,None,None,None,09_BC,28,F,9,2021_Oct_30_1521,Partial repeat,2021.2.3,120.09945228074372,
2,2,0,1,1,3,2,3,3,0,1,0,1,0,1,0,0,83,83,83,,,,,,,,,,,,,,,,,,,,,,,,,,09_BC,28,F,9,2021_Oct_30_1521,Partial repeat,2021.2.3,120.09945228074372,
2,2,0,1,1,3,2,3,3,1,0,0,1,0,1,0,0,84,84,84,0,0,0,0,,,,,,,509.68543889346074,None,0.971699079805471,510.259950943635,None,"[93. 93. 93. 87. 93. 93. 93. 93. 93. 87. 93. 93. 93. 93. 93. 87. 87. 87.
 87. 93. 93. 87. 87. 87. 87. 87. 87. 93. 93. 93. 87. 87. 87. 87.]",511.30905220769637,None,l,1,0.6859158963761729,511.30905220769637,None,None,None,09_BC,28,F,9,2021_Oct_30_1521,Partial repeat,2021.2.3,120.09945228074372,
2,2,0,1,1,3,2,3,3,1,0,0,1,0,1,0,0,84,84,84,1,0,1,0,,,,,,,,,0.7481071875912114,512.0667376299134,None,"[87. 93. 87. 87. 93. 87. 87. 93. 87. 87. 93. 87. 93. 87. 87. 93. 93. 93.
 93. 87. 87. 87. 87. 93. 87. 93. 87. 93. 93. 87. 87. 87. 93. 87.]",512.8910282272936,None,s,1,0.7359655107811705,512.8910282272936,None,None,None,09_BC,28,F,9,2021_Oct_30_1521,Partial repeat,2021.2.3,120.09945228074372,
2,2,0,1,1,3,2,3,3,1,0,0,1,0,1,0,0,84,84,84,,,,,,,,,,,,,,,,,,,,,,,,,,09_BC,28,F,9,2021_Oct_30_1521,Partial repeat,2021.2.3,120.09945228074372,
2,2,0,1,1,2,3,3,3,1,0,0,1,0,1,0,0,85,85,85,0,0,0,0,,,,,,,513.6487277609122,None,0.8851716728177678,514.2898311955614,None,"[93. 87. 87. 93. 93. 87. 93. 87. 87. 93. 87. 93. 93. 87. 87. 87. 87. 87.
 87. 93. 93. 93. 93. 87. 93. 87. 87. 93. 93. 93. 87. 93. 87. 93.]",515.2556806410157,None,l,1,0.8343566185467353,515.2556806410157,None,None,None,09_BC,28,F,9,2021_Oct_30_1521,Partial repeat,2021.2.3,120.09945228074372,
2,2,0,1,1,2,3,3,3,1,0,0,1,0,1,0,0,85,85,85,1,0,1,0,,,,,,,,,0.8815628045426676,516.1549117620452,None,"[93. 87. 87. 93. 87. 87. 93. 87. 87. 93. 87. 93. 87. 93. 87. 93. 87. 93.
 93. 87. 93. 87. 93. 87. 87. 87. 87. 93. 93. 93. 87. 93. 87. 87.]",517.120749341093,None,s,1,0.9693276869638794,517.120749341093,None,None,None,09_BC,28,F,9,2021_Oct_30_1521,Partial repeat,2021.2.3,120.09945228074372,
2,2,0,1,1,2,3,3,3,1,0,0,1,0,1,0,0,85,85,85,,,,,,,,,,,,,,,,,,,,,,,,,,09_BC,28,F,9,2021_Oct_30_1521,Partial repeat,2021.2.3,120.09945228074372,
2,2,0,1,1,2,2,2,3,1,1,1,0,1,1,0,0,86,86,86,0,0,0,0,,,,,,,518.1198753963217,None,0.9550748077710841,518.6860748686831,None,"[93. 87. 93. 93. 93. 87. 87. 87. 87. 93. 93. 93. 87. 93. 93. 93. 87. 93.
 93. 87. 93. 87. 93. 87. 93. 93. 87. 93. 87. 93. 87. 93. 87. 87.]",519.7268532920934,None,l,1,0.7310015044768079,519.7268532920934,None,None,None,09_BC,28,F,9,2021_Oct_30_1521,Partial repeat,2021.2.3,120.09945228074372,
2,2,0,1,1,2,2,2,3,1,1,1,0,1,1,0,0,86,86,86,1,0,1,0,,,,,,,,,0.9974088898207685,520.5095146126769,None,"[87. 87. 93. 93. 93. 93. 87. 87. 87. 93. 93. 93. 93. 87. 87. 87. 87. 93.
 87. 87. 93. 87. 87. 87. 93. 87. 93. 93. 87. 93. 93. 87. 87. 93.]",521.5836020379429,None,l,1,1.226831585239779,521.5836020379429,None,None,None,09_BC,28,F,9,2021_Oct_30_1521,Partial repeat,2021.2.3,120.09945228074372,
2,2,0,1,1,2,2,2,3,1,1,1,0,1,1,0,0,86,86,86,,,,,,,,,,,,,,,,,,,,,,,,,,09_BC,28,F,9,2021_Oct_30_1521,Partial repeat,2021.2.3,120.09945228074372,
2,2,0,1,1,2,3,2,2,1,0,0,1,0,1,0,0,87,87,87,0,0,0,0,,,,,,,522.8325326181839,None,0.7576283711736844,523.4736524092332,None,"[87. 93. 93. 93. 93. 87. 93. 93. 87. 87. 87. 93. 87. 93. 93. 87. 93. 87.
 87. 87. 93. 87. 93. 93. 87. 87. 93. 93. 93. 87. 87. 93. 87. 93.]",524.3062748272478,None,l,1,0.8084188998600439,524.3062748272478,None,None,None,09_BC,28,F,9,2021_Oct_30_1521,Partial repeat,2021.2.3,120.09945228074372,
2,2,0,1,1,2,3,2,2,1,0,0,1,0,1,0,0,87,87,87,1,0,1,0,,,,,,,,,0.9313912069292478,525.180526201344,None,"[87. 93. 87. 87. 87. 93. 87. 93. 93. 93. 93. 93. 93. 87. 87. 93. 93. 87.
 93. 93. 93. 87. 93. 87. 87. 87. 87. 87. 93. 93. 93. 87. 93. 87.]",526.1880084514469,None,l,0,0.8621961693406774,526.1880084514469,None,527.0705746483527,None,09_BC,28,F,9,2021_Oct_30_1521,Partial repeat,2021.2.3,120.09945228074372,
2,2,0,1,1,2,3,2,2,1,0,0,1,0,1,0,0,87,87,87,,,,,,,,,,,,,,,,,,,,,,,,,,09_BC,28,F,9,2021_Oct_30_1521,Partial repeat,2021.2.3,120.09945228074372,
2,2,0,1,1,3,2,2,2,1,0,0,1,0,1,0,0,88,88,88,0,0,0,0,,,,,,,527.5701497027294,None,0.8839137037887668,528.1446514900672,None,"[87. 93. 93. 87. 87. 87. 93. 87. 87. 93. 93. 93. 93. 87. 93. 87. 87. 87.
 87. 87. 93. 93. 93. 87. 87. 87. 93. 87. 93. 87. 87. 93. 87. 93.]",529.1105095947914,None,l,1,0.7707793012141337,529.1105095947914,None,None,None,09_BC,28,F,9,2021_Oct_30_1521,Partial repeat,2021.2.3,120.09945228074372,
2,2,0,1,1,3,2,2,2,1,0,0,1,0,1,0,0,88,88,88,1,0,1,0,,,,,,,,,0.971684279786223,529.934794419325,None,"[93. 93. 87. 87. 87. 87. 87. 93. 87. 87. 87. 93. 93. 93. 87. 93. 87. 87.
 87. 87. 93. 87. 87. 93. 93. 87. 87. 93. 93. 87. 93. 93. 93. 87.]",530.983899852663,None,s,1,1.0415854407001461,530.983899852663,None,None,None,09_BC,28,F,9,2021_Oct_30_1521,Partial repeat,2021.2.3,120.09945228074372,
2,2,0,1,1,3,2,2,2,1,0,0,1,0,1,0,0,88,88,88,,,,,,,,,,,,,,,,,,,,,,,,,,09_BC,28,F,9,2021_Oct_30_1521,Partial repeat,2021.2.3,120.09945228074372,
2,2,0,1,1,2,2,2,3,0,1,1,0,0,1,0,0,89,89,89,0,0,0,0,,,,,,,532.0579956164856,None,0.8524921961508167,532.5575456551942,None,"[87. 87. 87. 93. 87. 93. 93. 87. 93. 87. 93. 93. 93. 87. 93. 93. 93. 87.
 93. 93. 93. 93. 93. 87. 87. 87. 93. 93. 93. 87. 93. 87. 93. 93.]",533.4900889852161,None,s,1,0.775238504189474,533.4900889852161,None,None,None,09_BC,28,F,9,2021_Oct_30_1521,Partial repeat,2021.2.3,120.09945228074372,
2,2,0,1,1,2,2,2,3,0,1,1,0,0,1,0,0,89,89,89,1,0,1,0,,,,,,,,,0.8602665020078084,534.3227027439607,None,"[93. 87. 93. 93. 87. 93. 93. 93. 87. 93. 87. 93. 87. 93. 87. 87. 93. 93.
 87. 87. 93. 87. 87. 93. 93. 93. 87. 93. 87. 93. 93. 93. 93. 93.]",535.2718959245631,None,l,1,1.1374518903921853,535.2718959245631,None,None,None,09_BC,28,F,9,2021_Oct_30_1521,Partial repeat,2021.2.3,120.09945228074372,
2,2,0,1,1,2,2,2,3,0,1,1,0,0,1,0,0,89,89,89,,,,,,,,,,,,,,,,,,,,,,,,,,09_BC,28,F,9,2021_Oct_30_1521,Partial repeat,2021.2.3,120.09945228074372,
2,2,0,1,1,2,2,3,3,1,1,1,1,1,1,0,0,90,90,90,0,0,0,0,,,,,,,536.4292419034227,None,0.8315618815217203,536.9288268999226,None,"[87. 93. 87. 87. 87. 93. 93. 87. 93. 87. 93. 93. 93. 93. 87. 87. 93. 93.
 87. 87. 93. 87. 93. 87. 93. 87. 87. 93. 93. 93. 87. 93. 87. 87.]",537.8363754094698,None,l,1,0.6374085940442455,537.8363754094698,None,None,None,09_BC,28,F,9,2021_Oct_30_1521,Partial repeat,2021.2.3,120.09945228074372,
2,2,0,1,1,2,2,3,3,1,1,1,1,1,1,0,0,90,90,90,1,0,1,0,,,,,,,,,0.8162939265137162,538.5274495629637,None,"[93. 93. 87. 93. 93. 87. 87. 87. 87. 87. 93. 93. 87. 87. 93. 87. 93. 93.
 93. 93. 87. 87. 87. 93. 93. 93. 93. 87. 93. 93. 87. 93. 93. 87.]",539.4183523912088,None,l,1,0.783057182936318,539.4183523912088,None,None,None,09_BC,28,F,9,2021_Oct_30_1521,Partial repeat,2021.2.3,120.09945228074372,
2,2,0,1,1,2,2,3,3,1,1,1,1,1,1,0,0,90,90,90,,,,,,,,,,,,,,,,,,,,,,,,,,09_BC,28,F,9,2021_Oct_30_1521,Partial repeat,2021.2.3,120.09945228074372,
2,2,0,1,1,3,3,3,2,0,1,1,0,0,1,0,0,91,91,91,0,0,0,0,,,,,,,540.2176712594992,None,0.8137089138480516,540.6839392363036,None,"[87. 93. 87. 93. 93. 93. 93. 93. 87. 93. 93. 87. 87. 93. 87. 87. 93. 87.
 93. 87. 93. 93. 87. 87. 93. 93. 93. 87. 93. 87. 87. 93. 87. 87.]",541.5831729230413,None,s,1,0.6504943535237544,541.5831729230413,None,None,None,09_BC,28,F,9,2021_Oct_30_1521,Partial repeat,2021.2.3,120.09945228074372,
2,2,0,1,1,3,3,3,2,0,1,1,0,0,1,0,0,91,91,91,1,0,1,0,,,,,,,,,0.8581807827411476,542.3075487019742,None,"[93. 87. 93. 93. 87. 87. 93. 93. 93. 87. 93. 87. 93. 93. 87. 93. 87. 87.
 93. 93. 87. 93. 93. 87. 93. 93. 93. 93. 93. 93. 93. 87. 93. 87.]",543.2400885041461,None,l,1,0.8168283332015562,543.2400885041461,None,None,None,09_BC,28,F,9,2021_Oct_30_1521,Partial repeat,2021.2.3,120.09945228074372,
2,2,0,1,1,3,3,3,2,0,1,1,0,0,1,0,0,91,91,91,,,,,,,,,,,,,,,,,,,,,,,,,,09_BC,28,F,9,2021_Oct_30_1521,Partial repeat,2021.2.3,120.09945228074372,
2,2,0,1,1,2,2,3,3,0,1,1,1,0,1,0,0,92,92,92,0,0,0,0,,,,,,,544.08103023496,None,0.8580362664031616,544.5223216719696,None,"[93. 87. 93. 93. 93. 93. 93. 87. 93. 93. 87. 87. 93. 87. 93. 87. 87. 93.
 87. 93. 93. 87. 87. 93. 93. 87. 87. 93. 87. 93. 87. 93. 87. 93.]",545.4548621155682,None,s,1,0.7936843513634813,545.4548621155682,None,None,None,09_BC,28,F,9,2021_Oct_30_1521,Partial repeat,2021.2.3,120.09945228074372,
2,2,0,1,1,2,2,3,3,0,1,1,1,0,1,0,0,92,92,92,1,0,1,0,,,,,,,,,0.720835390057799,546.3207810276053,None,"[93. 87. 93. 87. 87. 87. 87. 93. 87. 93. 87. 87. 93. 93. 87. 93. 87. 93.
 93. 93. 93. 87. 93. 93. 87. 87. 87. 93. 87. 93. 87. 93. 93. 93.]",547.1284480729264,None,l,1,0.5924342735906976,547.1284480729264,None,None,None,09_BC,28,F,9,2021_Oct_30_1521,Partial repeat,2021.2.3,120.09945228074372,
2,2,0,1,1,2,2,3,3,0,1,1,1,0,1,0,0,92,92,92,,,,,,,,,,,,,,,,,,,,,,,,,,09_BC,28,F,9,2021_Oct_30_1521,Partial repeat,2021.2.3,120.09945228074372,
2,2,0,1,1,3,3,2,2,1,1,1,1,1,1,0,0,93,93,93,0,0,0,0,,,,,,,547.7362380157319,None,0.9760481629378415,548.4356430277167,None,"[93. 93. 93. 87. 93. 93. 93. 87. 93. 87. 87. 87. 87. 93. 87. 87. 87. 87.
 93. 93. 93. 87. 87. 87. 93. 93. 87. 87. 87. 93. 93. 87. 93. 93.]",549.4930709809923,None,l,1,0.9634951880216249,549.4930709809923,None,None,None,09_BC,28,F,9,2021_Oct_30_1521,Partial repeat,2021.2.3,120.09945228074372,
2,2,0,1,1,3,3,2,2,1,1,1,1,1,1,0,0,93,93,93,1,0,1,0,,,,,,,,,0.8794228855266621,550.5171912152673,None,"[93. 93. 93. 93. 93. 87. 93. 93. 87. 87. 87. 93. 93. 93. 93. 93. 87. 93.
 93. 87. 93. 93. 93. 87. 93. 93. 93. 93. 87. 93. 93. 93. 87. 93.]",551.4747114057973,None,l,1,0.7418874888408027,551.4747114057973,None,None,None,09_BC,28,F,9,2021_Oct_30_1521,Partial repeat,2021.2.3,120.09945228074372,
2,2,0,1,1,3,3,2,2,1,1,1,1,1,1,0,0,93,93,93,,,,,,,,,,,,,,,,,,,,,,,,,,09_BC,28,F,9,2021_Oct_30_1521,Partial repeat,2021.2.3,120.09945228074372,
2,2,0,1,1,2,3,2,2,0,0,0,1,1,1,0,0,94,94,94,0,0,0,0,,,,,,,552.2323958658726,None,0.7492483746465143,552.6986612769651,None,"[93. 87. 93. 87. 87. 87. 87. 93. 93. 93. 93. 93. 93. 87. 93. 93. 87. 87.
 87. 87. 87. 87. 87. 87. 87. 87. 93. 87. 87. 93. 87. 93. 93. 87.]",553.5229630993254,None,s,1,0.6932111704027193,553.5229630993254,None,None,None,09_BC,28,F,9,2021_Oct_30_1521,Partial repeat,2021.2.3,120.09945228074372,
2,2,0,1,1,2,3,2,2,0,0,0,1,1,1,0,0,94,94,94,1,0,1,0,,,,,,,,,0.9627693903831928,554.2889739279017,None,"[93. 87. 87. 87. 87. 87. 93. 93. 93. 87. 87. 87. 93. 87. 87. 93. 87. 93.
 87. 87. 87. 87. 87. 93. 87. 93. 93. 87. 87. 87. 93. 87. 87. 87.]",555.3297590862985,None,s,1,1.1269385753221286,555.3297590862985,None,None,None,09_BC,28,F,9,2021_Oct_30_1521,Partial repeat,2021.2.3,120.09945228074372,
2,2,0,1,1,2,3,2,2,0,0,0,1,1,1,0,0,94,94,94,,,,,,,,,,,,,,,,,,,,,,,,,,09_BC,28,F,9,2021_Oct_30_1521,Partial repeat,2021.2.3,120.09945228074372,
2,2,0,1,1,3,2,3,2,1,1,0,0,1,1,0,0,95,95,95,0,0,0,0,,,,,,,556.4870928780383,None,0.9572777582091734,557.2780834535461,None,"[87. 87. 93. 93. 93. 93. 93. 87. 87. 93. 93. 87. 93. 87. 87. 87. 93. 87.
 93. 87. 87. 87. 93. 87. 93. 93. 93. 87. 87. 93. 87. 93. 87. 93.]",558.3105396777337,None,l,1,0.5781750227633893,558.3105396777337,None,None,None,09_BC,28,F,9,2021_Oct_30_1521,Partial repeat,2021.2.3,120.09945228074372,
2,2,0,1,1,3,2,3,2,1,1,0,0,1,1,0,0,95,95,95,1,0,1,0,,,,,,,,,0.7757601592389459,558.951656903073,None,"[87. 93. 93. 87. 87. 93. 87. 87. 87. 87. 87. 87. 93. 87. 93. 87. 87. 93.
 87. 93. 93. 93. 93. 93. 87. 93. 87. 87. 87. 93. 93. 93. 87. 87.]",559.8092715758521,None,l,1,1.6555892110081913,559.8092715758521,None,None,None,09_BC,28,F,9,2021_Oct_30_1521,Partial repeat,2021.2.3,120.09945228074372,
2,2,0,1,1,3,2,3,2,1,1,0,0,1,1,0,0,95,95,95,,,,,,,,,,,,,,,,,,,,,,,,,,09_BC,28,F,9,2021_Oct_30_1521,Partial repeat,2021.2.3,120.09945228074372,
2,2,0,1,1,3,3,2,2,0,1,1,1,0,1,0,0,96,96,96,0,0,0,0,,,,,,,561.4828203304241,None,0.7686915889985159,562.0656622769511,None,"[87. 93. 93. 87. 87. 87. 87. 87. 93. 87. 93. 93. 87. 87. 93. 93. 93. 87.
 87. 87. 93. 87. 93. 87. 93. 87. 93. 93. 93. 93. 87. 93. 93. 93.]",562.9149399976777,None,s,1,0.7088366614952974,562.9149399976777,None,None,None,09_BC,28,F,9,2021_Oct_30_1521,Partial repeat,2021.2.3,120.09945228074372,
2,2,0,1,1,3,3,2,2,0,1,1,1,0,1,0,0,96,96,96,1,0,1,0,,,,,,,,,0.8945159832603669,563.6809354319976,None,"[87. 93. 93. 87. 87. 87. 87. 93. 87. 93. 87. 93. 93. 93. 87. 93. 93. 87.
 87. 93. 93. 93. 87. 87. 93. 87. 93. 93. 93. 87. 87. 93. 87. 93.]",564.6634382558823,None,l,1,1.2643887604699557,564.6634382558823,None,None,None,09_BC,28,F,9,2021_Oct_30_1521,Partial repeat,2021.2.3,120.09945228074372,
2,2,0,1,1,3,3,2,2,0,1,1,1,0,1,0,0,96,96,96,,,,,,,,,,,,,,,,,,,,,,,,,,09_BC,28,F,9,2021_Oct_30_1521,Partial repeat,2021.2.3,120.09945228074372,
2,2,0,1,1,2,3,2,3,0,0,0,0,1,1,0,0,97,97,97,0,0,0,0,,,,,,,565.9456704615641,None,0.9212852061624512,566.5618082606852,None,"[87. 87. 93. 93. 93. 87. 93. 87. 87. 93. 87. 93. 87. 93. 93. 87. 93. 87.
 93. 87. 93. 93. 87. 87. 93. 93. 87. 93. 87. 93. 87. 87. 93. 87.]",567.5609606144353,None,s,1,0.6548900551915722,567.5609606144353,None,None,None,09_BC,28,F,9,2021_Oct_30_1521,Partial repeat,2021.2.3,120.09945228074372,
2,2,0,1,1,2,3,2,3,0,0,0,0,1,1,0,0,97,97,97,1,0,1,0,,,,,,,,,0.8170665386295091,568.2853415247882,None,"[87. 87. 87. 87. 87. 87. 87. 93. 93. 87. 93. 87. 93. 93. 87. 93. 93. 93.
 93. 87. 93. 87. 93. 87. 93. 87. 87. 87. 87. 87. 93. 87. 87. 87.]",569.1928958071821,None,s,1,1.4070001908348786,569.1928958071821,None,None,None,09_BC,28,F,9,2021_Oct_30_1521,Partial repeat,2021.2.3,120.09945228074372,
2,2,0,1,1,2,3,2,3,0,0,0,0,1,1,0,0,97,97,97,,,,,,,,,,,,,,,,,,,,,,,,,,09_BC,28,F,9,2021_Oct_30_1521,Partial repeat,2021.2.3,120.09945228074372,
2,2,0,1,1,3,3,2,3,0,0,1,0,1,1,0,0,98,98,98,0,0,0,0,,,,,,,570.6250052115975,None,0.7555058478767618,571.5658636851404,None,"[87. 87. 87. 93. 87. 87. 93. 93. 93. 87. 93. 87. 93. 87. 87. 93. 87. 87.
 87. 93. 93. 93. 93. 93. 87. 87. 93. 87. 93. 93. 93. 87. 93. 87.]",572.4068365251824,None,s,1,0.8651098531045136,572.4068365251824,None,None,None,09_BC,28,F,9,2021_Oct_30_1521,Partial repeat,2021.2.3,120.09945228074372,
2,2,0,1,1,3,3,2,3,0,0,1,0,1,1,0,0,98,98,98,1,0,1,0,,,,,,,,,0.8289632632143878,573.3393455388396,None,"[93. 87. 87. 87. 87. 93. 93. 93. 87. 87. 87. 87. 87. 93. 87. 87. 93. 87.
 87. 87. 87. 87. 87. 93. 87. 87. 93. 93. 87. 87. 87. 93. 87. 87.]",574.2469139326349,None,s,1,0.8170454563623935,574.2469139326349,None,None,None,09_BC,28,F,9,2021_Oct_30_1521,Partial repeat,2021.2.3,120.09945228074372,
2,2,0,1,1,3,3,2,3,0,0,1,0,1,1,0,0,98,98,98,,,,,,,,,,,,,,,,,,,,,,,,,,09_BC,28,F,9,2021_Oct_30_1521,Partial repeat,2021.2.3,120.09945228074372,
2,2,0,1,1,2,2,2,2,1,1,1,1,1,1,0,0,99,99,99,0,0,0,0,,,,,,,575.087857267019,None,0.85817855865406,575.7456313986386,None,"[93. 93. 93. 87. 87. 93. 87. 93. 87. 93. 93. 93. 93. 87. 87. 93. 93. 93.
 93. 87. 93. 87. 93. 87. 93. 93. 87. 87. 93. 87. 87. 87. 93. 93.]",576.6781657486772,None,l,1,0.560870595569213,576.6781657486772,None,None,None,09_BC,28,F,9,2021_Oct_30_1521,Partial repeat,2021.2.3,120.09945228074372,
2,2,0,1,1,2,2,2,2,1,1,1,1,1,1,0,0,99,99,99,1,0,1,0,,,,,,,,,0.8961429505755614,577.2943013028034,None,"[93. 93. 87. 93. 87. 93. 93. 87. 87. 87. 93. 93. 93. 87. 93. 87. 87. 93.
 93. 87. 93. 93. 93. 87. 93. 87. 87. 93. 93. 87. 87. 93. 87. 87.]",578.2684713439121,None,l,1,1.770601625836207,578.2684713439121,None,None,None,09_BC,28,F,9,2021_Oct_30_1521,Partial repeat,2021.2.3,120.09945228074372,
2,2,0,1,1,2,2,2,2,1,1,1,1,1,1,0,0,99,99,99,,,,,,,,,,,,,,,,,,,,,,,,,,09_BC,28,F,9,2021_Oct_30_1521,Partial repeat,2021.2.3,120.09945228074372,
2,2,0,1,1,2,2,2,2,0,0,1,1,1,1,0,0,100,100,100,0,0,0,0,,,,,,,580.0586059346133,None,0.9561099746772377,580.5748301981421,None,"[87. 87. 93. 93. 87. 87. 93. 93. 87. 93. 87. 93. 93. 93. 87. 87. 87. 93.
 87. 93. 87. 93. 93. 87. 93. 87. 93. 87. 93. 87. 87. 93. 93. 93.]",581.6072838566197,None,s,1,0.7038078710284026,581.6072838566197,None,None,None,09_BC,28,F,9,2021_Oct_30_1521,Partial repeat,2021.2.3,120.09945228074372,
2,2,0,1,1,2,2,2,2,0,0,1,1,1,1,0,0,100,100,100,1,0,1,0,,,,,,,,,0.8265855919102971,582.3649846730932,None,"[87. 93. 93. 93. 93. 93. 87. 87. 93. 87. 93. 93. 87. 87. 87. 93. 87. 93.
 87. 93. 87. 87. 87. 87. 93. 87. 87. 93. 87. 93. 87. 87. 87. 93.]",583.2725245233705,None,s,1,1.2785867549846444,583.2725245233705,None,None,None,09_BC,28,F,9,2021_Oct_30_1521,Partial repeat,2021.2.3,120.09945228074372,
2,2,0,1,1,2,2,2,2,0,0,1,1,1,1,0,0,100,100,100,,,,,,,,,,,,,,,,,,,,,,,,,,09_BC,28,F,9,2021_Oct_30_1521,Partial repeat,2021.2.3,120.09945228074372,
2,2,0,1,1,3,2,2,3,1,1,0,0,1,1,0,0,101,101,101,0,0,0,0,,,,,,,584.579739362407,None,0.9726845711567025,585.2791430915386,None,"[93. 93. 93. 87. 87. 87. 93. 93. 93. 93. 87. 93. 87. 87. 87. 87. 87. 93.
 93. 93. 93. 87. 87. 93. 93. 93. 87. 93. 93. 93. 87. 93. 87. 93.]",586.3282575048597,None,s,0,1.0069249514053809,586.3282575048597,None,587.3523703627197,None,09_BC,28,F,9,2021_Oct_30_1521,Partial repeat,2021.2.3,120.09945228074372,
2,2,0,1,1,3,2,2,3,1,1,0,0,1,1,0,0,101,101,101,1,0,1,0,,,,,,,,,0.7265618582065283,587.8852496082472,None,"[87. 87. 93. 93. 87. 87. 93. 93. 87. 87. 93. 93. 93. 87. 87. 93. 93. 93.
 87. 87. 87. 93. 87. 93. 87. 87. 87. 87. 93. 87. 93. 87. 93. 87.]",588.6929070321603,None,l,1,1.0417352139847935,588.6929070321603,None,None,None,09_BC,28,F,9,2021_Oct_30_1521,Partial repeat,2021.2.3,120.09945228074372,
2,2,0,1,1,3,2,2,3,1,1,0,0,1,1,0,0,101,101,101,,,,,,,,,,,,,,,,,,,,,,,,,,09_BC,28,F,9,2021_Oct_30_1521,Partial repeat,2021.2.3,120.09945228074372,
2,2,0,1,1,3,3,3,2,1,1,1,0,1,1,0,0,102,102,102,0,0,0,0,,,,,,,589.7669659139083,None,0.974550657596926,590.3081756972151,None,"[87. 93. 93. 87. 87. 87. 93. 93. 87. 93. 87. 87. 87. 93. 93. 87. 93. 87.
 87. 87. 87. 87. 87. 87. 93. 87. 93. 87. 93. 93. 87. 87. 93. 93.]",591.3572843376896,None,l,1,0.8089859216415789,591.3572843376896,None,None,None,09_BC,28,F,9,2021_Oct_30_1521,Partial repeat,2021.2.3,120.09945228074372,
2,2,0,1,1,3,3,3,2,1,1,1,0,1,1,0,0,102,102,102,1,0,1,0,,,,,,,,,0.883644947570273,592.2398601560071,None,"[87. 87. 87. 87. 93. 93. 87. 93. 87. 93. 93. 93. 87. 93. 87. 87. 87. 87.
 87. 93. 87. 87. 87. 87. 93. 87. 93. 87. 87. 87. 93. 93. 87. 87.]",593.2140192928509,None,l,1,0.9042439774875675,593.2140192928509,None,None,None,09_BC,28,F,9,2021_Oct_30_1521,Partial repeat,2021.2.3,120.09945228074372,
2,2,0,1,1,3,3,3,2,1,1,1,0,1,1,0,0,102,102,102,,,,,,,,,,,,,,,,,,,,,,,,,,09_BC,28,F,9,2021_Oct_30_1521,Partial repeat,2021.2.3,120.09945228074372,
2,2,0,1,1,3,3,3,3,0,0,1,1,1,1,0,0,103,103,103,0,0,0,0,,,,,,,594.1382352922301,None,0.9396512529319689,594.779355724706,None,"[93. 87. 87. 93. 93. 87. 93. 93. 87. 93. 93. 93. 93. 93. 87. 93. 87. 93.
 93. 87. 87. 93. 87. 87. 87. 93. 87. 93. 87. 87. 93. 87. 87. 87.]",595.8034791661175,None,s,1,0.8748435132220038,595.8034791661175,None,None,None,09_BC,28,F,9,2021_Oct_30_1521,Partial repeat,2021.2.3,120.09945228074372,
2,2,0,1,1,3,3,3,3,0,0,1,1,1,1,0,0,103,103,103,1,0,1,0,,,,,,,,,0.9863867684431451,596.744334753239,None,"[87. 87. 93. 93. 87. 87. 87. 87. 93. 87. 87. 93. 87. 87. 93. 87. 87. 93.
