prime_tar_pos,probe_tar_pos,dimension,tar_color,tar_shape,prime_dist_color,probe_dist_color,prime_dist_shape,probe_dist_shape,prime_tar_ori,probe_tar_ori,col_rep,shape_rep,resp_rep,pos_fixed,sparse,MainLoop.thisRepN,MainLoop.thisTrialN,MainLoop.thisN,MainLoop.thisIndex,PrimeProbe.thisRepN,PrimeProbe.thisTrialN,PrimeProbe.thisN,PrimeProbe.thisIndex,Instruction.started,Instruction.stopped,instruction_key.keys,instruction_key.rt,instruction_key.started,instruction_key.stopped,PairStartText.started,PairStartText.stopped,fixdur,FixCross.started,FixCross.stopped,dist_ori,SearchFixCross.started,SearchFixCross.stopped,key_resp.keys,key_resp.corr,key_resp.rt,key_resp.started,key_resp.stopped,feedback_text.started,feedback_text.stopped,text_finish.started,text_finish.stopped,finish_key.keys,finish_key.rt,finish_key.started,finish_key.stopped,participant,age,gender,group,date,expName,psychopyVersion,frameRate,
,,,,,,,,,,,,,,,,,,,,,,,,22.06417480691448,None,space,15.056120796924006,22.06417480691448,None,,,,,,,,,,,,,,,,,,,,,,10_MI,26,F,10,2021_Nov_01_1029,Partial repeat,2021.2.3,120.10176529272292,
4,4,0,1,1,3,3,2,3,0,1,1,0,0,1,0,0,0,0,0,0,0,0,0,,,,,,,103.02067737294465,None,0.8324044162377523,112.26208753815695,None,"[93. 93. 87. 87. 87. 93. 87. 87. 93. 93. 87. 93. 87. 93. 87. 93. 93. 87.
 87. 93. 87. 87. 87. 87. 87. 87. 87. 87. 93. 93. 93. 93. 93. 87.]",113.17797684832112,None,s,1,0.6108015168365455,113.17797684832112,None,None,None,,,,,,,10_MI,26,F,10,2021_Nov_01_1029,Partial repeat,2021.2.3,120.10176529272292,
4,4,0,1,1,3,3,2,3,0,1,1,0,0,1,0,0,0,0,0,1,0,1,0,,,,,,,,,0.7435754419223701,113.85239794409722,None,"[87. 87. 87. 87. 93. 87. 93. 87. 93. 87. 87. 87. 87. 93. 93. 93. 87. 93.
 93. 87. 93. 87. 87. 93. 93. 93. 93. 93. 87. 87. 87. 93. 87. 93.]",114.6850206828251,None,l,1,0.8476030264998826,114.6850206828251,None,None,None,,,,,,,10_MI,26,F,10,2021_Nov_01_1029,Partial repeat,2021.2.3,120.10176529272292,
4,4,0,1,1,3,3,2,3,0,1,1,0,0,1,0,0,0,0,0,,,,,,,,,,,,,,,,,,,,,,,,,,,,,,,,10_MI,26,F,10,2021_Nov_01_1029,Partial repeat,2021.2.3,120.10176529272292,
4,4,0,1,1,3,2,2,2,0,1,0,1,0,1,0,0,1,1,1,0,0,0,0,,,,,,,115.55094632984901,None,0.9326281412380344,116.94142838174935,None,"[93. 87. 93. 87. 87. 87. 93. 87. 87. 87. 93. 93. 87. 87. 87. 93. 93. 93.
 93. 87. 93. 87. 93. 87. 93. 93. 93. 93. 93. 93. 93. 93. 93. 93.]",117.95721583324962,None,s,1,0.6783755680210106,117.95721583324962,None,None,None,,,,,,,10_MI,26,F,10,2021_Nov_01_1029,Partial repeat,2021.2.3,120.10176529272292,
4,4,0,1,1,3,2,2,2,0,1,0,1,0,1,0,0,1,1,1,1,0,1,0,,,,,,,,,0.888665224423753,118.69826872342492,None,"[93. 87. 93. 93. 93. 87. 87. 87. 87. 93. 93. 87. 93. 87. 93. 93. 93. 93.
 93. 87. 87. 87. 87. 87. 87. 87. 87. 87. 93. 87. 93. 87. 93. 93.]",119.67242882240998,None,l,1,0.6432121996808746,119.67242882240998,None,None,None,,,,,,,10_MI,26,F,10,2021_Nov_01_1029,Partial repeat,2021.2.3,120.10176529272292,
4,4,0,1,1,3,2,2,2,0,1,0,1,0,1,0,0,1,1,1,,,,,,,,,,,,,,,,,,,,,,,,,,,,,,,,10_MI,26,F,10,2021_Nov_01_1029,Partial repeat,2021.2.3,120.10176529272292,
4,4,0,1,1,3,2,2,2,1,1,0,1,1,1,0,0,2,2,2,0,0,0,0,,,,,,,120.33851136256499,None,0.7975725400600999,120.87972884299984,None,"[87. 87. 93. 93. 93. 93. 87. 87. 87. 87. 93. 87. 93. 93. 93. 93. 87. 87.
 87. 87. 87. 87. 87. 87. 93. 93. 87. 93. 87. 93. 93. 87. 87. 93.]",121.75398534851638,None,l,1,0.6264773599766613,121.75398534851638,None,None,None,,,,,,,10_MI,26,F,10,2021_Nov_01_1029,Partial repeat,2021.2.3,120.10176529272292,
4,4,0,1,1,3,2,2,2,1,1,0,1,1,1,0,0,2,2,2,1,0,1,0,,,,,,,,,0.7902777826740712,122.44505116345317,None,"[87. 87. 93. 93. 93. 93. 93. 87. 93. 93. 87. 93. 93. 93. 93. 87. 93. 87.
 87. 87. 87. 87. 93. 87. 93. 87. 87. 87. 87. 93. 93. 87. 87. 93.]",123.31099252544709,None,l,1,0.7327840020211625,123.31099252544709,None,None,None,,,,,,,10_MI,26,F,10,2021_Nov_01_1029,Partial repeat,2021.2.3,120.10176529272292,
4,4,0,1,1,3,2,2,2,1,1,0,1,1,1,0,0,2,2,2,,,,,,,,,,,,,,,,,,,,,,,,,,,,,,,,10_MI,26,F,10,2021_Nov_01_1029,Partial repeat,2021.2.3,120.10176529272292,
4,4,0,1,1,3,2,2,3,1,1,0,0,1,1,0,0,3,3,3,0,0,0,0,,,,,,,124.060344844175,None,0.8537509597073243,124.80138618865794,None,"[87. 93. 93. 93. 87. 87. 87. 87. 93. 93. 87. 93. 93. 87. 87. 93. 87. 87.
 93. 87. 93. 93. 87. 87. 87. 93. 93. 93. 87. 87. 87. 87. 87. 87.]",125.74225300075773,None,l,1,0.6054888947649033,125.74225300075773,None,None,None,,,,,,,10_MI,26,F,10,2021_Nov_01_1029,Partial repeat,2021.2.3,120.10176529272292,
4,4,0,1,1,3,2,2,3,1,1,0,0,1,1,0,0,3,3,3,1,0,1,0,,,,,,,,,0.9072130244934498,126.4000146245437,None,"[93. 87. 93. 93. 93. 87. 87. 93. 87. 87. 87. 87. 87. 93. 87. 93. 87. 87.
 87. 93. 93. 93. 87. 87. 87. 87. 87. 93. 93. 93. 93. 87. 87. 93.]",127.38250558202162,None,l,1,0.7572637563287117,127.38250558202162,None,None,None,,,,,,,10_MI,26,F,10,2021_Nov_01_1029,Partial repeat,2021.2.3,120.10176529272292,
4,4,0,1,1,3,2,2,3,1,1,0,0,1,1,0,0,3,3,3,,,,,,,,,,,,,,,,,,,,,,,,,,,,,,,,10_MI,26,F,10,2021_Nov_01_1029,Partial repeat,2021.2.3,120.10176529272292,
4,4,0,1,1,3,3,3,2,0,0,1,0,1,1,0,0,4,4,4,0,0,0,0,,,,,,,128.16517075116917,None,0.9502741630048991,128.81461434500966,None,"[93. 93. 93. 93. 87. 93. 93. 87. 93. 87. 87. 93. 87. 87. 93. 93. 87. 93.
 87. 87. 87. 87. 87. 93. 87. 93. 87. 87. 93. 93. 87. 87. 93. 87.]",129.84707185205093,None,s,1,0.7087250240585945,129.84707185205093,None,None,None,,,,,,,10_MI,26,F,10,2021_Nov_01_1029,Partial repeat,2021.2.3,120.10176529272292,
4,4,0,1,1,3,3,3,2,0,0,1,0,1,1,0,0,4,4,4,1,0,1,0,,,,,,,,,0.7614356156694861,130.62140904912894,None,"[87. 93. 93. 93. 87. 87. 87. 93. 87. 93. 87. 93. 93. 87. 93. 87. 87. 93.
 93. 93. 87. 87. 93. 93. 93. 87. 93. 93. 87. 87. 93. 93. 93. 93.]",131.4623591184993,None,s,1,0.6284859897402839,131.4623591184993,None,None,None,,,,,,,10_MI,26,F,10,2021_Nov_01_1029,Partial repeat,2021.2.3,120.10176529272292,
4,4,0,1,1,3,3,3,2,0,0,1,0,1,1,0,0,4,4,4,,,,,,,,,,,,,,,,,,,,,,,,,,,,,,,,10_MI,26,F,10,2021_Nov_01_1029,Partial repeat,2021.2.3,120.10176529272292,
4,4,0,1,1,3,3,3,2,1,1,1,0,1,1,0,0,5,5,5,0,0,0,0,,,,,,,132.11182099301936,None,0.746939418608736,133.11926828533,None,"[93. 87. 87. 93. 93. 93. 93. 87. 93. 93. 93. 93. 87. 87. 93. 87. 87. 93.
 87. 87. 87. 93. 87. 87. 93. 93. 93. 87. 93. 87. 87. 87. 93. 87.]",133.95189775904532,None,l,1,0.620039674323607,133.95189775904532,None,None,None,,,,,,,10_MI,26,F,10,2021_Nov_01_1029,Partial repeat,2021.2.3,120.10176529272292,
4,4,0,1,1,3,3,3,2,1,1,1,0,1,1,0,0,5,5,5,1,0,1,0,,,,,,,,,0.7503150810373372,134.63464073333125,None,"[87. 87. 87. 87. 87. 87. 93. 87. 93. 93. 93. 93. 87. 93. 93. 87. 87. 87.
 93. 93. 93. 93. 87. 93. 93. 87. 93. 93. 93. 87. 87. 93. 87. 93.]",135.45894576282717,None,l,1,0.487939634747363,135.45894576282717,None,None,None,,,,,,,10_MI,26,F,10,2021_Nov_01_1029,Partial repeat,2021.2.3,120.10176529272292,
4,4,0,1,1,3,3,3,2,1,1,1,0,1,1,0,0,5,5,5,,,,,,,,,,,,,,,,,,,,,,,,,,,,,,,,10_MI,26,F,10,2021_Nov_01_1029,Partial repeat,2021.2.3,120.10176529272292,
4,4,0,1,1,3,2,3,2,0,0,0,0,1,1,0,0,6,6,6,0,0,0,0,,,,,,,135.96684333714143,None,0.9863640951646231,136.51637467824412,None,"[87. 87. 87. 87. 87. 93. 87. 87. 93. 93. 93. 87. 87. 93. 93. 87. 93. 93.
 93. 93. 93. 87. 93. 87. 87. 87. 93. 93. 93. 93. 87. 93. 93. 87.]",137.5904588963731,None,s,1,0.5964701054331272,137.5904588963731,None,None,None,,,,,,,10_MI,26,F,10,2021_Nov_01_1029,Partial repeat,2021.2.3,120.10176529272292,
4,4,0,1,1,3,2,3,2,0,0,0,0,1,1,0,0,6,6,6,1,0,1,0,,,,,,,,,0.8822919213443094,138.2482288587148,None,"[93. 93. 93. 87. 93. 87. 93. 93. 93. 87. 93. 93. 87. 87. 93. 87. 93. 87.
 93. 87. 87. 87. 87. 93. 87. 87. 87. 87. 87. 87. 93. 87. 93. 87.]",139.20574776638978,None,s,1,0.6452198673034673,139.20574776638978,None,None,None,,,,,,,10_MI,26,F,10,2021_Nov_01_1029,Partial repeat,2021.2.3,120.10176529272292,
4,4,0,1,1,3,2,3,2,0,0,0,0,1,1,0,0,6,6,6,,,,,,,,,,,,,,,,,,,,,,,,,,,,,,,,10_MI,26,F,10,2021_Nov_01_1029,Partial repeat,2021.2.3,120.10176529272292,
4,4,0,1,1,2,2,3,3,1,1,1,1,1,1,0,0,7,7,7,0,0,0,0,,,,,,,139.88016533431528,None,0.8218117695233953,140.37141466161825,None,"[87. 93. 87. 93. 87. 87. 87. 93. 93. 87. 87. 93. 87. 87. 87. 93. 87. 93.
 93. 93. 87. 93. 93. 93. 93. 93. 87. 87. 93. 93. 87. 87. 93. 87.]",141.27895803974684,None,l,1,0.7320502091263279,141.27895803974684,None,None,None,,,,,,,10_MI,26,F,10,2021_Nov_01_1029,Partial repeat,2021.2.3,120.10176529272292,
4,4,0,1,1,2,2,3,3,1,1,1,1,1,1,0,0,7,7,7,1,0,1,0,,,,,,,,,0.8361995339215162,142.0782830015978,None,"[87. 87. 93. 93. 87. 93. 87. 87. 87. 93. 93. 87. 87. 93. 87. 93. 87. 93.
 93. 93. 93. 87. 87. 87. 93. 93. 93. 87. 87. 87. 87. 87. 87. 87.]",142.9941745567578,None,l,1,0.616932920927411,142.9941745567578,None,None,None,,,,,,,10_MI,26,F,10,2021_Nov_01_1029,Partial repeat,2021.2.3,120.10176529272292,
4,4,0,1,1,2,2,3,3,1,1,1,1,1,1,0,0,7,7,7,,,,,,,,,,,,,,,,,,,,,,,,,,,,,,,,10_MI,26,F,10,2021_Nov_01_1029,Partial repeat,2021.2.3,120.10176529272292,
4,4,0,1,1,3,3,3,3,0,1,1,1,0,1,0,0,8,8,8,0,0,0,0,,,,,,,143.6436197541666,None,0.904098769570309,144.259759798284,None,"[93. 87. 93. 87. 87. 87. 93. 93. 93. 93. 87. 93. 87. 93. 87. 93. 93. 87.
 87. 93. 87. 87. 87. 93. 93. 93. 87. 93. 93. 93. 87. 93. 87. 93.]",145.24225684932185,None,s,1,0.5927867088446419,145.24225684932185,None,None,None,,,,,,,10_MI,26,F,10,2021_Nov_01_1029,Partial repeat,2021.2.3,120.10176529272292,
4,4,0,1,1,3,3,3,3,0,1,1,1,0,1,0,0,8,8,8,1,0,1,0,,,,,,,,,0.7678381566245974,145.90834676589134,None,"[93. 87. 87. 93. 87. 87. 93. 93. 87. 93. 87. 87. 87. 93. 87. 93. 93. 93.
 87. 93. 87. 87. 87. 93. 87. 87. 93. 93. 87. 87. 87. 87. 87. 87.]",146.75762961803662,None,l,1,0.7245297940974069,146.75762961803662,None,None,None,,,,,,,10_MI,26,F,10,2021_Nov_01_1029,Partial repeat,2021.2.3,120.10176529272292,
4,4,0,1,1,3,3,3,3,0,1,1,1,0,1,0,0,8,8,8,,,,,,,,,,,,,,,,,,,,,,,,,,,,,,,,10_MI,26,F,10,2021_Nov_01_1029,Partial repeat,2021.2.3,120.10176529272292,
4,4,0,1,1,3,2,3,2,1,0,0,0,0,1,0,0,9,9,9,0,0,0,0,,,,,,,147.50698610604218,None,0.873224150156417,148.04819043721614,None,"[87. 87. 93. 87. 87. 93. 93. 87. 87. 87. 87. 93. 87. 87. 87. 87. 87. 87.
 87. 93. 87. 87. 93. 87. 87. 87. 87. 87. 93. 93. 87. 87. 93. 87.]",149.0057388505495,None,l,1,0.46036884201384964,149.0057388505495,None,None,None,,,,,,,10_MI,26,F,10,2021_Nov_01_1029,Partial repeat,2021.2.3,120.10176529272292,
4,4,0,1,1,3,2,3,2,1,0,0,0,0,1,0,0,9,9,9,1,0,1,0,,,,,,,,,0.91092573467194,149.53026478762672,None,"[93. 87. 87. 93. 87. 87. 93. 93. 87. 93. 93. 87. 93. 93. 87. 87. 93. 93.
 87. 93. 93. 87. 87. 93. 87. 93. 93. 93. 93. 93. 87. 87. 87. 93.]",150.52108275503315,None,s,1,0.5450417429267418,150.52108275503315,None,None,None,,,,,,,10_MI,26,F,10,2021_Nov_01_1029,Partial repeat,2021.2.3,120.10176529272292,
4,4,0,1,1,3,2,3,2,1,0,0,0,0,1,0,0,9,9,9,,,,,,,,,,,,,,,,,,,,,,,,,,,,,,,,10_MI,26,F,10,2021_Nov_01_1029,Partial repeat,2021.2.3,120.10176529272292,
4,4,0,1,1,3,2,3,3,0,0,0,1,1,1,0,0,10,10,10,0,0,0,0,,,,,,,151.09558742879358,None,0.8232468074470842,151.6034891723857,None,"[93. 87. 93. 87. 93. 87. 87. 93. 87. 93. 87. 87. 87. 87. 93. 93. 87. 93.
 87. 87. 87. 87. 93. 87. 93. 87. 87. 87. 93. 93. 87. 87. 87. 87.]",152.50272189698308,None,s,1,0.5954409352414132,152.50272189698308,None,None,None,,,,,,,10_MI,26,F,10,2021_Nov_01_1029,Partial repeat,2021.2.3,120.10176529272292,
4,4,0,1,1,3,2,3,3,0,0,0,1,1,1,0,0,10,10,10,1,0,1,0,,,,,,,,,0.9171367168086024,153.16881918996705,None,"[87. 93. 93. 93. 87. 87. 93. 87. 87. 93. 93. 93. 93. 87. 87. 93. 93. 87.
 87. 87. 93. 93. 87. 87. 93. 87. 93. 93. 87. 93. 87. 87. 93. 87.]",154.16796480872972,None,s,1,0.6902333148277648,154.16796480872972,None,None,None,,,,,,,10_MI,26,F,10,2021_Nov_01_1029,Partial repeat,2021.2.3,120.10176529272292,
4,4,0,1,1,3,2,3,3,0,0,0,1,1,1,0,0,10,10,10,,,,,,,,,,,,,,,,,,,,,,,,,,,,,,,,10_MI,26,F,10,2021_Nov_01_1029,Partial repeat,2021.2.3,120.10176529272292,
4,4,0,1,1,2,2,2,3,1,1,1,0,1,1,0,0,11,11,11,0,0,0,0,,,,,,,154.87569137851096,None,0.8844027859891259,155.51681277312787,None,"[87. 87. 93. 87. 87. 93. 87. 87. 87. 87. 87. 93. 87. 87. 93. 87. 93. 93.
 87. 87. 93. 87. 87. 87. 93. 87. 87. 87. 93. 87. 87. 87. 87. 87.]",156.49098121066868,None,l,1,0.5432457463314222,156.49098121066868,None,None,None,,,,,,,10_MI,26,F,10,2021_Nov_01_1029,Partial repeat,2021.2.3,120.10176529272292,
4,4,0,1,1,2,2,2,3,1,1,1,0,1,1,0,0,11,11,11,1,0,1,0,,,,,,,,,0.8996797888984883,157.09881188410964,None,"[87. 87. 93. 87. 93. 87. 87. 93. 93. 87. 93. 87. 93. 93. 93. 93. 87. 93.
 93. 87. 93. 93. 87. 93. 87. 93. 93. 87. 87. 93. 87. 87. 87. 93.]",158.08128840947188,None,l,1,0.5047873656660613,158.08128840947188,None,None,None,,,,,,,10_MI,26,F,10,2021_Nov_01_1029,Partial repeat,2021.2.3,120.10176529272292,
4,4,0,1,1,2,2,2,3,1,1,1,0,1,1,0,0,11,11,11,,,,,,,,,,,,,,,,,,,,,,,,,,,,,,,,10_MI,26,F,10,2021_Nov_01_1029,Partial repeat,2021.2.3,120.10176529272292,
4,4,0,1,1,3,3,2,2,1,0,1,1,0,1,0,0,12,12,12,0,0,0,0,,,,,,,158.60582268510484,None,0.820022864418305,159.1054140958795,None,"[87. 93. 93. 87. 87. 87. 93. 93. 93. 93. 93. 87. 93. 93. 93. 93. 87. 93.
 87. 93. 93. 87. 87. 93. 93. 87. 87. 87. 87. 87. 87. 93. 87. 87.]",160.0129901868031,None,l,1,0.4772909785058346,160.0129901868031,None,None,None,,,,,,,10_MI,26,F,10,2021_Nov_01_1029,Partial repeat,2021.2.3,120.10176529272292,
4,4,0,1,1,3,3,2,2,1,0,1,1,0,1,0,0,12,12,12,1,0,1,0,,,,,,,,,0.9533081507152485,160.56251318935006,None,"[93. 87. 93. 93. 93. 93. 93. 87. 93. 93. 93. 93. 87. 93. 87. 93. 87. 87.
 87. 93. 87. 93. 93. 87. 87. 87. 87. 93. 87. 93. 87. 93. 87. 93.]",161.59496331997684,None,s,1,0.6233449494861816,161.59496331997684,None,None,None,,,,,,,10_MI,26,F,10,2021_Nov_01_1029,Partial repeat,2021.2.3,120.10176529272292,
4,4,0,1,1,3,3,2,2,1,0,1,1,0,1,0,0,12,12,12,,,,,,,,,,,,,,,,,,,,,,,,,,,,,,,,10_MI,26,F,10,2021_Nov_01_1029,Partial repeat,2021.2.3,120.10176529272292,
4,4,0,1,1,2,3,3,2,0,1,0,0,0,1,0,0,13,13,13,0,0,0,0,,,,,,,162.2444024238257,None,0.8957317409568979,162.71901280481438,None,"[93. 87. 93. 93. 93. 93. 87. 87. 87. 93. 87. 87. 93. 93. 87. 87. 87. 87.
 93. 87. 93. 93. 87. 93. 93. 93. 93. 87. 93. 87. 93. 87. 93. 93.]",163.70148965089038,None,s,1,0.5653522194238576,163.70148965089038,None,None,None,,,,,,,10_MI,26,F,10,2021_Nov_01_1029,Partial repeat,2021.2.3,120.10176529272292,
4,4,0,1,1,2,3,3,2,0,1,0,0,0,1,0,0,13,13,13,1,0,1,0,,,,,,,,,0.8841921929994686,164.3176268085847,None,"[87. 93. 87. 93. 87. 87. 87. 87. 87. 87. 87. 87. 93. 87. 93. 93. 87. 87.
 87. 87. 93. 87. 87. 93. 87. 87. 87. 87. 93. 93. 87. 93. 93. 87.]",165.2834743297567,None,l,1,0.6778944975044396,165.2834743297567,None,None,None,,,,,,,10_MI,26,F,10,2021_Nov_01_1029,Partial repeat,2021.2.3,120.10176529272292,
4,4,0,1,1,2,3,3,2,0,1,0,0,0,1,0,0,13,13,13,,,,,,,,,,,,,,,,,,,,,,,,,,,,,,,,10_MI,26,F,10,2021_Nov_01_1029,Partial repeat,2021.2.3,120.10176529272292,
4,4,0,1,1,2,3,2,2,1,0,0,1,0,1,0,0,14,14,14,0,0,0,0,,,,,,,165.98287645531855,None,0.9703038093583376,166.55737920479692,None,"[93. 93. 87. 87. 93. 87. 87. 87. 93. 87. 93. 87. 93. 87. 87. 87. 93. 93.
 87. 93. 87. 87. 87. 93. 87. 93. 87. 87. 93. 87. 87. 93. 87. 87.]",167.61480715807284,None,l,1,0.5225969169043765,167.61480715807284,None,None,None,,,,,,,10_MI,26,F,10,2021_Nov_01_1029,Partial repeat,2021.2.3,120.10176529272292,
4,4,0,1,1,2,3,2,2,1,0,0,1,0,1,0,0,14,14,14,1,0,1,0,,,,,,,,,0.8883178994545443,168.19764910459958,None,"[87. 87. 87. 87. 87. 93. 93. 87. 87. 93. 87. 93. 93. 87. 93. 93. 87. 87.
 87. 87. 87. 87. 87. 87. 87. 87. 87. 87. 87. 87. 87. 87. 93. 87.]",169.16352901785285,None,s,1,0.6379063125964421,169.16352901785285,None,None,None,,,,,,,10_MI,26,F,10,2021_Nov_01_1029,Partial repeat,2021.2.3,120.10176529272292,
4,4,0,1,1,2,3,2,2,1,0,0,1,0,1,0,0,14,14,14,,,,,,,,,,,,,,,,,,,,,,,,,,,,,,,,10_MI,26,F,10,2021_Nov_01_1029,Partial repeat,2021.2.3,120.10176529272292,
4,4,0,1,1,3,2,2,3,0,0,0,0,1,1,0,0,15,15,15,0,0,0,0,,,,,,,169.82124285530108,None,0.8848566813888756,170.32083715249883,None,"[87. 93. 93. 87. 87. 93. 93. 93. 87. 87. 87. 93. 87. 93. 93. 93. 93. 87.
 93. 93. 93. 93. 93. 87. 87. 93. 93. 87. 87. 93. 87. 87. 93. 87.]",171.29500302433007,None,s,1,0.7156267824032057,171.29500302433007,None,None,None,,,,,,,10_MI,26,F,10,2021_Nov_01_1029,Partial repeat,2021.2.3,120.10176529272292,
4,4,0,1,1,3,2,2,3,0,0,0,0,1,1,0,0,15,15,15,1,0,1,0,,,,,,,,,0.8411602722395257,172.069337334985,None,"[87. 93. 87. 93. 87. 87. 93. 87. 93. 87. 93. 87. 87. 93. 93. 87. 93. 87.
 87. 93. 87. 93. 93. 93. 87. 87. 87. 87. 93. 93. 87. 93. 87. 87.]",172.9852240794396,None,s,1,0.5603000168584913,172.9852240794396,None,None,None,,,,,,,10_MI,26,F,10,2021_Nov_01_1029,Partial repeat,2021.2.3,120.10176529272292,
4,4,0,1,1,3,2,2,3,0,0,0,0,1,1,0,0,15,15,15,,,,,,,,,,,,,,,,,,,,,,,,,,,,,,,,10_MI,26,F,10,2021_Nov_01_1029,Partial repeat,2021.2.3,120.10176529272292,
4,4,0,1,1,3,2,2,2,0,0,0,1,1,1,0,0,16,16,16,0,0,0,0,,,,,,,173.57638630090787,None,0.967181796918622,174.43398878656717,None,"[93. 87. 93. 87. 93. 93. 87. 87. 93. 93. 87. 87. 93. 93. 93. 87. 87. 87.
 93. 93. 87. 87. 93. 87. 93. 93. 93. 87. 93. 87. 93. 93. 93. 93.]",175.49142571982588,None,s,1,0.5345300314254473,175.49142571982588,None,None,None,,,,,,,10_MI,26,F,10,2021_Nov_01_1029,Partial repeat,2021.2.3,120.10176529272292,
4,4,0,1,1,3,2,2,2,0,0,0,1,1,1,0,0,16,16,16,1,0,1,0,,,,,,,,,0.929292898982675,176.09921790762564,None,"[87. 93. 87. 93. 87. 87. 87. 87. 87. 93. 87. 93. 87. 87. 93. 93. 93. 93.
 87. 93. 87. 87. 93. 93. 87. 93. 93. 87. 87. 87. 93. 93. 87. 93.]",177.11503229907453,None,s,1,0.49452132084206823,177.11503229907453,None,None,None,,,,,,,10_MI,26,F,10,2021_Nov_01_1029,Partial repeat,2021.2.3,120.10176529272292,
4,4,0,1,1,3,2,2,2,0,0,0,1,1,1,0,0,16,16,16,,,,,,,,,,,,,,,,,,,,,,,,,,,,,,,,10_MI,26,F,10,2021_Nov_01_1029,Partial repeat,2021.2.3,120.10176529272292,
4,4,0,1,1,3,3,2,3,1,0,1,0,0,1,0,0,17,17,17,0,0,0,0,,,,,,,177.63127259828752,None,0.8345159108239629,178.22241878407203,None,"[93. 93. 87. 87. 93. 87. 87. 93. 93. 93. 87. 93. 93. 93. 93. 87. 93. 87.
 93. 93. 87. 87. 87. 93. 87. 93. 93. 93. 93. 93. 87. 93. 87. 93.]",179.14664215986568,None,l,1,0.7659243084822265,179.14664215986568,None,None,None,,,,,,,10_MI,26,F,10,2021_Nov_01_1029,Partial repeat,2021.2.3,120.10176529272292,
4,4,0,1,1,3,3,2,3,1,0,1,0,0,1,0,0,17,17,17,1,0,1,0,,,,,,,,,0.7263163616179354,179.9792613707432,None,"[87. 93. 87. 93. 93. 93. 93. 87. 87. 87. 93. 93. 93. 87. 93. 93. 93. 87.
 87. 93. 93. 87. 87. 93. 93. 93. 93. 87. 93. 87. 87. 87. 87. 87.]",180.79525895384495,None,s,1,0.6053513085971645,180.79525895384495,None,None,None,,,,,,,10_MI,26,F,10,2021_Nov_01_1029,Partial repeat,2021.2.3,120.10176529272292,
4,4,0,1,1,3,3,2,3,1,0,1,0,0,1,0,0,17,17,17,,,,,,,,,,,,,,,,,,,,,,,,,,,,,,,,10_MI,26,F,10,2021_Nov_01_1029,Partial repeat,2021.2.3,120.10176529272292,
4,4,0,1,1,3,3,2,2,1,1,1,1,1,1,0,0,18,18,18,0,0,0,0,,,,,,,181.41968752224966,None,0.8813295182267072,181.97754940113145,None,"[93. 93. 87. 93. 93. 87. 93. 93. 87. 93. 93. 93. 93. 93. 93. 93. 87. 87.
 93. 93. 87. 87. 93. 87. 93. 87. 87. 93. 87. 93. 93. 93. 93. 87.]",182.94338152804676,None,l,1,0.5372589841092577,182.94338152804676,None,None,None,,,,,,,10_MI,26,F,10,2021_Nov_01_1029,Partial repeat,2021.2.3,120.10176529272292,
4,4,0,1,1,3,3,2,2,1,1,1,1,1,1,0,0,18,18,18,1,0,1,0,,,,,,,,,0.8373239547341296,183.55120161793639,None,"[87. 87. 87. 87. 93. 93. 87. 93. 93. 93. 93. 93. 87. 93. 93. 93. 87. 93.
 87. 87. 87. 93. 93. 93. 93. 87. 93. 87. 87. 93. 93. 93. 93. 93.]",184.4670890038185,None,l,1,0.5337237572396134,184.4670890038185,None,None,None,,,,,,,10_MI,26,F,10,2021_Nov_01_1029,Partial repeat,2021.2.3,120.10176529272292,
4,4,0,1,1,3,3,2,2,1,1,1,1,1,1,0,0,18,18,18,,,,,,,,,,,,,,,,,,,,,,,,,,,,,,,,10_MI,26,F,10,2021_Nov_01_1029,Partial repeat,2021.2.3,120.10176529272292,
4,4,0,1,1,3,2,2,3,0,1,0,0,0,1,0,0,19,19,19,0,0,0,0,,,,,,,185.033268912646,None,0.7299298911414864,185.5994337479308,None,"[93. 93. 93. 93. 93. 87. 93. 87. 93. 93. 87. 87. 93. 87. 93. 93. 87. 93.
 93. 87. 93. 87. 87. 87. 87. 93. 93. 93. 87. 87. 93. 93. 87. 87.]",186.4154242753316,None,s,1,0.505273888315287,186.4154242753316,None,None,None,,,,,,,10_MI,26,F,10,2021_Nov_01_1029,Partial repeat,2021.2.3,120.10176529272292,
4,4,0,1,1,3,2,2,3,0,1,0,0,0,1,0,0,19,19,19,1,0,1,0,,,,,,,,,0.7905557693921441,186.97328647492714,None,"[93. 93. 87. 87. 93. 87. 93. 87. 93. 93. 87. 93. 93. 87. 87. 93. 93. 87.
 93. 93. 93. 87. 93. 93. 93. 93. 93. 93. 93. 93. 93. 93. 93. 87.]",187.83920859410046,None,l,1,0.4895252431699646,187.83920859410046,None,None,None,,,,,,,10_MI,26,F,10,2021_Nov_01_1029,Partial repeat,2021.2.3,120.10176529272292,
4,4,0,1,1,3,2,2,3,0,1,0,0,0,1,0,0,19,19,19,,,,,,,,,,,,,,,,,,,,,,,,,,,,,,,,10_MI,26,F,10,2021_Nov_01_1029,Partial repeat,2021.2.3,120.10176529272292,
4,4,0,1,1,3,3,3,3,0,0,1,1,1,1,0,0,20,20,20,0,0,0,0,,,,,,,188.34710360270515,None,0.9175897813442433,188.8966391130857,None,"[87. 93. 87. 87. 93. 93. 87. 93. 93. 93. 93. 93. 87. 87. 87. 87. 87. 93.
 93. 87. 93. 87. 87. 93. 93. 87. 87. 93. 93. 87. 93. 87. 93. 93.]",189.90410853464005,None,s,1,0.5365918996594701,189.90410853464005,None,None,None,,,,,,,10_MI,26,F,10,2021_Nov_01_1029,Partial repeat,2021.2.3,120.10176529272292,
4,4,0,1,1,3,3,3,3,0,0,1,1,1,1,0,0,20,20,20,1,0,1,0,,,,,,,,,0.9916631578037259,190.51192092740143,None,"[93. 87. 93. 93. 87. 87. 87. 93. 87. 87. 87. 93. 87. 93. 93. 93. 93. 93.
 93. 93. 87. 87. 87. 93. 87. 87. 87. 87. 93. 87. 93. 93. 93. 93.]",191.58600257982084,None,s,1,0.4547829718887897,191.58600257982084,None,None,None,,,,,,,10_MI,26,F,10,2021_Nov_01_1029,Partial repeat,2021.2.3,120.10176529272292,
4,4,0,1,1,3,3,3,3,0,0,1,1,1,1,0,0,20,20,20,,,,,,,,,,,,,,,,,,,,,,,,,,,,,,,,10_MI,26,F,10,2021_Nov_01_1029,Partial repeat,2021.2.3,120.10176529272292,
4,4,0,1,1,2,2,3,3,0,0,1,1,1,1,0,0,21,21,21,0,0,0,0,,,,,,,192.06059532155723,None,0.7215925640316838,192.57682471650514,None,"[87. 93. 87. 87. 87. 93. 87. 93. 87. 87. 87. 87. 87. 87. 93. 87. 93. 93.
 93. 87. 87. 87. 93. 93. 87. 93. 93. 93. 87. 87. 93. 87. 87. 87.]",193.38446642544727,None,s,1,0.528349237428074,193.38446642544727,None,None,None,,,,,,,10_MI,26,F,10,2021_Nov_01_1029,Partial repeat,2021.2.3,120.10176529272292,
4,4,0,1,1,2,2,3,3,0,0,1,1,1,1,0,0,21,21,21,1,0,1,0,,,,,,,,,0.9124896763641851,193.97562576049245,None,"[87. 93. 87. 87. 93. 87. 93. 87. 87. 87. 87. 87. 87. 87. 93. 87. 93. 87.
 87. 93. 93. 93. 87. 93. 93. 87. 87. 93. 87. 87. 93. 87. 87. 87.]",194.9747810006652,None,s,1,0.6490745249959673,194.9747810006652,None,None,None,,,,,,,10_MI,26,F,10,2021_Nov_01_1029,Partial repeat,2021.2.3,120.10176529272292,
4,4,0,1,1,2,2,3,3,0,0,1,1,1,1,0,0,21,21,21,,,,,,,,,,,,,,,,,,,,,,,,,,,,,,,,10_MI,26,F,10,2021_Nov_01_1029,Partial repeat,2021.2.3,120.10176529272292,
4,4,0,1,1,2,2,2,3,1,0,1,0,0,1,0,0,22,22,22,0,0,0,0,,,,,,,195.64087765222212,None,0.9341388747425384,196.18208839766976,None,"[93. 93. 93. 93. 93. 93. 87. 87. 87. 93. 93. 87. 87. 93. 93. 87. 93. 87.
 93. 87. 87. 93. 93. 87. 93. 87. 87. 87. 87. 93. 87. 87. 93. 87.]",197.19788098058848,None,l,1,0.4580183314697024,197.19788098058848,None,None,None,,,,,,,10_MI,26,F,10,2021_Nov_01_1029,Partial repeat,2021.2.3,120.10176529272292,
4,4,0,1,1,2,2,2,3,1,0,1,0,0,1,0,0,22,22,22,1,0,1,0,,,,,,,,,0.9169562263386665,197.7141065269725,None,"[87. 93. 93. 93. 87. 93. 93. 93. 87. 87. 93. 93. 87. 87. 93. 93. 93. 93.
 93. 87. 93. 93. 93. 87. 93. 93. 93. 87. 93. 93. 93. 93. 93. 93.]",198.71325535287178,None,s,1,0.5266398335256781,198.71325535287178,None,None,None,,,,,,,10_MI,26,F,10,2021_Nov_01_1029,Partial repeat,2021.2.3,120.10176529272292,
4,4,0,1,1,2,2,2,3,1,0,1,0,0,1,0,0,22,22,22,,,,,,,,,,,,,,,,,,,,,,,,,,,,,,,,10_MI,26,F,10,2021_Nov_01_1029,Partial repeat,2021.2.3,120.10176529272292,
4,4,0,1,1,3,3,2,3,1,1,1,0,1,1,0,0,23,23,23,0,0,0,0,,,,,,,199.26277001686321,None,0.7592745096031978,199.7290594814831,None,"[93. 93. 93. 93. 93. 87. 93. 93. 87. 87. 93. 93. 87. 93. 87. 87. 93. 93.
 87. 87. 87. 87. 93. 87. 93. 87. 87. 93. 87. 87. 87. 87. 87. 87.]",200.57003232152465,None,l,1,0.4935976654501246,200.57003232152465,None,None,None,,,,,,,10_MI,26,F,10,2021_Nov_01_1029,Partial repeat,2021.2.3,120.10176529272292,
4,4,0,1,1,3,3,2,3,1,1,1,0,1,1,0,0,23,23,23,1,0,1,0,,,,,,,,,0.9367185415571356,201.1361846489758,None,"[87. 87. 87. 93. 93. 87. 87. 87. 87. 93. 87. 93. 93. 93. 87. 93. 93. 93.
 87. 87. 87. 93. 87. 87. 93. 87. 93. 87. 87. 93. 87. 87. 87. 87.]",202.1603087318149,None,s,0,0.37616161736104914,202.1603087318149,None,202.55997025059946,None,,,,,,,10_MI,26,F,10,2021_Nov_01_1029,Partial repeat,2021.2.3,120.10176529272292,
4,4,0,1,1,3,3,2,3,1,1,1,0,1,1,0,0,23,23,23,,,,,,,,,,,,,,,,,,,,,,,,,,,,,,,,10_MI,26,F,10,2021_Nov_01_1029,Partial repeat,2021.2.3,120.10176529272292,
4,4,0,1,1,2,2,2,2,1,1,1,1,1,1,0,0,24,24,24,0,0,0,0,,,,,,,203.05954049427123,None,0.8331213393992538,203.88383590235685,None,"[87. 87. 87. 93. 93. 87. 87. 93. 93. 87. 93. 93. 87. 93. 87. 93. 87. 87.
 93. 93. 93. 93. 87. 87. 93. 87. 87. 93. 87. 93. 87. 87. 93. 87.]",204.7913982025923,None,l,1,0.5285933005368406,204.7913982025923,None,None,None,,,,,,,10_MI,26,F,10,2021_Nov_01_1029,Partial repeat,2021.2.3,120.10176529272292,
4,4,0,1,1,2,2,2,2,1,1,1,1,1,1,0,0,24,24,24,1,0,1,0,,,,,,,,,0.7069284033094209,205.39087011545053,None,"[93. 87. 87. 87. 87. 87. 87. 87. 87. 87. 87. 87. 93. 93. 93. 87. 93. 93.
 87. 93. 87. 93. 93. 93. 87. 93. 93. 93. 87. 87. 87. 87. 93. 87.]",206.17354169887176,None,l,1,0.41048343301076784,206.17354169887176,None,None,None,,,,,,,10_MI,26,F,10,2021_Nov_01_1029,Partial repeat,2021.2.3,120.10176529272292,
4,4,0,1,1,2,2,2,2,1,1,1,1,1,1,0,0,24,24,24,,,,,,,,,,,,,,,,,,,,,,,,,,,,,,,,10_MI,26,F,10,2021_Nov_01_1029,Partial repeat,2021.2.3,120.10176529272292,
4,4,0,1,1,2,3,2,3,1,0,0,0,0,1,0,0,25,25,25,0,0,0,0,,,,,,,206.59818520958333,None,0.9724043131699966,207.10608663246148,None,"[87. 93. 87. 93. 87. 93. 93. 93. 93. 93. 93. 87. 93. 93. 87. 93. 93. 87.
 87. 87. 93. 93. 93. 93. 93. 93. 87. 93. 87. 93. 93. 87. 87. 93.]",208.15520200792434,None,l,1,0.4766562861375405,208.15520200792434,None,None,None,,,,,,,10_MI,26,F,10,2021_Nov_01_1029,Partial repeat,2021.2.3,120.10176529272292,
4,4,0,1,1,2,3,2,3,1,0,0,0,0,1,0,0,25,25,25,1,0,1,0,,,,,,,,,0.7374001941472901,208.69639832125654,None,"[93. 93. 93. 93. 93. 93. 87. 87. 93. 87. 87. 93. 93. 93. 93. 87. 87. 93.
 93. 87. 87. 93. 87. 87. 87. 87. 93. 93. 87. 93. 87. 87. 87. 87.]",209.51236479513136,None,s,1,0.8308245697355687,209.51236479513136,None,None,None,,,,,,,10_MI,26,F,10,2021_Nov_01_1029,Partial repeat,2021.2.3,120.10176529272292,
4,4,0,1,1,2,3,2,3,1,0,0,0,0,1,0,0,25,25,25,,,,,,,,,,,,,,,,,,,,,,,,,,,,,,,,10_MI,26,F,10,2021_Nov_01_1029,Partial repeat,2021.2.3,120.10176529272292,
4,4,0,1,1,3,3,2,2,0,0,1,1,1,1,0,0,26,26,26,0,0,0,0,,,,,,,210.35331294021967,None,0.9937098559535562,210.89450861212458,None,"[93. 93. 93. 87. 93. 87. 87. 87. 87. 93. 93. 87. 93. 87. 87. 87. 87. 87.
 93. 93. 93. 87. 93. 87. 93. 87. 87. 87. 93. 93. 93. 87. 93. 93.]",211.9686014895226,None,s,1,0.8225338004524474,211.9686014895226,None,None,None,,,,,,,10_MI,26,F,10,2021_Nov_01_1029,Partial repeat,2021.2.3,120.10176529272292,
4,4,0,1,1,3,3,2,2,0,0,1,1,1,1,0,0,26,26,26,1,0,1,0,,,,,,,,,0.8734717789352167,212.85117826998066,None,"[87. 93. 87. 87. 93. 87. 93. 93. 87. 93. 93. 87. 87. 87. 87. 93. 93. 93.
 87. 93. 93. 93. 87. 87. 93. 93. 93. 87. 87. 93. 87. 87. 87. 87.]",213.8003724127227,None,s,1,0.5427759007936857,213.8003724127227,None,None,None,,,,,,,10_MI,26,F,10,2021_Nov_01_1029,Partial repeat,2021.2.3,120.10176529272292,
4,4,0,1,1,3,3,2,2,0,0,1,1,1,1,0,0,26,26,26,,,,,,,,,,,,,,,,,,,,,,,,,,,,,,,,10_MI,26,F,10,2021_Nov_01_1029,Partial repeat,2021.2.3,120.10176529272292,
4,4,0,1,1,3,2,3,2,0,1,0,0,0,1,0,0,27,27,27,0,0,0,0,,,,,,,214.36655168012294,None,0.9608907878929345,214.73290483847904,None,"[87. 87. 93. 87. 87. 93. 93. 87. 93. 87. 87. 93. 87. 87. 87. 93. 87. 87.
 93. 87. 93. 93. 93. 93. 93. 93. 93. 93. 87. 93. 87. 93. 93. 87.]",215.78201091324513,None,s,1,0.4651603043589603,215.78201091324513,None,None,None,,,,,,,10_MI,26,F,10,2021_Nov_01_1029,Partial repeat,2021.2.3,120.10176529272292,
4,4,0,1,1,3,2,3,2,0,1,0,0,0,1,0,0,27,27,27,1,0,1,0,,,,,,,,,0.801005251099838,216.28991105326872,None,"[87. 87. 93. 87. 87. 93. 93. 93. 87. 93. 93. 93. 87. 87. 93. 93. 87. 87.
 87. 87. 93. 93. 93. 87. 87. 93. 87. 87. 93. 93. 93. 87. 87. 93.]",217.17248302302164,None,l,1,0.530709690096046,217.17248302302164,None,None,None,,,,,,,10_MI,26,F,10,2021_Nov_01_1029,Partial repeat,2021.2.3,120.10176529272292,
4,4,0,1,1,3,2,3,2,0,1,0,0,0,1,0,0,27,27,27,,,,,,,,,,,,,,,,,,,,,,,,,,,,,,,,10_MI,26,F,10,2021_Nov_01_1029,Partial repeat,2021.2.3,120.10176529272292,
4,4,0,1,1,2,2,3,2,1,1,1,0,1,1,0,0,28,28,28,0,0,0,0,,,,,,,217.73034201548035,None,0.9869567502628734,218.20493636078504,None,"[87. 93. 87. 93. 87. 87. 93. 93. 87. 93. 87. 87. 93. 93. 93. 93. 93. 87.
 93. 87. 93. 87. 87. 87. 93. 93. 87. 93. 87. 87. 87. 93. 93. 93.]",219.2790234653371,None,l,1,0.4722195331198691,219.2790234653371,None,None,None,,,,,,,10_MI,26,F,10,2021_Nov_01_1029,Partial repeat,2021.2.3,120.10176529272292,
4,4,0,1,1,2,2,3,2,1,1,1,0,1,1,0,0,28,28,28,1,0,1,0,,,,,,,,,0.8267246141752138,219.811898220873,None,"[93. 87. 93. 87. 87. 87. 93. 93. 93. 93. 93. 87. 87. 87. 93. 93. 93. 93.
 87. 93. 87. 87. 87. 93. 93. 87. 87. 93. 87. 87. 93. 87. 93. 93.]",220.71945987968115,None,l,1,0.5357984540207781,220.71945987968115,None,None,None,,,,,,,10_MI,26,F,10,2021_Nov_01_1029,Partial repeat,2021.2.3,120.10176529272292,
4,4,0,1,1,2,2,3,2,1,1,1,0,1,1,0,0,28,28,28,,,,,,,,,,,,,,,,,,,,,,,,,,,,,,,,10_MI,26,F,10,2021_Nov_01_1029,Partial repeat,2021.2.3,120.10176529272292,
4,4,0,1,1,2,2,3,2,1,0,1,0,0,1,0,0,29,29,29,0,0,0,0,,,,,,,221.26899250363863,None,0.7266176980897031,221.67697814592862,None,"[87. 87. 93. 87. 93. 87. 87. 93. 87. 93. 93. 87. 87. 87. 93. 87. 93. 87.
 93. 87. 87. 87. 87. 93. 93. 87. 93. 87. 93. 87. 87. 87. 93. 93.]",222.4846233827211,None,l,1,0.5146720819275288,222.4846233827211,None,None,None,,,,,,,10_MI,26,F,10,2021_Nov_01_1029,Partial repeat,2021.2.3,120.10176529272292,
4,4,0,1,1,2,2,3,2,1,0,1,0,0,1,0,0,29,29,29,1,0,1,0,,,,,,,,,0.9061209549246058,223.05912581148596,None,"[87. 93. 93. 93. 87. 87. 87. 87. 87. 87. 87. 93. 87. 93. 87. 87. 87. 93.
 87. 93. 93. 87. 87. 93. 93. 87. 93. 87. 87. 93. 87. 87. 93. 93.]",224.04993383676833,None,s,1,0.677392580598962,224.04993383676833,None,None,None,,,,,,,10_MI,26,F,10,2021_Nov_01_1029,Partial repeat,2021.2.3,120.10176529272292,
4,4,0,1,1,2,2,3,2,1,0,1,0,0,1,0,0,29,29,29,,,,,,,,,,,,,,,,,,,,,,,,,,,,,,,,10_MI,26,F,10,2021_Nov_01_1029,Partial repeat,2021.2.3,120.10176529272292,
4,4,0,1,1,2,2,2,2,0,1,1,1,0,1,0,0,30,30,30,0,0,0,0,,,,,,,224.74935039444586,None,0.7754564643635495,225.11569681781475,None,"[87. 87. 93. 87. 87. 93. 93. 87. 87. 93. 87. 87. 93. 87. 87. 93. 93. 87.
 87. 93. 87. 87. 87. 93. 87. 87. 87. 87. 87. 87. 87. 87. 93. 93.]",225.97330732131604,None,s,1,0.6100411047066245,225.97330732131604,None,None,None,,,,,,,10_MI,26,F,10,2021_Nov_01_1029,Partial repeat,2021.2.3,120.10176529272292,
4,4,0,1,1,2,2,2,2,0,1,1,1,0,1,0,0,30,30,30,1,0,1,0,,,,,,,,,0.9480168001666441,226.6477223235322,None,"[93. 93. 93. 87. 87. 87. 87. 93. 93. 93. 93. 93. 87. 93. 87. 93. 93. 93.
 93. 93. 87. 87. 87. 93. 93. 87. 87. 87. 87. 93. 87. 87. 87. 93.]",227.67185666920886,None,l,1,0.4785032762074479,227.67185666920886,None,None,None,,,,,,,10_MI,26,F,10,2021_Nov_01_1029,Partial repeat,2021.2.3,120.10176529272292,
4,4,0,1,1,2,2,2,2,0,1,1,1,0,1,0,0,30,30,30,,,,,,,,,,,,,,,,,,,,,,,,,,,,,,,,10_MI,26,F,10,2021_Nov_01_1029,Partial repeat,2021.2.3,120.10176529272292,
4,4,0,1,1,2,3,2,2,0,1,0,1,0,1,0,0,31,31,31,0,0,0,0,,,,,,,228.17973884926664,None,0.8297613301112363,228.49614790801684,None,"[93. 93. 87. 93. 87. 93. 87. 93. 93. 93. 87. 93. 93. 87. 87. 87. 87. 93.
 87. 87. 87. 87. 87. 87. 87. 87. 87. 87. 87. 93. 93. 93. 93. 87.]",229.41204202888616,None,s,1,0.6263407359499524,229.41204202888616,None,None,None,,,,,,,10_MI,26,F,10,2021_Nov_01_1029,Partial repeat,2021.2.3,120.10176529272292,
4,4,0,1,1,2,3,2,2,0,1,0,1,0,1,0,0,31,31,31,1,0,1,0,,,,,,,,,0.9664481026172935,230.10311073024582,None,"[87. 87. 93. 93. 93. 87. 87. 93. 93. 87. 87. 93. 93. 87. 87. 93. 87. 87.
 87. 93. 87. 93. 87. 87. 93. 93. 93. 93. 93. 93. 87. 93. 93. 87.]",231.15220910788366,None,l,1,0.5662066006614168,231.15220910788366,None,None,None,,,,,,,10_MI,26,F,10,2021_Nov_01_1029,Partial repeat,2021.2.3,120.10176529272292,
4,4,0,1,1,2,3,2,2,0,1,0,1,0,1,0,0,31,31,31,,,,,,,,,,,,,,,,,,,,,,,,,,,,,,,,10_MI,26,F,10,2021_Nov_01_1029,Partial repeat,2021.2.3,120.10176529272292,
4,4,0,1,1,2,2,2,2,0,0,1,1,1,1,0,0,32,32,32,0,0,0,0,,,,,,,231.73504913012835,None,0.7809587326438855,232.1763453778426,None,"[93. 87. 93. 87. 93. 87. 93. 87. 93. 87. 87. 87. 87. 87. 87. 93. 87. 93.
 93. 93. 87. 93. 93. 87. 87. 87. 87. 87. 93. 87. 87. 93. 87. 93.]",233.0422658934474,None,s,1,0.548176719126559,233.0422658934474,None,None,None,,,,,,,10_MI,26,F,10,2021_Nov_01_1029,Partial repeat,2021.2.3,120.10176529272292,
4,4,0,1,1,2,2,2,2,0,0,1,1,1,1,0,0,32,32,32,1,0,1,0,,,,,,,,,0.7200339955151254,233.65840273042818,None,"[87. 93. 93. 93. 87. 87. 87. 93. 93. 87. 87. 87. 93. 93. 87. 87. 87. 87.
 87. 93. 87. 87. 93. 87. 87. 87. 87. 93. 87. 93. 93. 87. 93. 93.]",234.46605374006685,None,s,1,0.6764288359970578,234.46605374006685,None,None,None,,,,,,,10_MI,26,F,10,2021_Nov_01_1029,Partial repeat,2021.2.3,120.10176529272292,
4,4,0,1,1,2,2,2,2,0,0,1,1,1,1,0,0,32,32,32,,,,,,,,,,,,,,,,,,,,,,,,,,,,,,,,10_MI,26,F,10,2021_Nov_01_1029,Partial repeat,2021.2.3,120.10176529272292,
4,4,0,1,1,3,2,3,3,0,1,0,1,0,1,0,0,33,33,33,0,0,0,0,,,,,,,235.17377806485229,None,0.9266836540107494,235.61507174685698,None,"[93. 93. 93. 87. 93. 93. 87. 87. 87. 87. 93. 93. 93. 87. 93. 93. 93. 87.
 87. 93. 87. 87. 93. 93. 87. 87. 87. 87. 87. 87. 93. 93. 87. 93.]",236.62254437554816,None,s,1,0.5199555190545198,236.62254437554816,None,None,None,,,,,,,10_MI,26,F,10,2021_Nov_01_1029,Partial repeat,2021.2.3,120.10176529272292,
4,4,0,1,1,3,2,3,3,0,1,0,1,0,1,0,0,33,33,33,1,0,1,0,,,,,,,,,0.7559797449781478,237.21371365271716,None,"[93. 87. 93. 93. 87. 93. 93. 93. 93. 93. 87. 87. 87. 93. 87. 93. 93. 93.
 87. 87. 93. 87. 93. 87. 93. 93. 87. 93. 93. 93. 87. 87. 87. 93.]",238.05465217639517,None,l,1,0.5438759487083189,238.05465217639517,None,None,None,,,,,,,10_MI,26,F,10,2021_Nov_01_1029,Partial repeat,2021.2.3,120.10176529272292,
4,4,0,1,1,3,2,3,3,0,1,0,1,0,1,0,0,33,33,33,,,,,,,,,,,,,,,,,,,,,,,,,,,,,,,,10_MI,26,F,10,2021_Nov_01_1029,Partial repeat,2021.2.3,120.10176529272292,
4,4,0,1,1,3,3,2,3,0,0,1,0,1,1,0,0,34,34,34,0,0,0,0,,,,,,,238.62915941586493,None,0.7237091079671317,239.05379939872614,None,"[93. 93. 87. 87. 93. 93. 93. 93. 87. 87. 93. 87. 93. 87. 87. 87. 87. 93.
 93. 87. 87. 87. 87. 93. 87. 87. 87. 93. 87. 87. 93. 93. 93. 87.]",239.85311634273535,None,s,1,0.5534194256165392,239.85311634273535,None,None,None,,,,,,,10_MI,26,F,10,2021_Nov_01_1029,Partial repeat,2021.2.3,120.10176529272292,
4,4,0,1,1,3,3,2,3,0,0,1,0,1,1,0,0,34,34,34,1,0,1,0,,,,,,,,,0.7919382754137247,240.46925414185694,None,"[87. 87. 93. 93. 93. 93. 87. 93. 93. 93. 93. 87. 87. 87. 93. 93. 93. 93.
 87. 93. 93. 93. 87. 87. 93. 93. 93. 87. 93. 93. 87. 93. 93. 93.]",241.3435019881042,None,s,1,0.790104836928549,241.3435019881042,None,None,None,,,,,,,10_MI,26,F,10,2021_Nov_01_1029,Partial repeat,2021.2.3,120.10176529272292,
4,4,0,1,1,3,3,2,3,0,0,1,0,1,1,0,0,34,34,34,,,,,,,,,,,,,,,,,,,,,,,,,,,,,,,,10_MI,26,F,10,2021_Nov_01_1029,Partial repeat,2021.2.3,120.10176529272292,
4,4,0,1,1,2,3,3,3,0,0,0,1,1,1,0,0,35,35,35,0,0,0,0,,,,,,,242.15114690418295,None,0.9816323487378178,242.64239398649033,None,"[93. 93. 93. 87. 93. 93. 93. 93. 93. 87. 87. 93. 93. 93. 93. 87. 87. 93.
 87. 87. 93. 87. 87. 87. 87. 87. 87. 87. 93. 87. 87. 87. 93. 93.]",243.69982931618074,None,s,1,0.593801767634659,243.69982931618074,None,None,None,,,,,,,10_MI,26,F,10,2021_Nov_01_1029,Partial repeat,2021.2.3,120.10176529272292,
4,4,0,1,1,2,3,3,3,0,0,0,1,1,1,0,0,35,35,35,1,0,1,0,,,,,,,,,0.9958879854225713,244.35759735424062,None,"[87. 87. 87. 87. 87. 93. 93. 93. 93. 87. 87. 87. 93. 93. 93. 87. 87. 87.
 87. 93. 93. 87. 93. 93. 87. 87. 87. 87. 87. 93. 87. 87. 93. 93.]",245.440021731559,None,s,1,0.5820986048204304,245.440021731559,None,None,None,,,,,,,10_MI,26,F,10,2021_Nov_01_1029,Partial repeat,2021.2.3,120.10176529272292,
4,4,0,1,1,2,3,3,3,0,0,0,1,1,1,0,0,35,35,35,,,,,,,,,,,,,,,,,,,,,,,,,,,,,,,,10_MI,26,F,10,2021_Nov_01_1029,Partial repeat,2021.2.3,120.10176529272292,
4,4,0,1,1,3,3,3,2,1,0,1,0,0,1,0,0,36,36,36,0,0,0,0,,,,,,,246.03116727591578,None,0.9865004129248268,246.55572015294206,None,"[93. 93. 87. 93. 93. 87. 87. 93. 93. 87. 87. 93. 87. 87. 93. 87. 93. 93.
 87. 87. 87. 87. 87. 87. 87. 87. 93. 93. 87. 87. 87. 93. 87. 87.]",247.62980693678037,None,l,1,0.7118702630959888,247.62980693678037,None,None,None,,,,,,,10_MI,26,F,10,2021_Nov_01_1029,Partial repeat,2021.2.3,120.10176529272292,
4,4,0,1,1,3,3,3,2,1,0,1,0,0,1,0,0,36,36,36,1,0,1,0,,,,,,,,,0.7083890986307619,248.4124586359535,None,"[87. 87. 93. 87. 93. 93. 87. 87. 93. 93. 93. 87. 87. 93. 93. 93. 87. 87.
 93. 93. 87. 93. 87. 87. 87. 93. 93. 93. 93. 93. 93. 93. 93. 87.]",249.195138878644,None,s,1,0.6505799549993299,249.195138878644,None,None,None,,,,,,,10_MI,26,F,10,2021_Nov_01_1029,Partial repeat,2021.2.3,120.10176529272292,
4,4,0,1,1,3,3,3,2,1,0,1,0,0,1,0,0,36,36,36,,,,,,,,,,,,,,,,,,,,,,,,,,,,,,,,10_MI,26,F,10,2021_Nov_01_1029,Partial repeat,2021.2.3,120.10176529272292,
4,4,0,1,1,2,3,3,3,1,1,0,1,1,1,0,0,37,37,37,0,0,0,0,,,,,,,249.86123873733754,None,0.8321010577663817,250.3608086602958,None,"[93. 93. 87. 87. 93. 87. 87. 87. 87. 93. 93. 87. 93. 93. 93. 93. 93. 87.
 93. 93. 87. 93. 93. 87. 93. 87. 93. 87. 93. 87. 93. 87. 87. 93.]",251.26838795835602,None,l,1,0.4813576279393601,251.26838795835602,None,None,None,,,,,,,10_MI,26,F,10,2021_Nov_01_1029,Partial repeat,2021.2.3,120.10176529272292,
4,4,0,1,1,2,3,3,3,1,1,0,1,1,1,0,0,37,37,37,1,0,1,0,,,,,,,,,0.7107540493704287,251.80125020605874,None,"[93. 93. 87. 87. 93. 87. 93. 87. 93. 87. 93. 93. 87. 87. 93. 93. 93. 87.
 87. 93. 87. 93. 87. 87. 93. 87. 93. 93. 87. 93. 87. 87. 93. 93.]",252.6005588115122,None,l,1,1.3573299516317547,252.6005588115122,None,None,None,,,,,,,10_MI,26,F,10,2021_Nov_01_1029,Partial repeat,2021.2.3,120.10176529272292,
4,4,0,1,1,2,3,3,3,1,1,0,1,1,1,0,0,37,37,37,,,,,,,,,,,,,,,,,,,,,,,,,,,,,,,,10_MI,26,F,10,2021_Nov_01_1029,Partial repeat,2021.2.3,120.10176529272292,
4,4,0,1,1,2,3,3,2,0,0,0,0,1,1,0,0,38,38,38,0,0,0,0,,,,,,,253.9660829250115,None,0.8765964552475769,254.49060597566563,None,"[93. 87. 87. 87. 87. 87. 87. 87. 93. 87. 93. 93. 87. 93. 87. 87. 87. 87.
 93. 93. 87. 93. 93. 93. 87. 87. 87. 87. 93. 87. 93. 93. 93. 93.]",255.4481316183278,None,s,1,0.5256738439284163,255.4481316183278,None,None,None,,,,,,,10_MI,26,F,10,2021_Nov_01_1029,Partial repeat,2021.2.3,120.10176529272292,
4,4,0,1,1,2,3,3,2,0,0,0,0,1,1,0,0,38,38,38,1,0,1,0,,,,,,,,,0.8182668829943486,256.0392896705182,None,"[87. 93. 87. 87. 93. 87. 87. 93. 87. 87. 93. 93. 87. 87. 93. 93. 93. 93.
 87. 93. 87. 93. 87. 93. 93. 87. 93. 93. 87. 93. 93. 87. 93. 93.]",256.9385195086925,None,s,1,0.6663472015377465,256.9385195086925,None,None,None,,,,,,,10_MI,26,F,10,2021_Nov_01_1029,Partial repeat,2021.2.3,120.10176529272292,
4,4,0,1,1,2,3,3,2,0,0,0,0,1,1,0,0,38,38,38,,,,,,,,,,,,,,,,,,,,,,,,,,,,,,,,10_MI,26,F,10,2021_Nov_01_1029,Partial repeat,2021.2.3,120.10176529272292,
4,4,0,1,1,3,2,3,2,1,1,0,0,1,1,0,0,39,39,39,0,0,0,0,,,,,,,257.6212714629612,None,0.9207776353085542,258.01261559322734,None,"[93. 93. 87. 93. 87. 93. 87. 87. 87. 93. 93. 87. 87. 93. 87. 87. 87. 87.
 93. 87. 87. 87. 87. 87. 87. 93. 87. 87. 93. 87. 87. 87. 93. 87.]",259.01173491346844,None,l,1,0.481136014788035,259.01173491346844,None,None,None,,,,,,,10_MI,26,F,10,2021_Nov_01_1029,Partial repeat,2021.2.3,120.10176529272292,
4,4,0,1,1,3,2,3,2,1,1,0,0,1,1,0,0,39,39,39,1,0,1,0,,,,,,,,,0.8223172277975096,259.55295046962124,None,"[93. 93. 93. 87. 93. 87. 87. 93. 87. 87. 93. 93. 87. 87. 87. 87. 87. 87.
 87. 87. 93. 87. 87. 87. 87. 87. 93. 87. 87. 87. 93. 93. 87. 93.]",260.45219024991934,None,l,1,0.6408139027987545,260.45219024991934,None,None,None,,,,,,,10_MI,26,F,10,2021_Nov_01_1029,Partial repeat,2021.2.3,120.10176529272292,
4,4,0,1,1,3,2,3,2,1,1,0,0,1,1,0,0,39,39,39,,,,,,,,,,,,,,,,,,,,,,,,,,,,,,,,10_MI,26,F,10,2021_Nov_01_1029,Partial repeat,2021.2.3,120.10176529272292,
4,4,0,1,1,2,3,2,3,0,1,0,0,0,1,0,0,40,40,40,0,0,0,0,,,,,,,261.10163031590946,None,0.9430235280228215,261.29313550858456,None,"[87. 87. 93. 87. 93. 87. 93. 87. 93. 87. 87. 87. 87. 93. 87. 93. 87. 93.
 87. 87. 93. 87. 87. 93. 87. 87. 87. 93. 87. 93. 87. 87. 87. 87.]",262.32562925627144,None,s,1,0.4952926372368438,262.32562925627144,None,None,None,,,,,,,10_MI,26,F,10,2021_Nov_01_1029,Partial repeat,2021.2.3,120.10176529272292,
4,4,0,1,1,2,3,2,3,0,1,0,0,0,1,0,0,40,40,40,1,0,1,0,,,,,,,,,0.937123678943595,262.8751189045961,None,"[93. 93. 93. 93. 87. 87. 87. 93. 93. 93. 87. 87. 93. 87. 93. 87. 87. 93.
 93. 87. 87. 93. 93. 93. 87. 87. 93. 87. 93. 93. 87. 87. 87. 87.]",263.8909496524427,None,l,1,0.8500584104165227,263.8909496524427,None,None,None,,,,,,,10_MI,26,F,10,2021_Nov_01_1029,Partial repeat,2021.2.3,120.10176529272292,
4,4,0,1,1,2,3,2,3,0,1,0,0,0,1,0,0,40,40,40,,,,,,,,,,,,,,,,,,,,,,,,,,,,,,,,10_MI,26,F,10,2021_Nov_01_1029,Partial repeat,2021.2.3,120.10176529272292,
4,4,0,1,1,2,3,2,3,0,0,0,0,1,1,0,0,41,41,41,0,0,0,0,,,,,,,264.7734966065286,None,0.7636650827419013,265.5395029451138,None,"[87. 93. 93. 87. 93. 87. 87. 87. 93. 87. 87. 93. 93. 87. 87. 87. 87. 87.
 93. 87. 93. 87. 87. 93. 87. 87. 93. 87. 93. 93. 93. 87. 87. 93.]",266.38878483511803,None,s,1,0.5769456981602161,266.38878483511803,None,None,None,,,,,,,10_MI,26,F,10,2021_Nov_01_1029,Partial repeat,2021.2.3,120.10176529272292,
4,4,0,1,1,2,3,2,3,0,0,0,0,1,1,0,0,41,41,41,1,0,1,0,,,,,,,,,0.7804559516770818,267.02160070762284,None,"[87. 93. 87. 87. 87. 93. 93. 87. 87. 87. 87. 87. 87. 87. 93. 87. 87. 87.
 93. 93. 93. 93. 93. 93. 87. 87. 93. 87. 93. 87. 87. 93. 93. 93.]",267.88752731678755,None,s,1,0.9337605110270033,267.88752731678755,None,None,None,,,,,,,10_MI,26,F,10,2021_Nov_01_1029,Partial repeat,2021.2.3,120.10176529272292,
4,4,0,1,1,2,3,2,3,0,0,0,0,1,1,0,0,41,41,41,,,,,,,,,,,,,,,,,,,,,,,,,,,,,,,,10_MI,26,F,10,2021_Nov_01_1029,Partial repeat,2021.2.3,120.10176529272292,
4,4,0,1,1,2,3,3,2,1,1,0,0,1,1,0,0,42,42,42,0,0,0,0,,,,,,,268.8450224916503,None,0.8383376642737139,269.33626059397466,None,"[93. 93. 87. 87. 87. 87. 93. 87. 87. 93. 93. 87. 87. 93. 87. 87. 87. 87.
 87. 87. 87. 93. 93. 87. 87. 93. 87. 87. 93. 87. 93. 87. 93. 87.]",270.2521534319892,None,l,1,0.4568814014819509,270.2521534319892,None,None,None,,,,,,,10_MI,26,F,10,2021_Nov_01_1029,Partial repeat,2021.2.3,120.10176529272292,
4,4,0,1,1,2,3,3,2,1,1,0,0,1,1,0,0,42,42,42,1,0,1,0,,,,,,,,,0.8471223004933955,270.7600500441624,None,"[87. 87. 93. 87. 93. 93. 93. 93. 87. 87. 93. 87. 93. 93. 87. 87. 93. 93.
 93. 87. 93. 93. 87. 93. 93. 93. 93. 87. 93. 87. 93. 93. 87. 87.]",271.68425032857135,None,l,1,0.5278316055523646,271.68425032857135,None,None,None,,,,,,,10_MI,26,F,10,2021_Nov_01_1029,Partial repeat,2021.2.3,120.10176529272292,
4,4,0,1,1,2,3,3,2,1,1,0,0,1,1,0,0,42,42,42,,,,,,,,,,,,,,,,,,,,,,,,,,,,,,,,10_MI,26,F,10,2021_Nov_01_1029,Partial repeat,2021.2.3,120.10176529272292,
4,4,0,1,1,2,2,2,3,0,1,1,0,0,1,0,0,43,43,43,0,0,0,0,,,,,,,272.2421179802993,None,0.8109099996756891,272.68340075803894,None,"[93. 93. 87. 93. 93. 87. 93. 93. 93. 93. 93. 87. 93. 93. 93. 87. 87. 93.
 93. 93. 87. 87. 87. 93. 87. 87. 87. 93. 93. 87. 87. 87. 87. 93.]",273.58265368759794,None,s,1,0.5974376985989238,273.58265368759794,None,None,None,,,,,,,10_MI,26,F,10,2021_Nov_01_1029,Partial repeat,2021.2.3,120.10176529272292,
4,4,0,1,1,2,2,2,3,0,1,1,0,0,1,0,0,43,43,43,1,0,1,0,,,,,,,,,0.8779031753673411,274.2487323791888,None,"[93. 87. 87. 93. 87. 87. 93. 87. 87. 87. 93. 93. 93. 87. 93. 93. 93. 87.
 93. 87. 87. 93. 87. 93. 93. 93. 87. 93. 93. 87. 93. 93. 87. 93.]",275.2062541732869,None,l,1,0.4458587930921567,275.2062541732869,None,None,None,,,,,,,10_MI,26,F,10,2021_Nov_01_1029,Partial repeat,2021.2.3,120.10176529272292,
4,4,0,1,1,2,2,2,3,0,1,1,0,0,1,0,0,43,43,43,,,,,,,,,,,,,,,,,,,,,,,,,,,,,,,,10_MI,26,F,10,2021_Nov_01_1029,Partial repeat,2021.2.3,120.10176529272292,
4,4,0,1,1,3,2,2,2,1,0,0,1,0,1,0,0,44,44,44,0,0,0,0,,,,,,,275.6808481978778,None,0.7690791734384701,276.172089507339,None,"[93. 87. 93. 93. 87. 93. 93. 93. 87. 93. 87. 93. 93. 87. 87. 93. 93. 87.
 93. 93. 93. 87. 87. 87. 93. 93. 87. 87. 93. 87. 93. 87. 93. 93.]",277.0213717180568,None,l,1,0.4707830565571385,277.0213717180568,None,None,None,,,,,,,10_MI,26,F,10,2021_Nov_01_1029,Partial repeat,2021.2.3,120.10176529272292,
4,4,0,1,1,3,2,2,2,1,0,0,1,0,1,0,0,44,44,44,1,0,1,0,,,,,,,,,0.9325561721084887,277.5625754078035,None,"[87. 93. 93. 93. 87. 93. 87. 87. 87. 93. 93. 93. 87. 87. 93. 87. 93. 93.
 87. 93. 87. 93. 93. 87. 93. 93. 87. 87. 93. 87. 93. 87. 93. 87.]",278.5783692735772,None,l,0,0.529800146106254,278.5783692735772,None,279.12787303330356,None,,,,,,,10_MI,26,F,10,2021_Nov_01_1029,Partial repeat,2021.2.3,120.10176529272292,
4,4,0,1,1,3,2,2,2,1,0,0,1,0,1,0,0,44,44,44,,,,,,,,,,,,,,,,,,,,,,,,,,,,,,,,10_MI,26,F,10,2021_Nov_01_1029,Partial repeat,2021.2.3,120.10176529272292,
4,4,0,1,1,2,2,2,3,0,0,1,0,1,1,0,0,45,45,45,0,0,0,0,,,,,,,279.62747085835167,None,0.8053053616708349,280.32689896172155,None,"[87. 87. 87. 93. 93. 93. 93. 87. 87. 93. 93. 93. 93. 87. 93. 93. 93. 93.
 93. 93. 87. 87. 87. 87. 87. 87. 93. 87. 87. 87. 93. 93. 93. 87.]",281.2177873578519,None,s,1,0.46712275135314485,281.2177873578519,None,None,None,,,,,,,10_MI,26,F,10,2021_Nov_01_1029,Partial repeat,2021.2.3,120.10176529272292,
4,4,0,1,1,2,2,2,3,0,0,1,0,1,1,0,0,45,45,45,1,0,1,0,,,,,,,,,0.8208113064404782,281.75066275481504,None,"[87. 93. 93. 87. 93. 93. 87. 93. 93. 93. 87. 87. 93. 93. 87. 93. 87. 87.
 93. 87. 93. 93. 93. 87. 93. 87. 93. 93. 87. 87. 87. 87. 87. 87.]",282.64990093154506,None,s,1,0.5536413594813894,282.64990093154506,None,None,None,,,,,,,10_MI,26,F,10,2021_Nov_01_1029,Partial repeat,2021.2.3,120.10176529272292,
4,4,0,1,1,2,2,2,3,0,0,1,0,1,1,0,0,45,45,45,,,,,,,,,,,,,,,,,,,,,,,,,,,,,,,,10_MI,26,F,10,2021_Nov_01_1029,Partial repeat,2021.2.3,120.10176529272292,
4,4,0,1,1,2,3,3,3,1,0,0,1,0,1,0,0,46,46,46,0,0,0,0,,,,,,,283.2244017567414,None,0.8826495310655206,283.7739584342246,None,"[87. 93. 93. 93. 87. 93. 87. 93. 93. 93. 93. 93. 93. 93. 93. 87. 87. 93.
 93. 93. 87. 93. 87. 93. 87. 93. 93. 87. 87. 93. 93. 93. 93. 93.]",284.73145296766006,None,l,1,0.5529717093224917,284.73145296766006,None,None,None,,,,,,,10_MI,26,F,10,2021_Nov_01_1029,Partial repeat,2021.2.3,120.10176529272292,
4,4,0,1,1,2,3,3,3,1,0,0,1,0,1,0,0,46,46,46,1,0,1,0,,,,,,,,,0.8005545561079991,285.3559254738386,None,"[87. 93. 93. 87. 93. 93. 93. 87. 87. 93. 93. 87. 93. 93. 93. 93. 93. 93.
 87. 93. 87. 93. 93. 87. 87. 93. 93. 87. 93. 93. 87. 93. 87. 87.]",286.24682220852424,None,s,1,0.5093475934497746,286.24682220852424,None,None,None,,,,,,,10_MI,26,F,10,2021_Nov_01_1029,Partial repeat,2021.2.3,120.10176529272292,
4,4,0,1,1,2,3,3,3,1,0,0,1,0,1,0,0,46,46,46,,,,,,,,,,,,,,,,,,,,,,,,,,,,,,,,10_MI,26,F,10,2021_Nov_01_1029,Partial repeat,2021.2.3,120.10176529272292,
4,4,0,1,1,2,3,2,2,0,0,0,1,1,1,0,0,47,47,47,0,0,0,0,,,,,,,286.78802621898467,None,0.8052934320543443,287.2709482156454,None,"[93. 87. 87. 87. 93. 93. 87. 93. 93. 87. 93. 93. 93. 87. 93. 87. 87. 93.
 87. 93. 87. 93. 93. 93. 87. 87. 87. 87. 87. 87. 93. 93. 93. 93.]",288.1618574581646,None,s,1,0.49749850591229006,288.1618574581646,None,None,None,,,,,,,10_MI,26,F,10,2021_Nov_01_1029,Partial repeat,2021.2.3,120.10176529272292,
4,4,0,1,1,2,3,2,2,0,0,0,1,1,1,0,0,47,47,47,1,0,1,0,,,,,,,,,0.8617961456984157,288.719705867072,None,"[93. 93. 93. 87. 87. 87. 87. 87. 87. 87. 87. 93. 93. 93. 87. 87. 87. 87.
 93. 87. 93. 87. 93. 93. 93. 93. 87. 93. 87. 93. 93. 93. 87. 93.]",289.668899047673,None,s,1,0.9744719052785058,289.668899047673,None,None,None,,,,,,,10_MI,26,F,10,2021_Nov_01_1029,Partial repeat,2021.2.3,120.10176529272292,
4,4,0,1,1,2,3,2,2,0,0,0,1,1,1,0,0,47,47,47,,,,,,,,,,,,,,,,,,,,,,,,,,,,,,,,10_MI,26,F,10,2021_Nov_01_1029,Partial repeat,2021.2.3,120.10176529272292,
4,4,0,1,1,2,2,3,3,0,1,1,1,0,1,0,0,48,48,48,0,0,0,0,,,,,,,290.6597189393615,None,0.9049749597539091,291.4340452321744,None,"[93. 93. 93. 93. 87. 93. 87. 87. 87. 93. 87. 87. 93. 93. 87. 93. 93. 87.
 87. 93. 93. 93. 87. 93. 93. 93. 93. 93. 87. 93. 93. 93. 93. 87.]",292.4165538289044,None,s,1,0.4521479883123902,292.4165538289044,None,None,None,,,,,,,10_MI,26,F,10,2021_Nov_01_1029,Partial repeat,2021.2.3,120.10176529272292,
4,4,0,1,1,2,2,3,3,0,1,1,1,0,1,0,0,48,48,48,1,0,1,0,,,,,,,,,0.98506898522374,292.9327726403012,None,"[93. 87. 93. 87. 93. 87. 87. 87. 93. 87. 87. 87. 93. 93. 93. 93. 87. 87.
 93. 87. 93. 93. 87. 87. 93. 87. 87. 93. 87. 87. 87. 87. 87. 87.]",294.0068616691351,None,l,1,0.47655365776040526,294.0068616691351,None,None,None,,,,,,,10_MI,26,F,10,2021_Nov_01_1029,Partial repeat,2021.2.3,120.10176529272292,
4,4,0,1,1,2,2,3,3,0,1,1,1,0,1,0,0,48,48,48,,,,,,,,,,,,,,,,,,,,,,,,,,,,,,,,10_MI,26,F,10,2021_Nov_01_1029,Partial repeat,2021.2.3,120.10176529272292,
4,4,0,1,1,2,2,3,2,0,0,1,0,1,1,0,0,49,49,49,0,0,0,0,,,,,,,294.5064351199437,None,0.9056375158834281,294.9560426626165,None,"[87. 87. 93. 87. 93. 87. 93. 93. 93. 93. 93. 93. 87. 87. 93. 87. 87. 93.
 87. 87. 87. 87. 87. 87. 93. 87. 93. 87. 87. 93. 93. 93. 93. 87.]",295.938544845073,None,s,1,0.48102312357355004,295.938544845073,None,None,None,,,,,,,10_MI,26,F,10,2021_Nov_01_1029,Partial repeat,2021.2.3,120.10176529272292,
4,4,0,1,1,2,2,3,2,0,0,1,0,1,1,0,0,49,49,49,1,0,1,0,,,,,,,,,0.8387496065110557,296.4797434034008,None,"[93. 87. 93. 87. 93. 93. 93. 87. 93. 87. 93. 87. 93. 87. 93. 87. 93. 93.
 93. 93. 87. 93. 87. 87. 93. 93. 87. 93. 93. 93. 93. 87. 93. 93.]",297.395634637847,None,s,1,0.5929842684699906,297.395634637847,None,None,None,,,,,,,10_MI,26,F,10,2021_Nov_01_1029,Partial repeat,2021.2.3,120.10176529272292,
4,4,0,1,1,2,2,3,2,0,0,1,0,1,1,0,0,49,49,49,,,,,,,,,,,,,,,,,,,,,,,,,,,,,,,,10_MI,26,F,10,2021_Nov_01_1029,Partial repeat,2021.2.3,120.10176529272292,
4,4,0,1,1,3,2,3,3,1,0,0,1,0,1,0,0,50,50,50,0,0,0,0,,,,,,,298.0117746819644,None,0.9209931463334003,298.5030156707119,None,"[93. 93. 87. 87. 93. 87. 93. 87. 87. 87. 93. 93. 87. 93. 93. 87. 87. 93.
 87. 87. 93. 87. 93. 93. 87. 87. 93. 93. 93. 93. 93. 93. 93. 87.]",299.50217187302565,None,l,1,0.5653365044536258,299.50217187302565,None,None,None,,,,,,,10_MI,26,F,10,2021_Nov_01_1029,Partial repeat,2021.2.3,120.10176529272292,
4,4,0,1,1,3,2,3,3,1,0,0,1,0,1,0,0,50,50,50,1,0,1,0,,,,,,,,,0.9914740826487799,300.12662770209295,None,"[93. 87. 93. 87. 87. 93. 87. 87. 93. 87. 87. 93. 87. 87. 87. 93. 87. 87.
 93. 87. 87. 87. 87. 93. 87. 87. 93. 87. 93. 93. 93. 93. 87. 87.]",301.200713844504,None,s,1,0.5633208189890411,301.200713844504,None,None,None,,,,,,,10_MI,26,F,10,2021_Nov_01_1029,Partial repeat,2021.2.3,120.10176529272292,
4,4,0,1,1,3,2,3,3,1,0,0,1,0,1,0,0,50,50,50,,,,,,,,,,,,,,,,,,,,,,,,,,,,,,,,10_MI,26,F,10,2021_Nov_01_1029,Partial repeat,2021.2.3,120.10176529272292,
4,4,0,1,1,3,3,3,3,1,0,1,1,0,1,0,0,51,51,51,0,0,0,0,,,,,,,301.78355226318035,None,0.759256802069092,302.2914681181742,None,"[93. 93. 87. 93. 93. 87. 93. 87. 87. 87. 93. 93. 87. 87. 87. 93. 87. 93.
 93. 87. 87. 93. 87. 87. 87. 87. 87. 87. 87. 87. 93. 87. 93. 87.]",303.1323957375871,None,l,1,0.4558445341619972,303.1323957375871,None,None,None,,,,,,,10_MI,26,F,10,2021_Nov_01_1029,Partial repeat,2021.2.3,120.10176529272292,
4,4,0,1,1,3,3,3,3,1,0,1,1,0,1,0,0,51,51,51,1,0,1,0,,,,,,,,,0.9173336561160532,303.64861935968884,None,"[87. 87. 93. 93. 93. 87. 87. 87. 87. 87. 87. 93. 87. 87. 93. 93. 87. 93.
 93. 93. 87. 93. 93. 93. 93. 87. 87. 93. 87. 93. 87. 93. 93. 87.]",304.64777427914805,None,s,1,0.4908379242531282,304.64777427914805,None,None,None,,,,,,,10_MI,26,F,10,2021_Nov_01_1029,Partial repeat,2021.2.3,120.10176529272292,
4,4,0,1,1,3,3,3,3,1,0,1,1,0,1,0,0,51,51,51,,,,,,,,,,,,,,,,,,,,,,,,,,,,,,,,10_MI,26,F,10,2021_Nov_01_1029,Partial repeat,2021.2.3,120.10176529272292,
4,4,0,1,1,2,3,2,2,1,1,0,1,1,1,0,0,52,52,52,0,0,0,0,,,,,,,305.14734099496945,None,0.8836811036449612,305.6385871151356,None,"[93. 93. 93. 93. 93. 87. 93. 93. 87. 87. 87. 87. 93. 87. 87. 87. 93. 93.
 87. 87. 93. 93. 93. 93. 87. 87. 93. 93. 93. 87. 87. 87. 93. 87.]",306.6044311084572,None,l,1,0.5661912064049375,306.6044311084572,None,None,None,,,,,,,10_MI,26,F,10,2021_Nov_01_1029,Partial repeat,2021.2.3,120.10176529272292,
4,4,0,1,1,2,3,2,2,1,1,0,1,1,1,0,0,52,52,52,1,0,1,0,,,,,,,,,0.9485345435736852,307.23722517243186,None,"[93. 87. 93. 93. 87. 93. 93. 87. 93. 93. 87. 87. 87. 87. 87. 93. 93. 93.
 93. 87. 93. 93. 93. 93. 87. 87. 93. 87. 87. 87. 93. 87. 87. 87.]",308.26135470740337,None,l,1,0.5252960432160307,308.26135470740337,None,None,None,,,,,,,10_MI,26,F,10,2021_Nov_01_1029,Partial repeat,2021.2.3,120.10176529272292,
4,4,0,1,1,2,3,2,2,1,1,0,1,1,1,0,0,52,52,52,,,,,,,,,,,,,,,,,,,,,,,,,,,,,,,,10_MI,26,F,10,2021_Nov_01_1029,Partial repeat,2021.2.3,120.10176529272292,
4,4,0,1,1,2,3,2,3,1,1,0,0,1,1,0,0,53,53,53,0,0,0,0,,,,,,,308.8108825206557,None,0.7859700067970771,309.2688218839621,None,"[93. 93. 87. 87. 93. 93. 87. 87. 87. 87. 93. 87. 87. 87. 87. 87. 87. 87.
 87. 87. 87. 87. 87. 87. 93. 93. 93. 87. 93. 87. 93. 87. 93. 87.]",310.13475362454574,None,l,1,0.49199794562559873,310.13475362454574,None,None,None,,,,,,,10_MI,26,F,10,2021_Nov_01_1029,Partial repeat,2021.2.3,120.10176529272292,
4,4,0,1,1,2,3,2,3,1,1,0,0,1,1,0,0,53,53,53,1,0,1,0,,,,,,,,,0.9472705371649661,310.70091717697574,None,"[93. 93. 93. 87. 87. 93. 93. 93. 87. 93. 87. 87. 93. 93. 87. 93. 87. 93.
 87. 93. 87. 93. 87. 87. 93. 93. 87. 87. 93. 87. 87. 93. 93. 93.]",311.72505120193887,None,l,1,0.469643881573802,311.72505120193887,None,None,None,,,,,,,10_MI,26,F,10,2021_Nov_01_1029,Partial repeat,2021.2.3,120.10176529272292,
4,4,0,1,1,2,3,2,3,1,1,0,0,1,1,0,0,53,53,53,,,,,,,,,,,,,,,,,,,,,,,,,,,,,,,,10_MI,26,F,10,2021_Nov_01_1029,Partial repeat,2021.2.3,120.10176529272292,
4,4,0,1,1,3,3,2,2,0,1,1,1,0,1,0,0,54,54,54,0,0,0,0,,,,,,,312.22463042559366,None,0.9347781712444255,312.74917752977353,None,"[87. 87. 87. 93. 87. 93. 93. 93. 93. 93. 93. 87. 93. 93. 87. 87. 87. 87.
 93. 93. 87. 93. 93. 93. 93. 87. 93. 87. 93. 87. 93. 87. 87. 93.]",313.7649858276627,None,s,1,0.6057515592667642,313.7649858276627,None,None,None,,,,,,,10_MI,26,F,10,2021_Nov_01_1029,Partial repeat,2021.2.3,120.10176529272292,
4,4,0,1,1,3,3,2,2,0,1,1,1,0,1,0,0,54,54,54,1,0,1,0,,,,,,,,,0.8765107092486645,314.4310815170784,None,"[93. 87. 87. 93. 93. 93. 93. 87. 87. 93. 87. 87. 87. 93. 93. 93. 87. 87.
 93. 87. 87. 93. 93. 93. 87. 93. 87. 93. 87. 93. 93. 93. 87. 93.]",315.3885988211848,None,l,1,0.7111435259023438,315.3885988211848,None,None,None,,,,,,,10_MI,26,F,10,2021_Nov_01_1029,Partial repeat,2021.2.3,120.10176529272292,
4,4,0,1,1,3,3,2,2,0,1,1,1,0,1,0,0,54,54,54,,,,,,,,,,,,,,,,,,,,,,,,,,,,,,,,10_MI,26,F,10,2021_Nov_01_1029,Partial repeat,2021.2.3,120.10176529272292,
4,4,0,1,1,2,3,3,3,0,1,0,1,0,1,0,0,55,55,55,0,0,0,0,,,,,,,316.12129615791446,None,0.9820334002559608,316.59589787963364,None,"[87. 93. 87. 93. 93. 93. 93. 93. 87. 87. 87. 93. 87. 93. 93. 87. 93. 93.
 93. 87. 93. 93. 87. 93. 93. 87. 87. 87. 87. 93. 87. 87. 87. 93.]",317.6533370578884,None,s,1,0.5254596071918058,317.6533370578884,None,None,None,,,,,,,10_MI,26,F,10,2021_Nov_01_1029,Partial repeat,2021.2.3,120.10176529272292,
4,4,0,1,1,2,3,3,3,0,1,0,1,0,1,0,0,55,55,55,1,0,1,0,,,,,,,,,0.7008962117402481,318.2444874129503,None,"[87. 93. 87. 93. 87. 93. 87. 87. 87. 87. 93. 93. 93. 87. 93. 87. 93. 87.
 93. 93. 87. 93. 87. 93. 93. 87. 87. 93. 87. 87. 93. 93. 87. 93.]",319.02715963779883,None,l,1,0.5426742345575803,319.02715963779883,None,None,None,,,,,,,10_MI,26,F,10,2021_Nov_01_1029,Partial repeat,2021.2.3,120.10176529272292,
4,4,0,1,1,2,3,3,3,0,1,0,1,0,1,0,0,55,55,55,,,,,,,,,,,,,,,,,,,,,,,,,,,,,,,,10_MI,26,F,10,2021_Nov_01_1029,Partial repeat,2021.2.3,120.10176529272292,
4,4,0,1,1,2,3,3,2,1,0,0,0,0,1,0,0,56,56,56,0,0,0,0,,,,,,,319.59332768022045,None,0.9747713706336519,320.159524266159,None,"[87. 93. 87. 93. 93. 93. 93. 93. 93. 93. 87. 93. 93. 87. 87. 87. 87. 87.
 87. 87. 87. 93. 87. 87. 87. 93. 93. 93. 87. 87. 87. 93. 93. 93.]",321.20862713378847,None,l,1,0.7135963441096465,321.20862713378847,None,None,None,,,,,,,10_MI,26,F,10,2021_Nov_01_1029,Partial repeat,2021.2.3,120.10176529272292,
4,4,0,1,1,2,3,3,2,1,0,0,0,0,1,0,0,56,56,56,1,0,1,0,,,,,,,,,0.7408158865759202,321.9912884543719,None,"[93. 93. 93. 93. 93. 87. 93. 87. 87. 87. 93. 93. 93. 87. 93. 87. 87. 93.
 87. 93. 93. 93. 87. 93. 93. 87. 87. 87. 93. 87. 93. 87. 93. 87.]",322.80726166323416,None,s,1,0.6672031863433858,322.80726166323416,None,None,None,,,,,,,10_MI,26,F,10,2021_Nov_01_1029,Partial repeat,2021.2.3,120.10176529272292,
4,4,0,1,1,2,3,3,2,1,0,0,0,0,1,0,0,56,56,56,,,,,,,,,,,,,,,,,,,,,,,,,,,,,,,,10_MI,26,F,10,2021_Nov_01_1029,Partial repeat,2021.2.3,120.10176529272292,
4,4,0,1,1,3,3,3,3,1,1,1,1,1,1,0,0,57,57,57,0,0,0,0,,,,,,,323.4983345338717,None,0.8545151475833961,323.94794368011253,None,"[87. 87. 87. 87. 87. 93. 93. 87. 93. 93. 87. 93. 93. 93. 93. 93. 93. 93.
 93. 87. 87. 87. 93. 87. 87. 93. 93. 87. 93. 93. 93. 93. 93. 87.]",324.88048829298873,None,l,1,0.5784136046631829,324.88048829298873,None,None,None,,,,,,,10_MI,26,F,10,2021_Nov_01_1029,Partial repeat,2021.2.3,120.10176529272292,
4,4,0,1,1,3,3,3,3,1,1,1,1,1,1,0,0,57,57,57,1,0,1,0,,,,,,,,,0.7279926180572187,325.51326760413417,None,"[93. 93. 87. 93. 87. 87. 93. 93. 87. 93. 87. 93. 87. 93. 93. 87. 93. 93.
 93. 93. 87. 87. 93. 93. 93. 93. 87. 93. 93. 93. 87. 87. 93. 87.]",326.32092759375587,None,l,1,0.5129992393844987,326.32092759375587,None,None,None,,,,,,,10_MI,26,F,10,2021_Nov_01_1029,Partial repeat,2021.2.3,120.10176529272292,
4,4,0,1,1,3,3,3,3,1,1,1,1,1,1,0,0,57,57,57,,,,,,,,,,,,,,,,,,,,,,,,,,,,,,,,10_MI,26,F,10,2021_Nov_01_1029,Partial repeat,2021.2.3,120.10176529272292,
4,4,0,1,1,3,3,3,2,0,1,1,0,0,1,0,0,58,58,58,0,0,0,0,,,,,,,326.8537997835824,None,0.9145788736088776,327.3950012283335,None,"[87. 87. 93. 87. 87. 93. 93. 87. 87. 93. 87. 87. 87. 93. 93. 87. 87. 93.
 87. 87. 87. 93. 87. 87. 87. 93. 87. 93. 87. 93. 87. 87. 93. 93.]",328.3858313828598,None,s,1,0.5611171953094072,328.3858313828598,None,None,None,,,,,,,10_MI,26,F,10,2021_Nov_01_1029,Partial repeat,2021.2.3,120.10176529272292,
4,4,0,1,1,3,3,3,2,0,1,1,0,0,1,0,0,58,58,58,1,0,1,0,,,,,,,,,0.8772552945379228,329.0102878533544,None,"[87. 87. 87. 87. 87. 93. 87. 93. 87. 93. 93. 93. 87. 87. 93. 87. 93. 87.
 93. 87. 87. 93. 87. 87. 93. 93. 87. 87. 93. 93. 93. 87. 87. 93.]",329.967779179653,None,l,1,0.4822139334589792,329.967779179653,None,None,None,,,,,,,10_MI,26,F,10,2021_Nov_01_1029,Partial repeat,2021.2.3,120.10176529272292,
4,4,0,1,1,3,3,3,2,0,1,1,0,0,1,0,0,58,58,58,,,,,,,,,,,,,,,,,,,,,,,,,,,,,,,,10_MI,26,F,10,2021_Nov_01_1029,Partial repeat,2021.2.3,120.10176529272292,
4,4,0,1,1,3,2,3,3,1,1,0,1,1,1,0,0,59,59,59,0,0,0,0,,,,,,,330.45905640904607,None,0.7361236179314717,330.9003459217729,None,"[87. 87. 93. 93. 87. 93. 93. 93. 93. 93. 87. 87. 93. 87. 87. 87. 87. 87.
 93. 93. 87. 87. 93. 87. 93. 93. 93. 93. 93. 93. 87. 87. 93. 87.]",331.7163194513489,None,l,1,0.6377020179836563,331.7163194513489,None,None,None,,,,,,,10_MI,26,F,10,2021_Nov_01_1029,Partial repeat,2021.2.3,120.10176529272292,
4,4,0,1,1,3,2,3,3,1,1,0,1,1,1,0,0,59,59,59,1,0,1,0,,,,,,,,,0.9991223193812734,332.415769042535,None,"[87. 93. 87. 93. 93. 87. 93. 87. 87. 87. 87. 87. 87. 93. 93. 93. 93. 93.
 93. 87. 87. 93. 87. 87. 93. 87. 87. 87. 93. 87. 93. 87. 93. 93.]",333.48980290861664,None,l,1,0.48024892075522985,333.48980290861664,None,None,None,,,,,,,10_MI,26,F,10,2021_Nov_01_1029,Partial repeat,2021.2.3,120.10176529272292,
4,4,0,1,1,3,2,3,3,1,1,0,1,1,1,0,0,59,59,59,,,,,,,,,,,,,,,,,,,,,,,,,,,,,,,,10_MI,26,F,10,2021_Nov_01_1029,Partial repeat,2021.2.3,120.10176529272292,
4,4,0,1,1,2,2,3,3,1,0,1,1,0,1,0,0,60,60,60,0,0,0,0,,,,,,,333.98937251086113,None,0.9171323323235053,334.53890545553213,None,"[87. 93. 87. 93. 87. 93. 87. 93. 93. 93. 87. 87. 93. 93. 87. 93. 87. 87.
 93. 93. 87. 87. 87. 87. 87. 87. 93. 93. 93. 87. 93. 87. 87. 87.]",335.5380446600211,None,l,1,0.4790741465537849,335.5380446600211,None,None,None,,,,,,,10_MI,26,F,10,2021_Nov_01_1029,Partial repeat,2021.2.3,120.10176529272292,
4,4,0,1,1,2,2,3,3,1,0,1,1,0,1,0,0,60,60,60,1,0,1,0,,,,,,,,,0.9901006589931955,336.0875772839786,None,"[87. 93. 87. 87. 93. 87. 93. 87. 87. 87. 93. 87. 87. 93. 93. 93. 93. 93.
 87. 87. 87. 87. 93. 87. 87. 87. 93. 87. 87. 93. 87. 87. 87. 93.]",337.15333962359773,None,s,1,0.5757773382322284,337.15333962359773,None,None,None,,,,,,,10_MI,26,F,10,2021_Nov_01_1029,Partial repeat,2021.2.3,120.10176529272292,
4,4,0,1,1,2,2,3,3,1,0,1,1,0,1,0,0,60,60,60,,,,,,,,,,,,,,,,,,,,,,,,,,,,,,,,10_MI,26,F,10,2021_Nov_01_1029,Partial repeat,2021.2.3,120.10176529272292,
4,4,0,1,1,2,2,2,2,1,0,1,1,0,1,0,0,61,61,61,0,0,0,0,,,,,,,337.752828534281,None,0.8491062538666516,338.1858045070535,None,"[87. 93. 93. 93. 87. 93. 93. 87. 93. 93. 93. 93. 93. 87. 87. 87. 93. 93.
 93. 87. 93. 93. 87. 87. 87. 87. 93. 87. 87. 87. 93. 87. 93. 87.]",339.1100031878941,None,l,1,0.6031342149428838,339.1100031878941,None,None,None,,,,,,,10_MI,26,F,10,2021_Nov_01_1029,Partial repeat,2021.2.3,120.10176529272292,
4,4,0,1,1,2,2,2,2,1,0,1,1,0,1,0,0,61,61,61,1,0,1,0,,,,,,,,,0.8658126970253108,339.7844220386744,None,"[93. 93. 93. 93. 87. 93. 93. 87. 93. 87. 93. 87. 87. 93. 87. 87. 93. 93.
 87. 93. 93. 93. 87. 87. 93. 93. 87. 87. 87. 93. 87. 93. 87. 87.]",340.7252885300602,None,s,1,0.6198764310613569,340.7252885300602,None,None,None,,,,,,,10_MI,26,F,10,2021_Nov_01_1029,Partial repeat,2021.2.3,120.10176529272292,
4,4,0,1,1,2,2,2,2,1,0,1,1,0,1,0,0,61,61,61,,,,,,,,,,,,,,,,,,,,,,,,,,,,,,,,10_MI,26,F,10,2021_Nov_01_1029,Partial repeat,2021.2.3,120.10176529272292,
4,4,0,1,1,3,2,2,3,1,0,0,0,0,1,0,0,62,62,62,0,0,0,0,,,,,,,341.3747321239007,None,0.9304048731561377,341.8493200549319,None,"[87. 87. 87. 87. 87. 93. 93. 87. 87. 93. 93. 93. 87. 93. 87. 87. 93. 87.
 87. 93. 87. 93. 93. 87. 93. 87. 87. 93. 87. 93. 87. 87. 87. 93.]",342.85680102217884,None,l,1,0.5363981885982412,342.85680102217884,None,None,None,,,,,,,10_MI,26,F,10,2021_Nov_01_1029,Partial repeat,2021.2.3,120.10176529272292,
4,4,0,1,1,3,2,2,3,1,0,0,0,0,1,0,0,62,62,62,1,0,1,0,,,,,,,,,0.7820660516305871,343.46461341494,None,"[87. 93. 93. 93. 93. 87. 93. 93. 87. 93. 87. 87. 93. 87. 87. 87. 93. 93.
 87. 93. 87. 93. 87. 93. 93. 87. 93. 87. 93. 93. 93. 87. 93. 93.]",344.3222277670054,None,s,1,0.607003625464813,344.3222277670054,None,None,None,,,,,,,10_MI,26,F,10,2021_Nov_01_1029,Partial repeat,2021.2.3,120.10176529272292,
4,4,0,1,1,3,2,2,3,1,0,0,0,0,1,0,0,62,62,62,,,,,,,,,,,,,,,,,,,,,,,,,,,,,,,,10_MI,26,F,10,2021_Nov_01_1029,Partial repeat,2021.2.3,120.10176529272292,
4,4,0,1,1,2,2,3,2,0,1,1,0,0,1,0,0,63,63,63,0,0,0,0,,,,,,,344.9466797475086,None,0.7684857883525766,345.35466057909366,None,"[93. 93. 87. 93. 87. 87. 93. 93. 87. 93. 93. 87. 87. 93. 87. 93. 87. 93.
 87. 93. 93. 93. 93. 87. 87. 87. 93. 87. 87. 93. 93. 87. 87. 93.]",346.2039459969483,None,s,1,0.9814275435212494,346.2039459969483,None,None,None,,,,,,,10_MI,26,F,10,2021_Nov_01_1029,Partial repeat,2021.2.3,120.10176529272292,
4,4,0,1,1,2,2,3,2,0,1,1,0,0,1,0,0,63,63,63,1,0,1,0,,,,,,,,,0.9922226267468107,347.2447199303667,None,"[93. 87. 87. 87. 87. 87. 87. 87. 93. 93. 87. 87. 93. 93. 87. 87. 87. 93.
 93. 93. 87. 93. 87. 93. 93. 93. 93. 87. 87. 87. 87. 87. 93. 87.]",348.31879997921783,None,l,1,0.7544921487258307,348.31879997921783,None,None,None,,,,,,,10_MI,26,F,10,2021_Nov_01_1029,Partial repeat,2021.2.3,120.10176529272292,
4,4,0,1,1,2,2,3,2,0,1,1,0,0,1,0,0,63,63,63,,,,,,,,,,,,,,,,,,,,,,,,,,,,,,,,10_MI,26,F,10,2021_Nov_01_1029,Partial repeat,2021.2.3,120.10176529272292,
8,1,0,1,1,3,2,2,3,1,0,0,0,0,0,0,0,64,64,64,0,0,0,0,,,,,,,352.3736756930464,None,0.7502652783209491,355.7291348491974,None,"[93. 93. 93. 87. 87. 93. 93. 87. 87. 87. 93. 93. 93. 87. 93. 93. 87. 87.
 87. 87. 87. 93. 87. 87. 87. 93. 93. 87. 93. 93. 87. 87. 87. 93.]",356.5534321815651,None,l,1,1.1589589205439097,356.5534321815651,None,None,None,,,,,,,10_MI,26,F,10,2021_Nov_01_1029,Partial repeat,2021.2.3,120.10176529272292,
8,1,0,1,1,3,2,2,3,1,0,0,0,0,0,0,0,64,64,64,1,0,1,0,,,,,,,,,0.7666340242721097,357.78569655482966,None,"[93. 93. 87. 87. 93. 93. 93. 93. 93. 87. 93. 87. 87. 93. 87. 87. 93. 87.
 87. 93. 93. 93. 87. 93. 87. 87. 87. 87. 93. 87. 87. 87. 93. 93.]",358.6266578491786,None,s,1,0.5253945023150663,358.6266578491786,None,None,None,,,,,,,10_MI,26,F,10,2021_Nov_01_1029,Partial repeat,2021.2.3,120.10176529272292,
8,1,0,1,1,3,2,2,3,1,0,0,0,0,0,0,0,64,64,64,,,,,,,,,,,,,,,,,,,,,,,,,,,,,,,,10_MI,26,F,10,2021_Nov_01_1029,Partial repeat,2021.2.3,120.10176529272292,
2,7,0,1,1,2,3,2,3,1,1,0,0,1,0,0,0,65,65,65,0,0,0,0,,,,,,,359.1761798895848,None,0.7196822289630043,359.908896469135,None,"[93. 93. 93. 87. 93. 87. 93. 87. 87. 87. 87. 93. 87. 93. 87. 93. 93. 93.
 93. 87. 93. 87. 87. 93. 93. 93. 87. 87. 87. 93. 93. 87. 87. 87.]",360.7082185445629,None,l,1,0.5402672784061906,360.7082185445629,None,None,None,,,,,,,10_MI,26,F,10,2021_Nov_01_1029,Partial repeat,2021.2.3,120.10176529272292,
2,7,0,1,1,2,3,2,3,1,1,0,0,1,0,0,0,65,65,65,1,0,1,0,,,,,,,,,0.9893620883709737,361.3076962302673,None,"[93. 87. 87. 87. 93. 87. 87. 93. 87. 93. 93. 87. 87. 93. 93. 93. 93. 87.
 93. 87. 93. 93. 87. 93. 93. 87. 87. 93. 93. 93. 87. 93. 93. 87.]",362.3734576077454,None,l,1,0.6838437362264358,362.3734576077454,None,None,None,,,,,,,10_MI,26,F,10,2021_Nov_01_1029,Partial repeat,2021.2.3,120.10176529272292,
2,7,0,1,1,2,3,2,3,1,1,0,0,1,0,0,0,65,65,65,,,,,,,,,,,,,,,,,,,,,,,,,,,,,,,,10_MI,26,F,10,2021_Nov_01_1029,Partial repeat,2021.2.3,120.10176529272292,
6,6,0,1,1,3,3,3,3,1,0,1,1,0,0,0,0,66,66,66,0,0,0,0,,,,,,,363.0811864225225,None,0.9997740698909006,363.6556971898426,None,"[93. 87. 93. 93. 93. 87. 93. 93. 87. 93. 87. 93. 93. 93. 87. 87. 93. 93.
 93. 87. 93. 87. 87. 87. 93. 87. 87. 87. 93. 87. 87. 93. 93. 87.]",364.72978172868534,None,l,1,0.45476565335025043,364.72978172868534,None,None,None,,,,,,,10_MI,26,F,10,2021_Nov_01_1029,Partial repeat,2021.2.3,120.10176529272292,
6,6,0,1,1,3,3,3,3,1,0,1,1,0,0,0,0,66,66,66,1,0,1,0,,,,,,,,,0.8161297869548799,365.25432755001066,None,"[87. 93. 93. 93. 87. 87. 93. 93. 93. 87. 93. 87. 93. 87. 87. 87. 87. 87.
 87. 87. 93. 87. 87. 93. 87. 87. 93. 93. 93. 93. 93. 87. 93. 87.]",366.14525122464534,None,s,1,0.7023226169098962,366.14525122464534,None,None,None,,,,,,,10_MI,26,F,10,2021_Nov_01_1029,Partial repeat,2021.2.3,120.10176529272292,
6,6,0,1,1,3,3,3,3,1,0,1,1,0,0,0,0,66,66,66,,,,,,,,,,,,,,,,,,,,,,,,,,,,,,,,10_MI,26,F,10,2021_Nov_01_1029,Partial repeat,2021.2.3,120.10176529272292,
1,5,0,1,1,2,2,3,2,1,1,1,0,1,0,0,0,67,67,67,0,0,0,0,,,,,,,366.87794407138335,None,0.9656466179088479,367.5440439300769,None,"[87. 87. 93. 87. 87. 93. 87. 87. 93. 87. 93. 93. 87. 93. 93. 93. 93. 93.
 93. 87. 93. 93. 93. 93. 93. 87. 87. 87. 87. 87. 87. 87. 87. 93.]",368.5848210706322,None,l,1,0.5348177115943145,368.5848210706322,None,None,None,,,,,,,10_MI,26,F,10,2021_Nov_01_1029,Partial repeat,2021.2.3,120.10176529272292,
1,5,0,1,1,2,2,3,2,1,1,1,0,1,0,0,0,67,67,67,1,0,1,0,,,,,,,,,0.9090264015583926,369.1843096606017,None,"[87. 87. 87. 87. 87. 87. 93. 93. 93. 87. 87. 93. 87. 87. 87. 87. 93. 93.
 93. 87. 93. 87. 87. 93. 93. 87. 87. 93. 87. 93. 87. 87. 93. 93.]",370.1751378908459,None,s,0,0.49649819995124744,370.1751378908459,None,370.6913457979774,None,,,,,,,10_MI,26,F,10,2021_Nov_01_1029,Partial repeat,2021.2.3,120.10176529272292,
1,5,0,1,1,2,2,3,2,1,1,1,0,1,0,0,0,67,67,67,,,,,,,,,,,,,,,,,,,,,,,,,,,,,,,,10_MI,26,F,10,2021_Nov_01_1029,Partial repeat,2021.2.3,120.10176529272292,
1,7,0,1,1,3,3,3,2,1,0,1,0,0,0,0,0,68,68,68,0,0,0,0,,,,,,,371.1909234180639,None,0.8112782293081995,371.9402859996294,None,"[93. 87. 93. 93. 87. 93. 87. 93. 93. 93. 87. 93. 87. 87. 87. 87. 87. 93.
 93. 87. 93. 93. 87. 87. 87. 93. 87. 87. 87. 87. 87. 93. 87. 87.]",372.83119235572553,None,l,1,0.9764952878713302,372.83119235572553,None,None,None,,,,,,,10_MI,26,F,10,2021_Nov_01_1029,Partial repeat,2021.2.3,120.10176529272292,
1,7,0,1,1,3,3,3,2,1,0,1,0,0,0,0,0,68,68,68,1,0,1,0,,,,,,,,,0.8321997147448195,373.8803000340599,None,"[87. 93. 87. 87. 87. 87. 87. 93. 87. 93. 93. 87. 87. 93. 87. 93. 87. 87.
 93. 93. 87. 87. 93. 87. 87. 87. 93. 93. 93. 93. 87. 87. 87. 87.]",374.78785271288507,None,s,1,0.6839992823599914,374.78785271288507,None,None,None,,,,,,,10_MI,26,F,10,2021_Nov_01_1029,Partial repeat,2021.2.3,120.10176529272292,
1,7,0,1,1,3,3,3,2,1,0,1,0,0,0,0,0,68,68,68,,,,,,,,,,,,,,,,,,,,,,,,,,,,,,,,10_MI,26,F,10,2021_Nov_01_1029,Partial repeat,2021.2.3,120.10176529272292,
6,1,0,1,1,3,2,3,3,0,1,0,1,0,0,0,0,69,69,69,0,0,0,0,,,,,,,375.48725291416486,None,0.9372902779090707,376.12005018527634,None,"[87. 93. 87. 93. 87. 93. 87. 93. 87. 87. 87. 93. 93. 87. 87. 93. 93. 93.
 87. 87. 93. 93. 87. 93. 93. 87. 87. 93. 87. 87. 87. 93. 87. 87.]",377.1358495031825,None,s,1,0.7839480964571521,377.1358495031825,None,None,None,,,,,,,10_MI,26,F,10,2021_Nov_01_1029,Partial repeat,2021.2.3,120.10176529272292,
6,1,0,1,1,3,2,3,3,0,1,0,1,0,0,0,0,69,69,69,1,0,1,0,,,,,,,,,0.9936922755505609,377.99345519597864,None,"[87. 87. 93. 93. 93. 87. 87. 87. 87. 93. 93. 93. 87. 93. 87. 87. 87. 87.
 93. 87. 93. 93. 93. 87. 93. 93. 93. 93. 87. 87. 87. 93. 93. 87.]",379.0675320376929,None,l,1,0.6602542830880793,379.0675320376929,None,None,None,,,,,,,10_MI,26,F,10,2021_Nov_01_1029,Partial repeat,2021.2.3,120.10176529272292,
6,1,0,1,1,3,2,3,3,0,1,0,1,0,0,0,0,69,69,69,,,,,,,,,,,,,,,,,,,,,,,,,,,,,,,,10_MI,26,F,10,2021_Nov_01_1029,Partial repeat,2021.2.3,120.10176529272292,
5,3,0,1,1,2,3,3,2,0,1,0,0,0,0,0,0,70,70,70,0,0,0,0,,,,,,,379.74195152990046,None,0.8865951770604448,380.30813047658694,None,"[87. 93. 93. 93. 87. 93. 87. 87. 93. 93. 87. 87. 87. 93. 87. 87. 93. 87.
 93. 93. 93. 93. 87. 93. 93. 93. 93. 93. 87. 93. 87. 93. 93. 87.]",381.2739741491948,None,s,1,0.8208737864567865,381.2739741491948,None,None,None,,,,,,,10_MI,26,F,10,2021_Nov_01_1029,Partial repeat,2021.2.3,120.10176529272292,
5,3,0,1,1,2,3,3,2,0,1,0,0,0,0,0,0,70,70,70,1,0,1,0,,,,,,,,,0.7557986581395384,382.14823193756615,None,"[93. 93. 93. 87. 87. 87. 87. 93. 87. 93. 87. 87. 87. 87. 87. 87. 87. 87.
 87. 87. 87. 93. 87. 93. 93. 93. 87. 87. 93. 87. 93. 93. 93. 87.]",382.98086942912346,None,l,1,0.6019565543181216,382.98086942912346,None,None,None,,,,,,,10_MI,26,F,10,2021_Nov_01_1029,Partial repeat,2021.2.3,120.10176529272292,
5,3,0,1,1,2,3,3,2,0,1,0,0,0,0,0,0,70,70,70,,,,,,,,,,,,,,,,,,,,,,,,,,,,,,,,10_MI,26,F,10,2021_Nov_01_1029,Partial repeat,2021.2.3,120.10176529272292,
6,2,0,1,1,3,3,3,2,0,1,1,0,0,0,0,0,71,71,71,0,0,0,0,,,,,,,383.60531788177605,None,0.9102933920031147,384.07158682072054,None,"[93. 87. 87. 93. 87. 87. 87. 93. 93. 87. 87. 87. 87. 87. 93. 87. 93. 87.
 93. 93. 87. 93. 93. 93. 93. 93. 93. 87. 87. 93. 93. 93. 87. 87.]",385.06242595522986,None,s,1,0.7288132459771077,385.06242595522986,None,None,None,,,,,,,10_MI,26,F,10,2021_Nov_01_1029,Partial repeat,2021.2.3,120.10176529272292,
6,2,0,1,1,3,3,3,2,0,1,1,0,0,0,0,0,71,71,71,1,0,1,0,,,,,,,,,0.9028695680326341,385.85339921219907,None,"[93. 93. 87. 93. 87. 93. 87. 93. 93. 93. 87. 87. 93. 93. 87. 87. 87. 93.
 87. 87. 93. 87. 93. 93. 87. 93. 87. 93. 87. 87. 87. 87. 93. 93.]",386.8358946596684,None,l,1,0.6990070789097445,386.8358946596684,None,None,None,,,,,,,10_MI,26,F,10,2021_Nov_01_1029,Partial repeat,2021.2.3,120.10176529272292,
6,2,0,1,1,3,3,3,2,0,1,1,0,0,0,0,0,71,71,71,,,,,,,,,,,,,,,,,,,,,,,,,,,,,,,,10_MI,26,F,10,2021_Nov_01_1029,Partial repeat,2021.2.3,120.10176529272292,
8,5,0,1,1,2,3,3,3,1,1,0,1,1,0,0,0,72,72,72,0,0,0,0,,,,,,,387.56027011788797,None,0.9538730958961451,388.3262857571699,None,"[93. 87. 87. 87. 93. 87. 93. 87. 87. 93. 87. 87. 87. 87. 87. 87. 87. 93.
 93. 87. 93. 87. 93. 93. 87. 87. 87. 87. 87. 93. 87. 87. 93. 93.]",389.35873877421955,None,s,0,0.512209321596174,389.35873877421955,None,389.88328812339523,None,,,,,,,10_MI,26,F,10,2021_Nov_01_1029,Partial repeat,2021.2.3,120.10176529272292,
8,5,0,1,1,2,3,3,3,1,1,0,1,1,0,0,0,72,72,72,1,0,1,0,,,,,,,,,0.7737564057858308,390.4161660860682,None,"[87. 87. 87. 93. 87. 93. 93. 87. 93. 87. 93. 87. 87. 87. 87. 87. 93. 93.
 87. 93. 93. 87. 93. 93. 87. 93. 87. 87. 87. 87. 87. 87. 93. 93.]",391.2737711374368,None,l,1,1.2372124164830893,391.2737711374368,None,None,None,,,,,,,10_MI,26,F,10,2021_Nov_01_1029,Partial repeat,2021.2.3,120.10176529272292,
8,5,0,1,1,2,3,3,3,1,1,0,1,1,0,0,0,72,72,72,,,,,,,,,,,,,,,,,,,,,,,,,,,,,,,,10_MI,26,F,10,2021_Nov_01_1029,Partial repeat,2021.2.3,120.10176529272292,
3,2,0,1,1,2,2,2,3,0,1,1,0,0,0,0,0,73,73,73,0,0,0,0,,,,,,,392.53102455832936,None,0.7989084719529993,392.9639822504223,None,"[93. 87. 93. 87. 93. 93. 87. 93. 87. 87. 93. 87. 87. 87. 93. 87. 93. 87.
 87. 87. 93. 93. 93. 93. 93. 93. 93. 93. 87. 87. 93. 87. 93. 87.]",393.83824613235356,None,s,1,0.7047776801130112,393.83824613235356,None,None,None,,,,,,,10_MI,26,F,10,2021_Nov_01_1029,Partial repeat,2021.2.3,120.10176529272292,
3,2,0,1,1,2,2,2,3,0,1,1,0,0,0,0,0,73,73,73,1,0,1,0,,,,,,,,,0.9944793522035129,394.6042553573618,None,"[87. 93. 87. 93. 93. 93. 93. 87. 87. 93. 87. 87. 87. 93. 93. 87. 93. 87.
 87. 87. 87. 87. 93. 87. 87. 87. 93. 93. 87. 93. 87. 87. 93. 87.]",395.67833925477703,None,l,1,0.5117410796265176,395.67833925477703,None,None,None,,,,,,,10_MI,26,F,10,2021_Nov_01_1029,Partial repeat,2021.2.3,120.10176529272292,
3,2,0,1,1,2,2,2,3,0,1,1,0,0,0,0,0,73,73,73,,,,,,,,,,,,,,,,,,,,,,,,,,,,,,,,10_MI,26,F,10,2021_Nov_01_1029,Partial repeat,2021.2.3,120.10176529272292,
6,4,0,1,1,2,2,3,3,1,0,1,1,0,0,0,0,74,74,74,0,0,0,0,,,,,,,396.21120887889424,None,0.7916071965963273,396.6275263418181,None,"[93. 87. 87. 87. 93. 87. 93. 93. 93. 87. 87. 93. 93. 87. 87. 93. 87. 87.
 87. 93. 87. 93. 87. 87. 93. 87. 87. 93. 93. 93. 93. 93. 93. 87.]",397.4934548752649,None,l,1,0.5366451381300976,397.4934548752649,None,None,None,,,,,,,10_MI,26,F,10,2021_Nov_01_1029,Partial repeat,2021.2.3,120.10176529272292,
6,4,0,1,1,2,2,3,3,1,0,1,1,0,0,0,0,74,74,74,1,0,1,0,,,,,,,,,0.9033634287931178,398.0929412202386,None,"[93. 93. 87. 93. 87. 93. 87. 93. 93. 87. 93. 93. 93. 87. 87. 87. 93. 93.
 87. 93. 93. 87. 87. 87. 93. 87. 87. 87. 93. 87. 87. 93. 87. 87.]",399.0754379505627,None,s,1,0.6826904498414024,399.0754379505627,None,None,None,,,,,,,10_MI,26,F,10,2021_Nov_01_1029,Partial repeat,2021.2.3,120.10176529272292,
6,4,0,1,1,2,2,3,3,1,0,1,1,0,0,0,0,74,74,74,,,,,,,,,,,,,,,,,,,,,,,,,,,,,,,,10_MI,26,F,10,2021_Nov_01_1029,Partial repeat,2021.2.3,120.10176529272292,
3,1,0,1,1,2,3,3,3,1,0,0,1,0,0,0,0,75,75,75,0,0,0,0,,,,,,,399.7748503389623,None,0.7339562040952167,400.341020305666,None,"[87. 87. 93. 93. 87. 87. 93. 93. 93. 87. 93. 87. 93. 87. 93. 87. 93. 93.
 93. 93. 87. 87. 87. 93. 93. 87. 93. 93. 87. 93. 93. 87. 87. 87.]",401.15699126953245,None,l,1,0.5531371975800994,401.15699126953245,None,None,None,,,,,,,10_MI,26,F,10,2021_Nov_01_1029,Partial repeat,2021.2.3,120.10176529272292,
3,1,0,1,1,2,3,3,3,1,0,0,1,0,0,0,0,75,75,75,1,0,1,0,,,,,,,,,0.7180625001260589,401.76481713226826,None,"[87. 93. 93. 93. 87. 93. 87. 93. 93. 93. 93. 87. 87. 93. 87. 87. 87. 87.
 87. 87. 93. 93. 93. 87. 87. 93. 87. 87. 93. 87. 93. 87. 87. 93.]",402.5641231720124,None,s,1,0.6020235834766936,402.5641231720124,None,None,None,,,,,,,10_MI,26,F,10,2021_Nov_01_1029,Partial repeat,2021.2.3,120.10176529272292,
3,1,0,1,1,2,3,3,3,1,0,0,1,0,0,0,0,75,75,75,,,,,,,,,,,,,,,,,,,,,,,,,,,,,,,,10_MI,26,F,10,2021_Nov_01_1029,Partial repeat,2021.2.3,120.10176529272292,
5,5,0,1,1,2,2,3,3,0,1,1,1,0,0,0,0,76,76,76,0,0,0,0,,,,,,,403.1885870189217,None,0.8406316647135457,403.6631816849399,None,"[87. 87. 93. 93. 93. 93. 93. 93. 93. 93. 93. 93. 93. 93. 93. 87. 87. 93.
 93. 87. 87. 93. 93. 87. 87. 93. 93. 87. 93. 93. 93. 87. 87. 87.]",404.5790543179928,None,s,1,0.8431127142978312,404.5790543179928,None,None,None,,,,,,,10_MI,26,F,10,2021_Nov_01_1029,Partial repeat,2021.2.3,120.10176529272292,
5,5,0,1,1,2,2,3,3,0,1,1,1,0,0,0,0,76,76,76,1,0,1,0,,,,,,,,,0.7330452606037787,405.49494683529383,None,"[93. 93. 93. 87. 87. 87. 87. 93. 93. 87. 93. 93. 87. 87. 87. 93. 93. 87.
 93. 93. 93. 87. 93. 87. 87. 87. 87. 87. 87. 87. 87. 87. 87. 93.]",406.30259527922294,None,l,1,0.47959658913487146,406.30259527922294,None,None,None,,,,,,,10_MI,26,F,10,2021_Nov_01_1029,Partial repeat,2021.2.3,120.10176529272292,
5,5,0,1,1,2,2,3,3,0,1,1,1,0,0,0,0,76,76,76,,,,,,,,,,,,,,,,,,,,,,,,,,,,,,,,10_MI,26,F,10,2021_Nov_01_1029,Partial repeat,2021.2.3,120.10176529272292,
4,7,0,1,1,2,3,2,2,0,1,0,1,0,0,0,0,77,77,77,0,0,0,0,,,,,,,406.810487080691,None,0.8474179418810802,407.36001874250746,None,"[93. 93. 87. 87. 93. 93. 93. 93. 87. 87. 87. 93. 93. 87. 93. 87. 87. 93.
 93. 93. 87. 93. 87. 93. 87. 87. 87. 87. 93. 93. 87. 93. 93. 87.]",408.28423506260015,None,s,1,0.546031144622475,408.28423506260015,None,None,None,,,,,,,10_MI,26,F,10,2021_Nov_01_1029,Partial repeat,2021.2.3,120.10176529272292,
4,7,0,1,1,2,3,2,2,0,1,0,1,0,0,0,0,77,77,77,1,0,1,0,,,,,,,,,0.9565030785848452,408.90037382386276,None,"[93. 93. 93. 87. 93. 93. 93. 93. 87. 93. 93. 93. 93. 87. 93. 93. 93. 93.
 87. 93. 93. 87. 87. 93. 93. 93. 93. 87. 93. 93. 93. 87. 93. 87.]",409.9328152952203,None,l,1,0.5134479178195761,409.9328152952203,None,None,None,,,,,,,10_MI,26,F,10,2021_Nov_01_1029,Partial repeat,2021.2.3,120.10176529272292,
4,7,0,1,1,2,3,2,2,0,1,0,1,0,0,0,0,77,77,77,,,,,,,,,,,,,,,,,,,,,,,,,,,,,,,,10_MI,26,F,10,2021_Nov_01_1029,Partial repeat,2021.2.3,120.10176529272292,
2,3,0,1,1,2,3,2,2,1,1,0,1,1,0,0,0,78,78,78,0,0,0,0,,,,,,,410.4657041621581,None,0.7008932608139478,411.0318879195497,None,"[87. 87. 87. 93. 93. 93. 87. 87. 87. 87. 87. 87. 93. 93. 93. 93. 93. 93.
 93. 93. 93. 93. 87. 93. 87. 93. 93. 87. 87. 87. 93. 93. 87. 87.]",411.81455212655624,None,l,1,0.5041632568490968,411.81455212655624,None,None,None,,,,,,,10_MI,26,F,10,2021_Nov_01_1029,Partial repeat,2021.2.3,120.10176529272292,
2,3,0,1,1,2,3,2,2,1,1,0,1,1,0,0,0,78,78,78,1,0,1,0,,,,,,,,,0.9591497009117045,412.38072979038816,None,"[87. 87. 93. 87. 93. 87. 93. 87. 93. 93. 93. 87. 87. 87. 93. 93. 93. 93.
 93. 93. 87. 93. 87. 93. 87. 87. 93. 87. 93. 93. 87. 87. 93. 93.]",413.42149795096043,None,l,1,0.6082412595471851,413.42149795096043,None,None,None,,,,,,,10_MI,26,F,10,2021_Nov_01_1029,Partial repeat,2021.2.3,120.10176529272292,
2,3,0,1,1,2,3,2,2,1,1,0,1,1,0,0,0,78,78,78,,,,,,,,,,,,,,,,,,,,,,,,,,,,,,,,10_MI,26,F,10,2021_Nov_01_1029,Partial repeat,2021.2.3,120.10176529272292,
1,6,0,1,1,3,2,3,2,0,1,0,0,0,0,0,0,79,79,79,0,0,0,0,,,,,,,414.04597526784414,None,0.876022097072218,414.6787642003999,None,"[87. 87. 93. 87. 87. 93. 93. 93. 87. 93. 93. 87. 87. 93. 93. 93. 93. 87.
 93. 93. 93. 87. 87. 87. 87. 87. 93. 93. 87. 93. 87. 87. 93. 93.]",415.6362866359252,None,s,1,0.6330830995968881,415.6362866359252,None,None,None,,,,,,,10_MI,26,F,10,2021_Nov_01_1029,Partial repeat,2021.2.3,120.10176529272292,
1,6,0,1,1,3,2,3,2,0,1,0,0,0,0,0,0,79,79,79,1,0,1,0,,,,,,,,,0.795958435194389,416.3273607894175,None,"[93. 93. 93. 87. 93. 93. 93. 87. 87. 87. 87. 87. 87. 87. 93. 87. 93. 93.
 87. 93. 87. 93. 93. 87. 93. 87. 87. 87. 93. 87. 93. 93. 87. 93.]",417.2016160120795,None,l,1,0.5077703235826903,417.2016160120795,None,None,None,,,,,,,10_MI,26,F,10,2021_Nov_01_1029,Partial repeat,2021.2.3,120.10176529272292,
1,6,0,1,1,3,2,3,2,0,1,0,0,0,0,0,0,79,79,79,,,,,,,,,,,,,,,,,,,,,,,,,,,,,,,,10_MI,26,F,10,2021_Nov_01_1029,Partial repeat,2021.2.3,120.10176529272292,
6,8,0,1,1,3,2,3,3,0,0,0,1,1,0,0,0,80,80,80,0,0,0,0,,,,,,,417.73448948476084,None,0.7694064491549042,418.24239186978,None,"[93. 87. 87. 93. 93. 93. 87. 93. 93. 93. 87. 87. 93. 87. 93. 93. 93. 93.
 87. 87. 93. 87. 93. 93. 87. 93. 93. 87. 93. 93. 87. 87. 93. 93.]",419.09166862836537,None,s,1,0.8098338595279984,419.09166862836537,None,None,None,,,,,,,10_MI,26,F,10,2021_Nov_01_1029,Partial repeat,2021.2.3,120.10176529272292,
6,8,0,1,1,3,2,3,3,0,0,0,1,1,0,0,0,80,80,80,1,0,1,0,,,,,,,,,0.8376000182591167,419.9659177574674,None,"[93. 87. 87. 87. 87. 87. 87. 93. 87. 93. 93. 87. 93. 93. 93. 93. 87. 87.
 93. 93. 87. 87. 87. 93. 93. 93. 93. 87. 93. 87. 93. 87. 93. 87.]",420.8818070676316,None,s,1,0.4920479769591566,420.8818070676316,None,None,None,,,,,,,10_MI,26,F,10,2021_Nov_01_1029,Partial repeat,2021.2.3,120.10176529272292,
6,8,0,1,1,3,2,3,3,0,0,0,1,1,0,0,0,80,80,80,,,,,,,,,,,,,,,,,,,,,,,,,,,,,,,,10_MI,26,F,10,2021_Nov_01_1029,Partial repeat,2021.2.3,120.10176529272292,
1,4,0,1,1,2,2,3,2,0,0,1,0,1,0,0,0,81,81,81,0,0,0,0,,,,,,,421.40638207390157,None,0.9366336533431765,421.95587845721343,None,"[93. 87. 87. 93. 87. 93. 93. 87. 93. 87. 87. 93. 87. 87. 93. 93. 93. 87.
 87. 93. 93. 93. 93. 93. 93. 93. 87. 87. 87. 87. 93. 87. 87. 93.]",422.9716838686793,None,s,1,0.49781216388919347,422.9716838686793,None,None,None,,,,,,,10_MI,26,F,10,2021_Nov_01_1029,Partial repeat,2021.2.3,120.10176529272292,
1,4,0,1,1,2,2,3,2,0,0,1,0,1,0,0,0,81,81,81,1,0,1,0,,,,,,,,,0.8334795067831788,423.5295332397277,None,"[87. 93. 87. 87. 93. 93. 93. 87. 93. 87. 87. 87. 87. 87. 87. 87. 93. 87.
 93. 93. 93. 87. 93. 87. 93. 87. 87. 93. 87. 87. 93. 93. 87. 93.]",424.43710067138204,None,s,1,0.600407186540906,424.43710067138204,None,None,None,,,,,,,10_MI,26,F,10,2021_Nov_01_1029,Partial repeat,2021.2.3,120.10176529272292,
1,4,0,1,1,2,2,3,2,0,0,1,0,1,0,0,0,81,81,81,,,,,,,,,,,,,,,,,,,,,,,,,,,,,,,,10_MI,26,F,10,2021_Nov_01_1029,Partial repeat,2021.2.3,120.10176529272292,
2,4,0,1,1,2,2,2,3,1,0,1,0,0,0,0,0,82,82,82,0,0,0,0,,,,,,,425.06989152822007,None,0.7483012309619402,425.7443087754318,None,"[93. 93. 87. 87. 87. 93. 87. 93. 87. 93. 93. 87. 87. 93. 93. 93. 87. 87.
 93. 87. 93. 87. 87. 93. 87. 93. 87. 87. 93. 93. 93. 93. 93. 93.]",426.5686054663722,None,l,1,0.5345386906947169,426.5686054663722,None,None,None,,,,,,,10_MI,26,F,10,2021_Nov_01_1029,Partial repeat,2021.2.3,120.10176529272292,
2,4,0,1,1,2,2,2,3,1,0,1,0,0,0,0,0,82,82,82,1,0,1,0,,,,,,,,,0.9838667437730149,427.15976800855424,None,"[87. 87. 93. 87. 93. 93. 93. 93. 93. 93. 87. 87. 93. 93. 87. 87. 93. 93.
 93. 93. 93. 87. 87. 87. 87. 87. 87. 93. 93. 87. 87. 93. 93. 87.]",428.2338522266832,None,s,1,0.41879857653361796,428.2338522266832,None,None,None,,,,,,,10_MI,26,F,10,2021_Nov_01_1029,Partial repeat,2021.2.3,120.10176529272292,
2,4,0,1,1,2,2,2,3,1,0,1,0,0,0,0,0,82,82,82,,,,,,,,,,,,,,,,,,,,,,,,,,,,,,,,10_MI,26,F,10,2021_Nov_01_1029,Partial repeat,2021.2.3,120.10176529272292,
7,6,0,1,1,3,2,2,3,1,1,0,0,1,0,0,0,83,83,83,0,0,0,0,,,,,,,428.6751443051194,None,0.8692186593585701,429.17471005879975,None,"[87. 93. 87. 87. 87. 87. 93. 87. 87. 87. 93. 93. 87. 87. 93. 93. 87. 93.
 87. 87. 87. 93. 93. 87. 93. 87. 87. 87. 87. 93. 87. 93. 87. 87.]",430.13221838292316,None,l,1,0.5363863221919019,430.13221838292316,None,None,None,,,,,,,10_MI,26,F,10,2021_Nov_01_1029,Partial repeat,2021.2.3,120.10176529272292,
7,6,0,1,1,3,2,2,3,1,1,0,0,1,0,0,0,83,83,83,1,0,1,0,,,,,,,,,0.7891217549427515,430.74004552851375,None,"[87. 93. 87. 87. 93. 93. 93. 87. 93. 93. 93. 93. 93. 93. 93. 93. 93. 93.
 87. 87. 93. 87. 93. 93. 87. 87. 87. 93. 87. 87. 87. 87. 87. 93.]",431.6059730998197,None,l,1,0.630651769205997,431.6059730998197,None,None,None,,,,,,,10_MI,26,F,10,2021_Nov_01_1029,Partial repeat,2021.2.3,120.10176529272292,
7,6,0,1,1,3,2,2,3,1,1,0,0,1,0,0,0,83,83,83,,,,,,,,,,,,,,,,,,,,,,,,,,,,,,,,10_MI,26,F,10,2021_Nov_01_1029,Partial repeat,2021.2.3,120.10176529272292,
5,2,0,1,1,3,3,2,3,1,0,1,0,0,0,0,0,84,84,84,0,0,0,0,,,,,,,432.2554131658096,None,0.7035840455156527,432.7466560788391,None,"[93. 87. 93. 87. 93. 87. 87. 93. 93. 87. 93. 93. 87. 93. 93. 87. 93. 93.
 87. 93. 87. 93. 93. 87. 93. 87. 93. 93. 87. 87. 93. 87. 87. 93.]",433.5293449807989,None,l,1,0.48354200879816744,433.5293449807989,None,None,None,,,,,,,10_MI,26,F,10,2021_Nov_01_1029,Partial repeat,2021.2.3,120.10176529272292,
5,2,0,1,1,3,3,2,3,1,0,1,0,0,0,0,0,84,84,84,1,0,1,0,,,,,,,,,0.8438883802664983,434.0871965968431,None,"[93. 93. 93. 93. 87. 93. 87. 93. 87. 87. 93. 93. 93. 93. 87. 87. 87. 93.
 93. 87. 87. 87. 93. 93. 93. 87. 87. 87. 87. 87. 93. 87. 93. 87.]",435.0113975226793,None,s,1,0.9373015107428273,435.0113975226793,None,None,None,,,,,,,10_MI,26,F,10,2021_Nov_01_1029,Partial repeat,2021.2.3,120.10176529272292,
5,2,0,1,1,3,3,2,3,1,0,1,0,0,0,0,0,84,84,84,,,,,,,,,,,,,,,,,,,,,,,,,,,,,,,,10_MI,26,F,10,2021_Nov_01_1029,Partial repeat,2021.2.3,120.10176529272292,
5,4,0,1,1,2,3,2,2,1,0,0,1,0,0,0,0,85,85,85,0,0,0,0,,,,,,,435.968907771085,None,0.7495585701404085,436.4601484391187,None,"[93. 87. 93. 87. 93. 93. 93. 87. 87. 93. 93. 93. 87. 93. 93. 87. 93. 87.
 93. 87. 87. 87. 87. 93. 87. 87. 87. 87. 93. 93. 93. 93. 93. 93.]",437.284449299337,None,l,1,0.5838362315262202,437.284449299337,None,None,None,,,,,,,10_MI,26,F,10,2021_Nov_01_1029,Partial repeat,2021.2.3,120.10176529272292,
5,4,0,1,1,2,3,2,2,1,0,0,1,0,0,0,0,85,85,85,1,0,1,0,,,,,,,,,0.9560175543991767,437.9338928931775,None,"[93. 93. 87. 93. 87. 93. 87. 93. 87. 93. 93. 87. 87. 87. 93. 87. 87. 93.
 93. 87. 93. 93. 93. 93. 93. 93. 93. 87. 93. 93. 87. 93. 93. 87.]",438.9663516830735,None,s,1,0.646399452210062,438.9663516830735,None,None,None,,,,,,,10_MI,26,F,10,2021_Nov_01_1029,Partial repeat,2021.2.3,120.10176529272292,
5,4,0,1,1,2,3,2,2,1,0,0,1,0,0,0,0,85,85,85,,,,,,,,,,,,,,,,,,,,,,,,,,,,,,,,10_MI,26,F,10,2021_Nov_01_1029,Partial repeat,2021.2.3,120.10176529272292,
1,1,0,1,1,2,3,2,3,0,0,0,0,1,0,0,0,86,86,86,0,0,0,0,,,,,,,439.63244288249757,None,0.9974087609585834,440.10703626566146,None,"[93. 93. 87. 93. 93. 87. 93. 87. 93. 87. 87. 87. 87. 87. 87. 87. 93. 87.
 87. 93. 93. 87. 93. 87. 93. 93. 93. 93. 87. 87. 87. 87. 87. 87.]",441.1811268980639,None,s,1,0.5916459302927706,441.1811268980639,None,None,None,,,,,,,10_MI,26,F,10,2021_Nov_01_1029,Partial repeat,2021.2.3,120.10176529272292,
1,1,0,1,1,2,3,2,3,0,0,0,0,1,0,0,0,86,86,86,1,0,1,0,,,,,,,,,0.8643822457903912,441.8388894839911,None,"[87. 93. 87. 87. 87. 93. 93. 93. 87. 93. 93. 93. 87. 87. 87. 87. 93. 93.
 87. 93. 93. 93. 93. 93. 93. 87. 93. 93. 93. 87. 93. 93. 87. 87.]",442.77976110679583,None,s,1,0.513025858619585,442.77976110679583,None,None,None,,,,,,,10_MI,26,F,10,2021_Nov_01_1029,Partial repeat,2021.2.3,120.10176529272292,
1,1,0,1,1,2,3,2,3,0,0,0,0,1,0,0,0,86,86,86,,,,,,,,,,,,,,,,,,,,,,,,,,,,,,,,10_MI,26,F,10,2021_Nov_01_1029,Partial repeat,2021.2.3,120.10176529272292,
6,7,0,1,1,2,2,3,2,1,0,1,0,0,0,0,0,87,87,87,0,0,0,0,,,,,,,443.31263522090444,None,0.7297598937912648,443.8455186357098,None,"[93. 93. 93. 87. 93. 93. 93. 87. 87. 93. 93. 87. 93. 93. 93. 93. 87. 87.
 93. 87. 93. 93. 87. 87. 93. 93. 87. 93. 87. 87. 93. 87. 87. 93.]",444.653154251092,None,l,1,0.5586194771872215,444.653154251092,None,None,None,,,,,,,10_MI,26,F,10,2021_Nov_01_1029,Partial repeat,2021.2.3,120.10176529272292,
6,7,0,1,1,2,2,3,2,1,0,1,0,0,0,0,0,87,87,87,1,0,1,0,,,,,,,,,0.7422270885261607,445.27761777728756,None,"[87. 87. 93. 87. 87. 93. 87. 87. 87. 87. 93. 93. 93. 93. 93. 93. 87. 87.
 93. 87. 93. 93. 93. 93. 93. 93. 93. 93. 93. 93. 87. 87. 93. 87.]",446.1102459681481,None,s,1,0.6056758708389225,446.1102459681481,None,None,None,,,,,,,10_MI,26,F,10,2021_Nov_01_1029,Partial repeat,2021.2.3,120.10176529272292,
6,7,0,1,1,2,2,3,2,1,0,1,0,0,0,0,0,87,87,87,,,,,,,,,,,,,,,,,,,,,,,,,,,,,,,,10_MI,26,F,10,2021_Nov_01_1029,Partial repeat,2021.2.3,120.10176529272292,
7,1,0,1,1,3,3,3,2,1,1,1,0,1,0,0,0,88,88,88,0,0,0,0,,,,,,,446.7263847294107,None,0.9180411352752539,447.2342845487208,None,"[87. 87. 87. 93. 87. 87. 93. 93. 87. 87. 87. 93. 87. 93. 87. 93. 93. 87.
 87. 87. 93. 93. 87. 93. 93. 87. 87. 87. 93. 93. 87. 93. 87. 93.]",448.2334269603464,None,l,1,0.5784543353001936,448.2334269603464,None,None,None,,,,,,,10_MI,26,F,10,2021_Nov_01_1029,Partial repeat,2021.2.3,120.10176529272292,
7,1,0,1,1,3,3,3,2,1,1,1,0,1,0,0,0,88,88,88,1,0,1,0,,,,,,,,,0.8783319122208026,448.8828776098878,None,"[93. 93. 87. 93. 87. 87. 93. 87. 87. 93. 87. 87. 93. 93. 87. 93. 87. 87.
 93. 87. 87. 87. 93. 87. 87. 93. 87. 87. 87. 93. 93. 93. 93. 87.]",449.84038689615227,None,l,1,0.6195165903152429,449.84038689615227,None,None,None,,,,,,,10_MI,26,F,10,2021_Nov_01_1029,Partial repeat,2021.2.3,120.10176529272292,
7,1,0,1,1,3,3,3,2,1,1,1,0,1,0,0,0,88,88,88,,,,,,,,,,,,,,,,,,,,,,,,,,,,,,,,10_MI,26,F,10,2021_Nov_01_1029,Partial repeat,2021.2.3,120.10176529272292,
3,3,0,1,1,2,3,3,2,1,1,0,0,1,0,0,0,89,89,89,0,0,0,0,,,,,,,450.4815092529104,None,0.9039576873716926,451.02271486693917,None,"[87. 93. 87. 93. 93. 93. 87. 87. 93. 87. 87. 87. 93. 87. 87. 93. 93. 87.
 87. 93. 93. 93. 93. 93. 87. 87. 93. 87. 93. 87. 93. 87. 87. 93.]",452.0052042208488,None,l,1,0.5187303928055371,452.0052042208488,None,None,None,,,,,,,10_MI,26,F,10,2021_Nov_01_1029,Partial repeat,2021.2.3,120.10176529272292,
3,3,0,1,1,2,3,3,2,1,1,0,0,1,0,0,0,89,89,89,1,0,1,0,,,,,,,,,0.7077642519723617,452.5963500859193,None,"[93. 87. 93. 87. 93. 87. 87. 87. 87. 87. 93. 87. 93. 87. 93. 93. 87. 87.
 93. 87. 93. 93. 93. 93. 87. 93. 93. 93. 87. 87. 87. 87. 93. 93.]",453.379036101456,None,l,1,0.48894667569561534,453.379036101456,None,None,None,,,,,,,10_MI,26,F,10,2021_Nov_01_1029,Partial repeat,2021.2.3,120.10176529272292,
3,3,0,1,1,2,3,3,2,1,1,0,0,1,0,0,0,89,89,89,,,,,,,,,,,,,,,,,,,,,,,,,,,,,,,,10_MI,26,F,10,2021_Nov_01_1029,Partial repeat,2021.2.3,120.10176529272292,
8,7,0,1,1,3,2,2,3,0,1,0,0,0,0,0,0,90,90,90,0,0,0,0,,,,,,,453.8952571578484,None,0.8391500075415496,454.4697692080233,None,"[93. 93. 93. 87. 93. 93. 93. 87. 87. 93. 93. 87. 93. 93. 93. 93. 87. 87.
 93. 93. 87. 87. 93. 93. 93. 87. 93. 93. 93. 87. 93. 87. 87. 93.]",455.38565755604645,None,s,1,0.7063424421467062,455.38565755604645,None,None,None,,,,,,,10_MI,26,F,10,2021_Nov_01_1029,Partial repeat,2021.2.3,120.10176529272292,
8,7,0,1,1,3,2,2,3,0,1,0,0,0,0,0,0,90,90,90,1,0,1,0,,,,,,,,,0.7065813079295336,456.15998352814563,None,"[87. 93. 93. 87. 93. 93. 93. 93. 93. 87. 93. 87. 87. 87. 87. 87. 93. 87.
 93. 87. 93. 93. 87. 93. 87. 93. 93. 93. 87. 87. 93. 93. 93. 93.]",456.942658960131,None,l,1,0.6533640704358277,456.942658960131,None,None,None,,,,,,,10_MI,26,F,10,2021_Nov_01_1029,Partial repeat,2021.2.3,120.10176529272292,
8,7,0,1,1,3,2,2,3,0,1,0,0,0,0,0,0,90,90,90,,,,,,,,,,,,,,,,,,,,,,,,,,,,,,,,10_MI,26,F,10,2021_Nov_01_1029,Partial repeat,2021.2.3,120.10176529272292,
8,3,0,1,1,2,3,3,3,0,1,0,1,0,0,0,0,91,91,91,0,0,0,0,,,,,,,457.61707684877024,None,0.9757992545872661,458.17492269196805,None,"[87. 87. 93. 87. 87. 93. 93. 93. 93. 93. 93. 93. 87. 93. 93. 87. 87. 93.
 93. 93. 87. 87. 93. 93. 87. 93. 93. 87. 93. 87. 87. 87. 87. 93.]",459.2323528902398,None,s,1,0.49078661006478796,459.2323528902398,None,None,None,,,,,,,10_MI,26,F,10,2021_Nov_01_1029,Partial repeat,2021.2.3,120.10176529272292,
8,3,0,1,1,2,3,3,3,0,1,0,1,0,0,0,0,91,91,91,1,0,1,0,,,,,,,,,0.9549413937721754,459.7818932113255,None,"[93. 87. 93. 93. 93. 93. 87. 93. 93. 93. 87. 87. 87. 93. 93. 93. 87. 93.
 87. 93. 87. 87. 87. 87. 87. 87. 93. 93. 93. 87. 93. 93. 93. 93.]",460.8143478319437,None,l,1,0.4607488877218202,460.8143478319437,None,None,None,,,,,,,10_MI,26,F,10,2021_Nov_01_1029,Partial repeat,2021.2.3,120.10176529272292,
8,3,0,1,1,2,3,3,3,0,1,0,1,0,0,0,0,91,91,91,,,,,,,,,,,,,,,,,,,,,,,,,,,,,,,,10_MI,26,F,10,2021_Nov_01_1029,Partial repeat,2021.2.3,120.10176529272292,
3,8,0,1,1,2,2,2,2,0,0,1,1,1,0,0,0,92,92,92,0,0,0,0,,,,,,,461.2889380079705,None,0.9943474779398145,461.8134902435693,None,"[93. 93. 87. 93. 87. 87. 87. 87. 87. 93. 93. 87. 93. 87. 87. 87. 93. 93.
 87. 87. 87. 87. 93. 87. 87. 87. 87. 93. 87. 93. 93. 87. 87. 93.]",462.88757606526656,None,s,1,0.5155476302677471,462.88757606526656,None,None,None,,,,,,,10_MI,26,F,10,2021_Nov_01_1029,Partial repeat,2021.2.3,120.10176529272292,
3,8,0,1,1,2,2,2,2,0,0,1,1,1,0,0,0,92,92,92,1,0,1,0,,,,,,,,,0.7025954222897541,463.47040133468204,None,"[93. 93. 93. 93. 93. 87. 93. 87. 87. 87. 93. 87. 93. 87. 87. 87. 87. 87.
 93. 87. 87. 93. 87. 93. 93. 87. 87. 93. 93. 87. 93. 87. 87. 87.]",464.25307869094945,None,s,1,0.4940524374451343,464.25307869094945,None,None,None,,,,,,,10_MI,26,F,10,2021_Nov_01_1029,Partial repeat,2021.2.3,120.10176529272292,
3,8,0,1,1,2,2,2,2,0,0,1,1,1,0,0,0,92,92,92,,,,,,,,,,,,,,,,,,,,,,,,,,,,,,,,10_MI,26,F,10,2021_Nov_01_1029,Partial repeat,2021.2.3,120.10176529272292,
5,6,0,1,1,3,3,3,2,0,0,1,0,1,0,0,0,93,93,93,0,0,0,0,,,,,,,464.77762451227477,None,0.7449485222669527,465.3105037578023,None,"[93. 87. 93. 93. 87. 87. 93. 93. 93. 87. 87. 87. 87. 87. 93. 87. 87. 93.
 87. 93. 93. 87. 87. 93. 93. 93. 87. 87. 93. 87. 87. 87. 93. 93.]",466.13480109016996,None,s,1,0.5483633744870531,466.13480109016996,None,None,None,,,,,,,10_MI,26,F,10,2021_Nov_01_1029,Partial repeat,2021.2.3,120.10176529272292,
5,6,0,1,1,3,3,3,2,0,0,1,0,1,0,0,0,93,93,93,1,0,1,0,,,,,,,,,0.9773977476564645,466.7343262414988,None,"[87. 87. 87. 93. 93. 87. 93. 93. 93. 87. 93. 87. 87. 93. 87. 87. 87. 93.
 93. 87. 87. 87. 87. 87. 93. 93. 93. 87. 93. 87. 87. 87. 93. 93.]",467.7917185955564,None,s,1,0.4429739735608109,467.7917185955564,None,None,None,,,,,,,10_MI,26,F,10,2021_Nov_01_1029,Partial repeat,2021.2.3,120.10176529272292,
5,6,0,1,1,3,3,3,2,0,0,1,0,1,0,0,0,93,93,93,,,,,,,,,,,,,,,,,,,,,,,,,,,,,,,,10_MI,26,F,10,2021_Nov_01_1029,Partial repeat,2021.2.3,120.10176529272292,
7,5,0,1,1,2,2,2,3,1,1,1,0,1,0,0,0,94,94,94,0,0,0,0,,,,,,,468.2496579588628,None,0.9971946222111915,468.7492102425688,None,"[87. 87. 93. 93. 87. 93. 93. 93. 93. 93. 93. 93. 93. 87. 93. 93. 87. 93.
 93. 87. 93. 93. 93. 93. 93. 93. 93. 87. 87. 87. 93. 87. 87. 93.]",469.8233223627876,None,l,1,0.5559171437384975,469.8233223627876,None,None,None,,,,,,,10_MI,26,F,10,2021_Nov_01_1029,Partial repeat,2021.2.3,120.10176529272292,
7,5,0,1,1,2,2,2,3,1,1,1,0,1,0,0,0,94,94,94,1,0,1,0,,,,,,,,,0.9875780810649121,470.44778653041044,None,"[87. 93. 87. 93. 93. 87. 87. 93. 93. 93. 87. 87. 93. 87. 93. 93. 87. 93.
 87. 93. 93. 87. 93. 87. 87. 93. 93. 93. 93. 87. 93. 87. 93. 87.]",471.51353892790553,None,l,1,0.4817094508439368,471.51353892790553,None,None,None,,,,,,,10_MI,26,F,10,2021_Nov_01_1029,Partial repeat,2021.2.3,120.10176529272292,
7,5,0,1,1,2,2,2,3,1,1,1,0,1,0,0,0,94,94,94,,,,,,,,,,,,,,,,,,,,,,,,,,,,,,,,10_MI,26,F,10,2021_Nov_01_1029,Partial repeat,2021.2.3,120.10176529272292,
6,5,0,1,1,3,2,3,3,1,1,0,1,1,0,0,0,95,95,95,0,0,0,0,,,,,,,472.0214323329419,None,0.9206252551264877,472.49602988538345,None,"[93. 87. 87. 87. 93. 93. 93. 93. 87. 87. 87. 87. 87. 93. 87. 93. 87. 93.
 87. 93. 93. 87. 93. 87. 93. 93. 87. 87. 87. 87. 93. 87. 87. 87.]",473.49518384270164,None,l,1,0.4681012487840235,473.49518384270164,None,None,None,,,,,,,10_MI,26,F,10,2021_Nov_01_1029,Partial repeat,2021.2.3,120.10176529272292,
6,5,0,1,1,3,2,3,3,1,1,0,1,1,0,0,0,95,95,95,1,0,1,0,,,,,,,,,0.9078707090566258,474.02805122182303,None,"[93. 87. 93. 87. 93. 87. 87. 87. 87. 93. 87. 87. 87. 93. 87. 87. 93. 93.
 93. 93. 93. 87. 87. 93. 93. 87. 87. 87. 87. 87. 87. 87. 93. 93.]",475.0105492350017,None,l,1,0.5517411309408544,475.0105492350017,None,None,None,,,,,,,10_MI,26,F,10,2021_Nov_01_1029,Partial repeat,2021.2.3,120.10176529272292,
6,5,0,1,1,3,2,3,3,1,1,0,1,1,0,0,0,95,95,95,,,,,,,,,,,,,,,,,,,,,,,,,,,,,,,,10_MI,26,F,10,2021_Nov_01_1029,Partial repeat,2021.2.3,120.10176529272292,
8,6,0,1,1,2,2,2,3,0,0,1,0,1,0,0,0,96,96,96,0,0,0,0,,,,,,,475.5850497394845,None,0.8621753837947373,476.4842946512015,None,"[93. 87. 87. 87. 93. 87. 93. 87. 93. 87. 93. 87. 87. 93. 87. 93. 93. 93.
 93. 87. 87. 93. 93. 87. 93. 87. 93. 93. 93. 87. 87. 87. 87. 93.]",477.43347949324675,None,s,1,0.5139613804176406,477.43347949324675,None,None,None,,,,,,,10_MI,26,F,10,2021_Nov_01_1029,Partial repeat,2021.2.3,120.10176529272292,
8,6,0,1,1,2,2,2,3,0,0,1,0,1,0,0,0,96,96,96,1,0,1,0,,,,,,,,,0.7250598684095408,477.99966068492904,None,"[93. 87. 93. 93. 93. 93. 93. 87. 87. 93. 93. 93. 93. 87. 93. 87. 93. 87.
 87. 87. 93. 93. 87. 87. 87. 93. 87. 87. 93. 93. 93. 87. 87. 87.]",478.7989785910793,None,s,1,0.6513996991595832,478.7989785910793,None,None,None,,,,,,,10_MI,26,F,10,2021_Nov_01_1029,Partial repeat,2021.2.3,120.10176529272292,
8,6,0,1,1,2,2,2,3,0,0,1,0,1,0,0,0,96,96,96,,,,,,,,,,,,,,,,,,,,,,,,,,,,,,,,10_MI,26,F,10,2021_Nov_01_1029,Partial repeat,2021.2.3,120.10176529272292,
2,1,0,1,1,3,3,2,3,0,0,1,0,1,0,0,0,97,97,97,0,0,0,0,,,,,,,479.4650758840635,None,0.9436582963475082,480.11452396789537,None,"[93. 93. 93. 87. 87. 93. 87. 93. 87. 87. 87. 93. 93. 87. 87. 93. 93. 93.
 87. 87. 93. 87. 87. 87. 93. 87. 87. 87. 93. 87. 93. 93. 93. 87.]",481.13864805073445,None,s,1,0.6477544674985438,481.13864805073445,None,None,None,,,,,,,10_MI,26,F,10,2021_Nov_01_1029,Partial repeat,2021.2.3,120.10176529272292,
2,1,0,1,1,3,3,2,3,0,0,1,0,1,0,0,0,97,97,97,1,0,1,0,,,,,,,,,0.71291737548804,481.8463710926651,None,"[87. 93. 87. 87. 87. 93. 93. 93. 87. 93. 93. 93. 87. 93. 87. 93. 93. 87.
 93. 93. 87. 93. 93. 93. 87. 93. 93. 93. 87. 87. 87. 93. 87. 93.]",482.637366799592,None,s,1,0.6530600338692238,482.637366799592,None,None,None,,,,,,,10_MI,26,F,10,2021_Nov_01_1029,Partial repeat,2021.2.3,120.10176529272292,
2,1,0,1,1,3,3,2,3,0,0,1,0,1,0,0,0,97,97,97,,,,,,,,,,,,,,,,,,,,,,,,,,,,,,,,10_MI,26,F,10,2021_Nov_01_1029,Partial repeat,2021.2.3,120.10176529272292,
2,8,0,1,1,3,2,3,2,0,0,0,0,1,0,0,0,98,98,98,0,0,0,0,,,,,,,483.3117875746543,None,0.7463900759388646,483.7947021949003,None,"[93. 87. 87. 87. 93. 87. 93. 93. 93. 93. 93. 93. 87. 87. 87. 93. 87. 87.
 87. 93. 87. 87. 93. 87. 87. 87. 87. 87. 93. 87. 93. 87. 93. 87.]",484.61900658296895,None,s,1,0.49546614333644357,484.61900658296895,None,None,None,,,,,,,10_MI,26,F,10,2021_Nov_01_1029,Partial repeat,2021.2.3,120.10176529272292,
2,8,0,1,1,3,2,3,2,0,0,0,0,1,0,0,0,98,98,98,1,0,1,0,,,,,,,,,0.8374231696611156,485.17686076472273,None,"[93. 87. 93. 87. 87. 87. 93. 87. 87. 87. 87. 87. 87. 87. 87. 87. 87. 93.
 93. 93. 93. 93. 87. 93. 93. 93. 93. 87. 93. 87. 93. 93. 87. 93.]",486.09274686775007,None,s,1,0.42914383763604746,486.09274686775007,None,None,None,,,,,,,10_MI,26,F,10,2021_Nov_01_1029,Partial repeat,2021.2.3,120.10176529272292,
2,8,0,1,1,3,2,3,2,0,0,0,0,1,0,0,0,98,98,98,,,,,,,,,,,,,,,,,,,,,,,,,,,,,,,,10_MI,26,F,10,2021_Nov_01_1029,Partial repeat,2021.2.3,120.10176529272292,
8,8,0,1,1,3,3,3,3,0,0,1,1,1,0,0,0,99,99,99,0,0,0,0,,,,,,,486.5506836653469,None,0.721441987233512,487.1668089566351,None,"[93. 87. 87. 93. 93. 93. 87. 93. 87. 93. 93. 87. 87. 93. 93. 87. 87. 93.
 93. 87. 87. 87. 93. 93. 87. 93. 87. 87. 93. 93. 87. 93. 87. 87.]",487.96615187845214,None,s,1,0.5091442609782462,487.96615187845214,None,None,None,,,,,,,10_MI,26,F,10,2021_Nov_01_1029,Partial repeat,2021.2.3,120.10176529272292,
8,8,0,1,1,3,3,3,3,0,0,1,1,1,0,0,0,99,99,99,1,0,1,0,,,,,,,,,0.7778398929263661,488.54897746858137,None,"[87. 87. 93. 93. 87. 93. 87. 93. 93. 93. 87. 93. 87. 93. 93. 93. 87. 87.
 87. 93. 93. 87. 93. 87. 87. 87. 93. 87. 93. 87. 87. 93. 93. 87.]",489.4065809163817,None,s,1,0.9229954357201677,489.4065809163817,None,None,None,,,,,,,10_MI,26,F,10,2021_Nov_01_1029,Partial repeat,2021.2.3,120.10176529272292,
8,8,0,1,1,3,3,3,3,0,0,1,1,1,0,0,0,99,99,99,,,,,,,,,,,,,,,,,,,,,,,,,,,,,,,,10_MI,26,F,10,2021_Nov_01_1029,Partial repeat,2021.2.3,120.10176529272292,
7,7,0,1,1,3,2,3,3,1,0,0,1,0,0,0,0,100,100,100,0,0,0,0,,,,,,,490.3391085314329,None,0.9944881834909048,492.5289116966203,None,"[87. 87. 87. 93. 87. 93. 93. 87. 93. 93. 93. 93. 87. 87. 93. 93. 87. 93.
 87. 93. 93. 87. 87. 87. 87. 87. 87. 93. 87. 93. 93. 87. 93. 93.]",493.6113347910841,None,l,1,0.9582838823948805,493.6113347910841,None,None,None,,,,,,,10_MI,26,F,10,2021_Nov_01_1029,Partial repeat,2021.2.3,120.10176529272292,
7,7,0,1,1,3,2,3,3,1,0,0,1,0,0,0,0,100,100,100,1,0,1,0,,,,,,,,,0.9796155824590866,494.63543866896134,None,"[93. 93. 87. 87. 93. 87. 93. 93. 93. 93. 93. 87. 87. 93. 93. 87. 87. 93.
 87. 87. 93. 93. 93. 87. 87. 87. 87. 93. 93. 93. 87. 87. 93. 93.]",495.6928736779382,None,s,1,0.8927697751623782,495.6928736779382,None,None,None,,,,,,,10_MI,26,F,10,2021_Nov_01_1029,Partial repeat,2021.2.3,120.10176529272292,
7,7,0,1,1,3,2,3,3,1,0,0,1,0,0,0,0,100,100,100,,,,,,,,,,,,,,,,,,,,,,,,,,,,,,,,10_MI,26,F,10,2021_Nov_01_1029,Partial repeat,2021.2.3,120.10176529272292,
7,2,0,1,1,2,3,3,3,0,0,0,1,1,0,0,0,101,101,101,0,0,0,0,,,,,,,496.6004237910538,None,0.7506721598351875,497.1499612257164,None,"[87. 87. 93. 87. 93. 87. 87. 87. 93. 87. 87. 87. 93. 93. 93. 87. 93. 87.
