prime_tar_pos,probe_tar_pos,dimension,tar_color,tar_shape,prime_dist_color,probe_dist_color,prime_dist_shape,probe_dist_shape,prime_tar_ori,probe_tar_ori,col_rep,shape_rep,resp_rep,pos_fixed,sparse,MainLoop.thisRepN,MainLoop.thisTrialN,MainLoop.thisN,MainLoop.thisIndex,PrimeProbe.thisRepN,PrimeProbe.thisTrialN,PrimeProbe.thisN,PrimeProbe.thisIndex,Instruction.started,Instruction.stopped,instruction_key.keys,instruction_key.rt,instruction_key.started,instruction_key.stopped,PairStartText.started,PairStartText.stopped,fixdur,FixCross.started,FixCross.stopped,dist_ori,SearchFixCross.started,SearchFixCross.stopped,key_resp.keys,key_resp.corr,key_resp.rt,key_resp.started,key_resp.stopped,feedback_text.started,feedback_text.stopped,participant,age,gender,group,date,expName,psychopyVersion,frameRate,
,,,,,,,,,,,,,,,,,,,,,,,,21.424956012878283,None,space,19.190643513949,21.424956012878283,None,,,,,,,,,,,,,,,,11_YA,25,F,11,2021_Nov_12_1341,Partial repeat,2021.2.3,120.12567518716294,
1,8,0,1,1,3,3,3,3,1,0,1,1,0,0,0,0,0,0,0,0,0,0,0,,,,,,,73.84049785147909,None,0.8628030810419864,82.34123551375615,None,"[87. 87. 93. 93. 87. 93. 87. 93. 87. 93. 87. 93. 93. 93. 93. 93. 87. 93.
 93. 87. 93. 93. 87. 87. 93. 93. 87. 93. 87. 93. 87. 87. 93. 93.]",83.29045901195605,None,l,1,0.8440698910844731,83.29045901195605,None,None,None,11_YA,25,F,11,2021_Nov_12_1341,Partial repeat,2021.2.3,120.12567518716294,
1,8,0,1,1,3,3,3,3,1,0,1,1,0,0,0,0,0,0,0,1,0,1,0,,,,,,,,,0.9953382155901864,84.19803409795804,None,"[93. 93. 93. 93. 87. 87. 93. 87. 87. 87. 93. 87. 93. 87. 87. 93. 87. 93.
 87. 93. 87. 87. 87. 87. 93. 87. 87. 87. 93. 87. 93. 87. 87. 93.]",85.27215119639277,None,s,1,0.6544733666933098,85.27215119639277,None,None,None,11_YA,25,F,11,2021_Nov_12_1341,Partial repeat,2021.2.3,120.12567518716294,
1,8,0,1,1,3,3,3,3,1,0,1,1,0,0,0,0,0,0,0,,,,,,,,,,,,,,,,,,,,,,,,,,11_YA,25,F,11,2021_Nov_12_1341,Partial repeat,2021.2.3,120.12567518716294,
3,4,0,1,1,3,2,2,2,0,0,0,1,1,0,0,0,1,1,1,0,0,0,0,,,,,,,85.94659325109569,None,0.7759921362899497,87.13727061108602,None,"[93. 87. 93. 87. 87. 93. 93. 93. 93. 93. 87. 87. 93. 93. 93. 87. 87. 93.
 93. 93. 93. 87. 93. 93. 87. 93. 87. 93. 93. 93. 87. 87. 87. 87.]",88.00322967788543,None,s,1,0.8513002642976062,88.00322967788543,None,None,None,11_YA,25,F,11,2021_Nov_12_1341,Partial repeat,2021.2.3,120.12567518716294,
3,4,0,1,1,3,2,2,2,0,0,0,1,1,0,0,0,1,1,1,1,0,1,0,,,,,,,,,0.9112885083681839,88.91913297100291,None,"[93. 87. 93. 93. 87. 87. 93. 87. 93. 87. 93. 87. 87. 93. 93. 93. 93. 87.
 87. 87. 93. 87. 87. 93. 87. 93. 93. 93. 93. 87. 93. 93. 93. 93.]",89.91831448659741,None,s,1,0.7275513234835671,89.91831448659741,None,None,None,11_YA,25,F,11,2021_Nov_12_1341,Partial repeat,2021.2.3,120.12567518716294,
3,4,0,1,1,3,2,2,2,0,0,0,1,1,0,0,0,1,1,1,,,,,,,,,,,,,,,,,,,,,,,,,,11_YA,25,F,11,2021_Nov_12_1341,Partial repeat,2021.2.3,120.12567518716294,
7,2,0,1,1,3,3,3,3,0,0,1,1,1,0,0,0,2,2,2,0,0,0,0,,,,,,,90.66770046293186,None,0.950510100511829,91.38376815851916,None,"[93. 93. 87. 93. 87. 93. 87. 87. 87. 93. 93. 87. 93. 93. 87. 93. 93. 87.
 93. 87. 93. 93. 93. 87. 87. 87. 93. 93. 93. 93. 87. 87. 87. 93.]",92.4245695419886,None,s,1,0.8933861422983682,92.4245695419886,None,None,None,11_YA,25,F,11,2021_Nov_12_1341,Partial repeat,2021.2.3,120.12567518716294,
7,2,0,1,1,3,3,3,3,0,0,1,1,1,0,0,0,2,2,2,1,0,1,0,,,,,,,,,0.7594704785572776,93.39044336068673,None,"[93. 93. 87. 93. 87. 93. 93. 93. 87. 87. 87. 87. 93. 93. 87. 93. 87. 93.
 93. 87. 87. 93. 87. 93. 87. 87. 93. 87. 93. 87. 87. 93. 93. 87.]",94.23973254290195,None,s,1,0.6142630752137848,94.23973254290195,None,None,None,11_YA,25,F,11,2021_Nov_12_1341,Partial repeat,2021.2.3,120.12567518716294,
7,2,0,1,1,3,3,3,3,0,0,1,1,1,0,0,0,2,2,2,,,,,,,,,,,,,,,,,,,,,,,,,,11_YA,25,F,11,2021_Nov_12_1341,Partial repeat,2021.2.3,120.12567518716294,
4,3,0,1,1,3,3,2,3,0,0,1,0,1,0,0,0,3,3,3,0,0,0,0,,,,,,,94.88088806840915,None,0.931123184191541,95.63858236704982,None,"[93. 93. 93. 87. 87. 93. 93. 93. 87. 93. 87. 93. 93. 87. 93. 93. 87. 93.
 87. 93. 87. 93. 93. 93. 87. 93. 87. 93. 87. 87. 87. 93. 93. 93.]",96.65441227880547,None,s,1,0.7277261173712759,96.65441227880547,None,None,None,11_YA,25,F,11,2021_Nov_12_1341,Partial repeat,2021.2.3,120.12567518716294,
4,3,0,1,1,3,3,2,3,0,0,1,0,1,0,0,0,3,3,3,1,0,1,0,,,,,,,,,0.7935997886805745,97.45375947976208,None,"[87. 87. 87. 93. 93. 93. 87. 93. 93. 93. 93. 93. 87. 87. 93. 87. 93. 93.
 87. 93. 87. 87. 93. 93. 93. 93. 87. 87. 93. 87. 93. 87. 93. 93.]",98.33635635887367,None,s,1,0.6138207985695772,98.33635635887367,None,None,None,11_YA,25,F,11,2021_Nov_12_1341,Partial repeat,2021.2.3,120.12567518716294,
4,3,0,1,1,3,3,2,3,0,0,1,0,1,0,0,0,3,3,3,,,,,,,,,,,,,,,,,,,,,,,,,,11_YA,25,F,11,2021_Nov_12_1341,Partial repeat,2021.2.3,120.12567518716294,
6,3,0,1,1,3,3,3,3,1,1,1,1,1,0,0,0,4,4,4,0,0,0,0,,,,,,,98.96916315101134,None,0.9389495169054048,100.16817481184808,None,"[87. 93. 87. 87. 93. 93. 87. 93. 93. 93. 93. 93. 93. 87. 93. 87. 87. 87.
 93. 93. 93. 87. 93. 87. 87. 87. 87. 93. 87. 87. 93. 93. 93. 87.]",101.19232844060116,None,l,1,0.6546702904488484,101.19232844060116,None,None,None,11_YA,25,F,11,2021_Nov_12_1341,Partial repeat,2021.2.3,120.12567518716294,
6,3,0,1,1,3,3,3,3,1,1,1,1,1,0,0,0,4,4,4,1,0,1,0,,,,,,,,,0.9773206884849668,101.91672947486859,None,"[87. 87. 87. 93. 87. 93. 87. 87. 87. 93. 93. 93. 93. 93. 87. 87. 87. 93.
 93. 87. 87. 93. 93. 93. 93. 87. 93. 87. 93. 93. 87. 87. 93. 93.]",102.98251932835592,None,l,1,0.7358567592855252,102.98251932835592,None,None,None,11_YA,25,F,11,2021_Nov_12_1341,Partial repeat,2021.2.3,120.12567518716294,
6,3,0,1,1,3,3,3,3,1,1,1,1,1,0,0,0,4,4,4,,,,,,,,,,,,,,,,,,,,,,,,,,11_YA,25,F,11,2021_Nov_12_1341,Partial repeat,2021.2.3,120.12567518716294,
3,2,0,1,1,2,2,3,2,1,1,1,0,1,0,0,0,5,5,5,0,0,0,0,,,,,,,103.74854504133873,None,0.910519547280247,104.53122845144208,None,"[93. 93. 93. 93. 93. 87. 87. 93. 93. 93. 93. 93. 93. 87. 93. 87. 87. 93.
 87. 87. 87. 87. 93. 93. 93. 87. 87. 87. 93. 93. 87. 93. 93. 93.]",105.53040900486849,None,l,1,0.6671290855956613,105.53040900486849,None,None,None,11_YA,25,F,11,2021_Nov_12_1341,Partial repeat,2021.2.3,120.12567518716294,
3,2,0,1,1,2,2,3,2,1,1,1,0,1,0,0,0,5,5,5,1,0,1,0,,,,,,,,,0.8614324295317478,106.26313984986336,None,"[93. 87. 87. 93. 93. 93. 93. 93. 87. 93. 87. 93. 87. 93. 87. 93. 87. 87.
 87. 93. 87. 93. 93. 87. 87. 93. 93. 87. 93. 93. 87. 93. 93. 93.]",107.20402616071169,None,l,1,0.753546542148797,107.20402616071169,None,None,None,11_YA,25,F,11,2021_Nov_12_1341,Partial repeat,2021.2.3,120.12567518716294,
3,2,0,1,1,2,2,3,2,1,1,1,0,1,0,0,0,5,5,5,,,,,,,,,,,,,,,,,,,,,,,,,,11_YA,25,F,11,2021_Nov_12_1341,Partial repeat,2021.2.3,120.12567518716294,
4,1,0,1,1,3,2,3,2,0,1,0,0,0,0,0,0,6,6,6,0,0,0,0,,,,,,,107.97838874032368,None,0.9261777898181446,108.59454200473556,None,"[93. 93. 87. 87. 87. 87. 93. 93. 87. 93. 93. 87. 93. 87. 87. 87. 87. 87.
 93. 93. 93. 87. 87. 93. 87. 93. 87. 87. 87. 87. 87. 93. 93. 87.]",109.61037191649211,None,s,1,0.8112641252591857,109.61037191649211,None,None,None,11_YA,25,F,11,2021_Nov_12_1341,Partial repeat,2021.2.3,120.12567518716294,
4,1,0,1,1,3,2,3,2,0,1,0,0,0,0,0,0,6,6,6,1,0,1,0,,,,,,,,,0.7237115330522244,110.48465662462422,None,"[93. 93. 93. 87. 93. 93. 87. 87. 93. 93. 93. 93. 87. 93. 93. 87. 87. 87.
 87. 87. 93. 87. 87. 87. 87. 93. 87. 93. 87. 87. 93. 87. 93. 93.]",111.29230124331389,None,l,1,0.7774477621142069,111.29230124331389,None,None,None,11_YA,25,F,11,2021_Nov_12_1341,Partial repeat,2021.2.3,120.12567518716294,
4,1,0,1,1,3,2,3,2,0,1,0,0,0,0,0,0,6,6,6,,,,,,,,,,,,,,,,,,,,,,,,,,11_YA,25,F,11,2021_Nov_12_1341,Partial repeat,2021.2.3,120.12567518716294,
6,7,0,1,1,2,3,3,2,0,1,0,0,0,0,0,0,7,7,7,0,0,0,0,,,,,,,112.09165229294376,None,0.8732459117363955,112.70781197180986,None,"[87. 87. 87. 93. 87. 87. 87. 87. 93. 93. 93. 87. 93. 87. 93. 87. 87. 87.
 87. 87. 93. 93. 93. 87. 93. 93. 93. 93. 93. 93. 93. 87. 87. 93.]",113.66535148966159,None,s,1,0.6764893784547894,113.66535148966159,None,None,None,11_YA,25,F,11,2021_Nov_12_1341,Partial repeat,2021.2.3,120.12567518716294,
6,7,0,1,1,2,3,3,2,0,1,0,0,0,0,0,0,7,7,7,1,0,1,0,,,,,,,,,0.7693164129512101,114.41474003177791,None,"[87. 87. 87. 87. 87. 87. 87. 93. 87. 87. 93. 87. 87. 87. 93. 87. 93. 93.
 87. 93. 93. 87. 87. 87. 87. 93. 87. 93. 87. 93. 87. 93. 93. 93.]",115.264030817606,None,l,1,0.6298944596001093,115.264030817606,None,None,None,11_YA,25,F,11,2021_Nov_12_1341,Partial repeat,2021.2.3,120.12567518716294,
6,7,0,1,1,2,3,3,2,0,1,0,0,0,0,0,0,7,7,7,,,,,,,,,,,,,,,,,,,,,,,,,,11_YA,25,F,11,2021_Nov_12_1341,Partial repeat,2021.2.3,120.12567518716294,
2,6,0,1,1,3,3,2,2,0,0,1,1,1,0,0,0,8,8,8,0,0,0,0,,,,,,,115.92183024915721,None,0.7762465582999916,117.06254189440733,None,"[87. 93. 87. 93. 87. 87. 93. 93. 93. 93. 87. 87. 93. 87. 93. 87. 87. 87.
 87. 93. 93. 87. 87. 93. 87. 87. 93. 87. 93. 93. 87. 87. 87. 93.]",117.92016986758699,None,s,1,0.6778736177548126,117.92016986758699,None,None,None,11_YA,25,F,11,2021_Nov_12_1341,Partial repeat,2021.2.3,120.12567518716294,
2,6,0,1,1,3,3,2,2,0,0,1,1,1,0,0,0,8,8,8,1,0,1,0,,,,,,,,,0.9716277257788839,118.66954397718018,None,"[93. 87. 93. 87. 87. 87. 93. 93. 93. 93. 93. 87. 87. 87. 93. 93. 87. 87.
 87. 87. 93. 93. 87. 87. 93. 87. 87. 93. 87. 87. 87. 93. 93. 87.]",119.7186828687245,None,s,1,0.7664877042825538,119.7186828687245,None,None,None,11_YA,25,F,11,2021_Nov_12_1341,Partial repeat,2021.2.3,120.12567518716294,
2,6,0,1,1,3,3,2,2,0,0,1,1,1,0,0,0,8,8,8,,,,,,,,,,,,,,,,,,,,,,,,,,11_YA,25,F,11,2021_Nov_12_1341,Partial repeat,2021.2.3,120.12567518716294,
5,6,0,1,1,2,3,2,2,1,0,0,1,0,0,0,0,9,9,9,0,0,0,0,,,,,,,120.50136756171833,None,0.8539908615717214,121.14249935374391,None,"[87. 87. 87. 87. 87. 87. 87. 87. 93. 93. 87. 93. 87. 87. 93. 93. 87. 87.
 93. 87. 87. 93. 87. 93. 93. 87. 87. 87. 87. 87. 93. 87. 93. 93.]",122.07506996566372,None,l,1,0.730160402888032,122.07506996566372,None,None,None,11_YA,25,F,11,2021_Nov_12_1341,Partial repeat,2021.2.3,120.12567518716294,
5,6,0,1,1,2,3,2,2,1,0,0,1,0,0,0,0,9,9,9,1,0,1,0,,,,,,,,,0.969112021694664,122.87440241337481,None,"[87. 93. 87. 93. 87. 87. 87. 87. 93. 87. 87. 93. 87. 93. 87. 93. 87. 87.
 93. 87. 93. 87. 93. 87. 87. 87. 93. 93. 93. 93. 87. 93. 93. 87.]",123.92353938058204,None,s,1,0.7057803438874544,123.92353938058204,None,None,None,11_YA,25,F,11,2021_Nov_12_1341,Partial repeat,2021.2.3,120.12567518716294,
5,6,0,1,1,2,3,2,2,1,0,0,1,0,0,0,0,9,9,9,,,,,,,,,,,,,,,,,,,,,,,,,,11_YA,25,F,11,2021_Nov_12_1341,Partial repeat,2021.2.3,120.12567518716294,
2,3,0,1,1,3,3,2,2,1,0,1,1,0,0,0,0,10,10,10,0,0,0,0,,,,,,,124.64794105629426,None,0.9015466003256571,125.34735618632476,None,"[87. 93. 87. 87. 87. 87. 93. 87. 93. 87. 93. 87. 93. 87. 93. 93. 93. 93.
 93. 87. 87. 87. 93. 87. 87. 87. 93. 87. 93. 87. 93. 93. 93. 87.]",126.32989347515286,None,l,1,0.6995230434367841,126.32989347515286,None,None,None,11_YA,25,F,11,2021_Nov_12_1341,Partial repeat,2021.2.3,120.12567518716294,
2,3,0,1,1,3,3,2,2,1,0,1,1,0,0,0,0,10,10,10,1,0,1,0,,,,,,,,,0.7590518524923365,127.08759162246588,None,"[87. 93. 93. 93. 87. 87. 87. 87. 93. 87. 87. 87. 87. 93. 87. 93. 93. 93.
 87. 93. 93. 87. 93. 87. 87. 87. 93. 93. 87. 87. 87. 93. 93. 87.]",127.93688914347149,None,s,1,0.7565908422975554,127.93688914347149,None,None,None,11_YA,25,F,11,2021_Nov_12_1341,Partial repeat,2021.2.3,120.12567518716294,
2,3,0,1,1,3,3,2,2,1,0,1,1,0,0,0,0,10,10,10,,,,,,,,,,,,,,,,,,,,,,,,,,11_YA,25,F,11,2021_Nov_12_1341,Partial repeat,2021.2.3,120.12567518716294,
5,8,0,1,1,3,3,2,3,1,0,1,0,0,0,0,0,11,11,11,0,0,0,0,,,,,,,128.7112507609154,None,0.7232350692659415,129.31907678038078,None,"[93. 93. 93. 87. 87. 93. 87. 93. 93. 93. 93. 87. 87. 87. 87. 93. 93. 93.
 87. 93. 87. 87. 93. 87. 93. 87. 87. 93. 87. 87. 93. 93. 93. 87.]",130.11842750928645,None,l,1,0.5911344763035231,130.11842750928645,None,None,None,11_YA,25,F,11,2021_Nov_12_1341,Partial repeat,2021.2.3,120.12567518716294,
5,8,0,1,1,3,3,2,3,1,0,1,0,0,0,0,0,11,11,11,1,0,1,0,,,,,,,,,0.9905410372630733,130.77620545241462,None,"[93. 87. 93. 93. 87. 93. 87. 93. 93. 87. 93. 93. 87. 93. 93. 87. 87. 93.
 87. 87. 93. 93. 87. 93. 87. 87. 87. 93. 93. 87. 93. 93. 93. 93.]",131.84199594734764,None,l,0,1.1876864503847173,131.84199594734764,None,133.04933741891364,None,11_YA,25,F,11,2021_Nov_12_1341,Partial repeat,2021.2.3,120.12567518716294,
5,8,0,1,1,3,3,2,3,1,0,1,0,0,0,0,0,11,11,11,,,,,,,,,,,,,,,,,,,,,,,,,,11_YA,25,F,11,2021_Nov_12_1341,Partial repeat,2021.2.3,120.12567518716294,
8,2,0,1,1,2,3,2,3,1,1,0,0,1,0,0,0,12,12,12,0,0,0,0,,,,,,,133.54891630997008,None,0.8188554421491476,134.25667536252968,None,"[87. 87. 93. 93. 87. 87. 87. 87. 87. 93. 93. 93. 87. 87. 87. 93. 93. 93.
 93. 87. 87. 93. 87. 93. 87. 93. 93. 87. 87. 87. 87. 93. 87. 87.]",135.1642485241946,None,l,1,0.856952681680923,135.1642485241946,None,None,None,11_YA,25,F,11,2021_Nov_12_1341,Partial repeat,2021.2.3,120.12567518716294,
8,2,0,1,1,2,3,2,3,1,1,0,0,1,0,0,0,12,12,12,1,0,1,0,,,,,,,,,0.7560013359079683,136.08015117586638,None,"[87. 93. 87. 93. 87. 87. 87. 87. 93. 93. 87. 93. 87. 93. 93. 87. 87. 93.
 93. 93. 93. 93. 93. 93. 93. 87. 93. 93. 87. 87. 87. 87. 87. 93.]",136.92112754565642,None,l,1,1.1637573275420436,136.92112754565642,None,None,None,11_YA,25,F,11,2021_Nov_12_1341,Partial repeat,2021.2.3,120.12567518716294,
8,2,0,1,1,2,3,2,3,1,1,0,0,1,0,0,0,12,12,12,,,,,,,,,,,,,,,,,,,,,,,,,,11_YA,25,F,11,2021_Nov_12_1341,Partial repeat,2021.2.3,120.12567518716294,
4,8,0,1,1,3,2,2,2,1,0,0,1,0,0,0,0,13,13,13,0,0,0,0,,,,,,,138.1034824715407,None,0.9484264530855476,138.7362959988559,None,"[87. 93. 87. 87. 87. 93. 87. 93. 87. 93. 93. 93. 93. 93. 87. 93. 87. 93.
 87. 93. 93. 87. 93. 93. 93. 87. 87. 87. 93. 93. 93. 93. 93. 87.]",139.7687730238831,None,l,1,0.7642150630208562,139.7687730238831,None,None,None,11_YA,25,F,11,2021_Nov_12_1341,Partial repeat,2021.2.3,120.12567518716294,
4,8,0,1,1,3,2,2,2,1,0,0,1,0,0,0,0,13,13,13,1,0,1,0,,,,,,,,,0.7071505399359546,140.59308913077075,None,"[93. 93. 87. 93. 87. 87. 87. 93. 93. 87. 87. 93. 93. 93. 93. 87. 87. 87.
 93. 93. 93. 87. 87. 93. 93. 93. 87. 87. 87. 87. 87. 87. 93. 93.]",141.3757815211111,None,s,1,0.6612983463746787,141.3757815211111,None,None,None,11_YA,25,F,11,2021_Nov_12_1341,Partial repeat,2021.2.3,120.12567518716294,
4,8,0,1,1,3,2,2,2,1,0,0,1,0,0,0,0,13,13,13,,,,,,,,,,,,,,,,,,,,,,,,,,11_YA,25,F,11,2021_Nov_12_1341,Partial repeat,2021.2.3,120.12567518716294,
3,3,0,1,1,2,3,3,3,0,1,0,1,0,0,0,0,14,14,14,0,0,0,0,,,,,,,142.05854793425715,None,0.7593398111839753,143.1909480499744,None,"[93. 93. 87. 87. 93. 87. 87. 87. 93. 87. 87. 87. 93. 87. 93. 93. 87. 93.
 93. 93. 87. 87. 87. 87. 87. 87. 93. 93. 93. 87. 93. 87. 93. 87.]",144.04024749531618,None,s,1,0.7489531512192116,144.04024749531618,None,None,None,11_YA,25,F,11,2021_Nov_12_1341,Partial repeat,2021.2.3,120.12567518716294,
3,3,0,1,1,2,3,3,3,0,1,0,1,0,0,0,0,14,14,14,1,0,1,0,,,,,,,,,0.8844161419995957,144.85623218786168,None,"[93. 93. 93. 87. 93. 87. 87. 87. 87. 93. 87. 93. 87. 93. 93. 93. 87. 93.
 87. 87. 93. 87. 87. 87. 87. 93. 93. 93. 87. 93. 93. 87. 87. 87.]",145.82210953450976,None,l,1,1.0625551946077394,145.82210953450976,None,None,None,11_YA,25,F,11,2021_Nov_12_1341,Partial repeat,2021.2.3,120.12567518716294,
3,3,0,1,1,2,3,3,3,0,1,0,1,0,0,0,0,14,14,14,,,,,,,,,,,,,,,,,,,,,,,,,,11_YA,25,F,11,2021_Nov_12_1341,Partial repeat,2021.2.3,120.12567518716294,
5,7,0,1,1,2,2,3,3,0,1,1,1,0,0,0,0,15,15,15,0,0,0,0,,,,,,,146.90454553909967,None,0.9255410207488994,147.79546805954487,None,"[93. 87. 93. 87. 87. 87. 87. 93. 87. 93. 87. 87. 87. 87. 87. 87. 87. 93.
 87. 87. 93. 87. 87. 87. 87. 93. 93. 87. 93. 93. 93. 93. 87. 87.]",148.81131208310126,None,s,1,1.0986624802080769,148.81131208310126,None,None,None,11_YA,25,F,11,2021_Nov_12_1341,Partial repeat,2021.2.3,120.12567518716294,
5,7,0,1,1,2,2,3,3,0,1,1,1,0,0,0,0,15,15,15,1,0,1,0,,,,,,,,,0.73227856960364,149.96867565246248,None,"[93. 87. 87. 93. 87. 93. 93. 87. 93. 93. 93. 87. 87. 87. 87. 87. 87. 87.
 87. 87. 87. 93. 93. 93. 87. 93. 87. 93. 87. 93. 93. 87. 87. 93.]",150.78466194862176,None,l,1,0.644852646977597,150.78466194862176,None,None,None,11_YA,25,F,11,2021_Nov_12_1341,Partial repeat,2021.2.3,120.12567518716294,
5,7,0,1,1,2,2,3,3,0,1,1,1,0,0,0,0,15,15,15,,,,,,,,,,,,,,,,,,,,,,,,,,11_YA,25,F,11,2021_Nov_12_1341,Partial repeat,2021.2.3,120.12567518716294,
5,1,0,1,1,3,3,3,2,1,1,1,0,1,0,0,0,16,16,16,0,0,0,0,,,,,,,151.4507854178928,None,0.8469075139569362,152.10025568016044,None,"[87. 87. 93. 87. 87. 87. 93. 87. 87. 93. 93. 87. 87. 93. 87. 93. 87. 93.
 87. 93. 93. 93. 93. 93. 87. 87. 87. 87. 87. 93. 93. 87. 87. 93.]",153.03281057666663,None,l,1,0.5717647477822538,153.03281057666663,None,None,None,11_YA,25,F,11,2021_Nov_12_1341,Partial repeat,2021.2.3,120.12567518716294,
5,1,0,1,1,3,3,3,2,1,1,1,0,1,0,0,0,16,16,16,1,0,1,0,,,,,,,,,0.9888237267285788,153.66561608591292,None,"[87. 93. 87. 87. 87. 93. 93. 93. 93. 87. 87. 87. 87. 93. 93. 93. 93. 93.
 93. 87. 93. 87. 87. 87. 93. 87. 87. 87. 87. 87. 87. 87. 93. 87.]",154.73140818445972,None,l,1,0.8252530885492888,154.73140818445972,None,None,None,11_YA,25,F,11,2021_Nov_12_1341,Partial repeat,2021.2.3,120.12567518716294,
5,1,0,1,1,3,3,3,2,1,1,1,0,1,0,0,0,16,16,16,,,,,,,,,,,,,,,,,,,,,,,,,,11_YA,25,F,11,2021_Nov_12_1341,Partial repeat,2021.2.3,120.12567518716294,
5,3,0,1,1,2,2,2,2,1,0,1,1,0,0,0,0,17,17,17,0,0,0,0,,,,,,,155.58903295041182,None,0.9473379345527111,156.40501860512632,None,"[93. 87. 93. 93. 93. 87. 93. 93. 93. 93. 87. 93. 87. 87. 93. 93. 93. 87.
 87. 93. 87. 93. 87. 87. 87. 93. 93. 93. 93. 87. 87. 87. 87. 87.]",157.4291808933931,None,l,1,0.735595049537551,157.4291808933931,None,None,None,11_YA,25,F,11,2021_Nov_12_1341,Partial repeat,2021.2.3,120.12567518716294,
5,3,0,1,1,2,2,2,2,1,0,1,1,0,0,0,0,17,17,17,1,0,1,0,,,,,,,,,0.7039961218567028,158.23684411400063,None,"[87. 93. 93. 93. 87. 93. 93. 93. 87. 87. 87. 93. 87. 87. 93. 87. 93. 87.
 87. 87. 93. 93. 93. 87. 87. 87. 87. 87. 87. 93. 87. 87. 87. 87.]",159.0278688808512,None,s,1,0.9450071070450576,159.0278688808512,None,None,None,11_YA,25,F,11,2021_Nov_12_1341,Partial repeat,2021.2.3,120.12567518716294,
5,3,0,1,1,2,2,2,2,1,0,1,1,0,0,0,0,17,17,17,,,,,,,,,,,,,,,,,,,,,,,,,,11_YA,25,F,11,2021_Nov_12_1341,Partial repeat,2021.2.3,120.12567518716294,
8,6,0,1,1,2,2,2,3,0,0,1,0,1,0,0,0,18,18,18,0,0,0,0,,,,,,,159.98539075895224,None,0.900674803140449,160.78473090400894,None,"[87. 93. 87. 93. 87. 87. 93. 93. 87. 87. 87. 93. 87. 93. 87. 87. 87. 87.
 87. 93. 87. 87. 93. 87. 87. 93. 93. 87. 87. 87. 93. 93. 87. 93.]",161.7756047387429,None,s,1,0.9013872122286557,161.7756047387429,None,None,None,11_YA,25,F,11,2021_Nov_12_1341,Partial repeat,2021.2.3,120.12567518716294,
8,6,0,1,1,2,2,2,3,0,0,1,0,1,0,0,0,18,18,18,1,0,1,0,,,,,,,,,0.9349479075590568,162.74145193745426,None,"[87. 87. 87. 93. 87. 87. 87. 93. 93. 93. 93. 87. 93. 87. 87. 87. 87. 87.
 87. 87. 93. 87. 87. 93. 93. 93. 93. 93. 93. 93. 93. 87. 87. 87.]",163.76561101849347,None,s,1,0.8154476325426003,163.76561101849347,None,None,None,11_YA,25,F,11,2021_Nov_12_1341,Partial repeat,2021.2.3,120.12567518716294,
8,6,0,1,1,2,2,2,3,0,0,1,0,1,0,0,0,18,18,18,,,,,,,,,,,,,,,,,,,,,,,,,,11_YA,25,F,11,2021_Nov_12_1341,Partial repeat,2021.2.3,120.12567518716294,
1,2,0,1,1,2,3,3,3,1,1,0,1,1,0,0,0,19,19,19,0,0,0,0,,,,,,,164.59825116310094,None,0.8981010776408231,165.18942493773193,None,"[93. 93. 87. 87. 93. 93. 87. 87. 87. 87. 87. 87. 87. 93. 93. 87. 87. 87.
 93. 87. 87. 93. 87. 93. 93. 93. 87. 87. 87. 93. 87. 87. 93. 87.]",166.17195132198776,None,l,1,0.9052301119727417,166.17195132198776,None,None,None,11_YA,25,F,11,2021_Nov_12_1341,Partial repeat,2021.2.3,120.12567518716294,
1,2,0,1,1,2,3,3,3,1,1,0,1,1,0,0,0,19,19,19,1,0,1,0,,,,,,,,,0.8001246046343964,167.14615495141425,None,"[93. 93. 87. 87. 87. 93. 93. 93. 93. 87. 87. 87. 87. 87. 93. 87. 93. 93.
 87. 87. 87. 93. 93. 87. 93. 87. 87. 93. 93. 93. 93. 87. 93. 93.]",168.02042426485605,None,l,1,0.8328904589043304,168.02042426485605,None,None,None,11_YA,25,F,11,2021_Nov_12_1341,Partial repeat,2021.2.3,120.12567518716294,
1,2,0,1,1,2,3,3,3,1,1,0,1,1,0,0,0,19,19,19,,,,,,,,,,,,,,,,,,,,,,,,,,11_YA,25,F,11,2021_Nov_12_1341,Partial repeat,2021.2.3,120.12567518716294,
7,4,0,1,1,3,3,3,3,0,1,1,1,0,0,0,0,20,20,20,0,0,0,0,,,,,,,168.86139325802378,None,0.9576596007120166,169.46089299471078,None,"[93. 93. 87. 93. 93. 87. 93. 87. 93. 93. 87. 87. 87. 87. 93. 87. 93. 93.
 93. 93. 93. 87. 93. 87. 93. 93. 93. 87. 93. 87. 93. 87. 93. 87.]",170.49337964141978,None,s,1,0.9509818507713135,170.49337964141978,None,None,None,11_YA,25,F,11,2021_Nov_12_1341,Partial repeat,2021.2.3,120.12567518716294,
7,4,0,1,1,3,3,3,3,0,1,1,1,0,0,0,0,20,20,20,1,0,1,0,,,,,,,,,0.9150877927528256,171.50921692979864,None,"[93. 87. 93. 87. 93. 87. 87. 93. 93. 93. 87. 93. 87. 93. 87. 87. 87. 93.
 93. 87. 87. 93. 87. 93. 93. 93. 87. 87. 87. 93. 87. 87. 87. 93.]",172.50005452286405,None,l,1,0.8964128026955223,172.50005452286405,None,None,None,11_YA,25,F,11,2021_Nov_12_1341,Partial repeat,2021.2.3,120.12567518716294,
7,4,0,1,1,3,3,3,3,0,1,1,1,0,0,0,0,20,20,20,,,,,,,,,,,,,,,,,,,,,,,,,,11_YA,25,F,11,2021_Nov_12_1341,Partial repeat,2021.2.3,120.12567518716294,
2,8,0,1,1,3,2,2,3,0,0,0,0,1,0,0,0,21,21,21,0,0,0,0,,,,,,,173.4159603817634,None,0.9994390803380324,173.9904880052909,None,"[87. 87. 87. 93. 87. 93. 87. 87. 87. 93. 87. 87. 87. 93. 87. 87. 93. 93.
 87. 87. 87. 87. 87. 87. 87. 87. 87. 93. 93. 87. 87. 93. 93. 87.]",175.07292657566268,None,s,1,0.7076726079912987,175.07292657566268,None,None,None,11_YA,25,F,11,2021_Nov_12_1341,Partial repeat,2021.2.3,120.12567518716294,
2,8,0,1,1,3,2,2,3,0,0,0,0,1,0,0,0,21,21,21,1,0,1,0,,,,,,,,,0.7310311125020728,175.84729300394702,None,"[93. 93. 87. 87. 87. 93. 87. 87. 93. 93. 93. 87. 87. 87. 87. 93. 93. 87.
 93. 93. 93. 87. 87. 87. 93. 93. 93. 93. 93. 87. 87. 87. 93. 87.]",176.66329212901564,None,s,1,0.685215281753699,176.66329212901564,None,None,None,11_YA,25,F,11,2021_Nov_12_1341,Partial repeat,2021.2.3,120.12567518716294,
2,8,0,1,1,3,2,2,3,0,0,0,0,1,0,0,0,21,21,21,,,,,,,,,,,,,,,,,,,,,,,,,,11_YA,25,F,11,2021_Nov_12_1341,Partial repeat,2021.2.3,120.12567518716294,
4,4,0,1,1,3,3,2,2,0,1,1,1,0,0,0,0,22,22,22,0,0,0,0,,,,,,,177.36269859953245,None,0.7758570054554323,178.40351345335694,None,"[87. 87. 93. 93. 93. 93. 93. 87. 87. 87. 93. 87. 93. 87. 87. 87. 93. 87.
 93. 93. 93. 87. 93. 93. 93. 93. 93. 93. 93. 87. 93. 93. 87. 87.]",179.2611330877453,None,s,1,0.6166652884567156,179.2611330877453,None,None,None,11_YA,25,F,11,2021_Nov_12_1341,Partial repeat,2021.2.3,120.12567518716294,
4,4,0,1,1,3,3,2,2,0,1,1,1,0,0,0,0,22,22,22,1,0,1,0,,,,,,,,,0.7808877406422953,179.93557289739056,None,"[87. 87. 87. 87. 93. 93. 87. 93. 87. 93. 93. 93. 93. 93. 93. 87. 93. 93.
 93. 93. 87. 87. 93. 87. 93. 87. 93. 93. 87. 93. 87. 87. 87. 87.]",180.79320022912452,None,l,1,0.7316251435922823,180.79320022912452,None,None,None,11_YA,25,F,11,2021_Nov_12_1341,Partial repeat,2021.2.3,120.12567518716294,
4,4,0,1,1,3,3,2,2,0,1,1,1,0,0,0,0,22,22,22,,,,,,,,,,,,,,,,,,,,,,,,,,11_YA,25,F,11,2021_Nov_12_1341,Partial repeat,2021.2.3,120.12567518716294,
1,1,0,1,1,3,2,3,3,1,1,0,1,1,0,0,0,23,23,23,0,0,0,0,,,,,,,181.5425756216091,None,0.706387836418001,182.17538305519247,None,"[87. 93. 87. 93. 93. 93. 87. 93. 87. 93. 93. 87. 87. 87. 93. 87. 93. 87.
 93. 93. 87. 87. 93. 87. 87. 87. 87. 93. 93. 93. 87. 87. 87. 87.]",182.9664023697569,None,l,1,1.2775045300377315,182.9664023697569,None,None,None,11_YA,25,F,11,2021_Nov_12_1341,Partial repeat,2021.2.3,120.12567518716294,
1,1,0,1,1,3,2,3,3,1,1,0,1,1,0,0,0,23,23,23,1,0,1,0,,,,,,,,,0.7632541431472684,184.30695506482152,None,"[87. 87. 87. 87. 87. 93. 87. 93. 87. 93. 87. 87. 87. 93. 87. 87. 87. 93.
 87. 93. 87. 93. 93. 87. 93. 93. 87. 93. 93. 93. 87. 87. 87. 87.]",185.15625900028226,None,l,1,1.0237544795236317,185.15625900028226,None,None,None,11_YA,25,F,11,2021_Nov_12_1341,Partial repeat,2021.2.3,120.12567518716294,
1,1,0,1,1,3,2,3,3,1,1,0,1,1,0,0,0,23,23,23,,,,,,,,,,,,,,,,,,,,,,,,,,11_YA,25,F,11,2021_Nov_12_1341,Partial repeat,2021.2.3,120.12567518716294,
6,6,0,1,1,2,2,2,2,1,1,1,1,1,0,0,0,24,24,24,0,0,0,0,,,,,,,186.20539019448006,None,0.9779347857782077,186.80489570417558,None,"[87. 87. 93. 87. 93. 93. 93. 93. 93. 87. 93. 93. 87. 87. 87. 87. 93. 93.
 93. 87. 93. 93. 93. 87. 87. 93. 87. 93. 93. 87. 93. 93. 87. 93.]",187.87069068922665,None,l,1,0.7254444958743989,187.87069068922665,None,None,None,11_YA,25,F,11,2021_Nov_12_1341,Partial repeat,2021.2.3,120.12567518716294,
6,6,0,1,1,2,2,2,2,1,1,1,1,1,0,0,0,24,24,24,1,0,1,0,,,,,,,,,0.8241747305534961,188.66168915681374,None,"[87. 93. 87. 87. 87. 93. 87. 87. 93. 93. 93. 93. 87. 87. 87. 87. 87. 93.
 93. 93. 87. 93. 87. 87. 93. 93. 93. 87. 93. 93. 87. 93. 87. 93.]",189.56927739244747,None,l,1,0.626939641093486,189.56927739244747,None,None,None,11_YA,25,F,11,2021_Nov_12_1341,Partial repeat,2021.2.3,120.12567518716294,
6,6,0,1,1,2,2,2,2,1,1,1,1,1,0,0,0,24,24,24,,,,,,,,,,,,,,,,,,,,,,,,,,11_YA,25,F,11,2021_Nov_12_1341,Partial repeat,2021.2.3,120.12567518716294,
2,7,0,1,1,3,3,3,2,0,1,1,0,0,0,0,0,25,25,25,0,0,0,0,,,,,,,190.21873578797477,None,0.8022829135793341,190.9181900461781,None,"[93. 87. 87. 87. 93. 93. 87. 93. 87. 87. 93. 93. 93. 93. 87. 87. 93. 87.
 93. 93. 87. 87. 93. 93. 87. 93. 93. 87. 87. 87. 87. 87. 87. 93.]",191.80076543686664,None,s,1,1.1315660664658935,191.80076543686664,None,None,None,11_YA,25,F,11,2021_Nov_12_1341,Partial repeat,2021.2.3,120.12567518716294,
2,7,0,1,1,3,3,3,2,0,1,1,0,0,0,0,0,25,25,25,1,0,1,0,,,,,,,,,0.8209883031300417,192.99978832299894,None,"[93. 93. 87. 93. 87. 93. 87. 87. 87. 87. 93. 87. 87. 93. 93. 93. 93. 87.
 87. 93. 93. 93. 93. 93. 87. 87. 87. 87. 87. 87. 93. 93. 87. 87.]",193.8990406541725,None,l,1,1.0813771287057534,193.8990406541725,None,None,None,11_YA,25,F,11,2021_Nov_12_1341,Partial repeat,2021.2.3,120.12567518716294,
2,7,0,1,1,3,3,3,2,0,1,1,0,0,0,0,0,25,25,25,,,,,,,,,,,,,,,,,,,,,,,,,,11_YA,25,F,11,2021_Nov_12_1341,Partial repeat,2021.2.3,120.12567518716294,
7,1,0,1,1,3,2,2,3,1,1,0,0,1,0,0,0,26,26,26,0,0,0,0,,,,,,,195.0064471683072,None,0.9711961348122813,195.57264305677018,None,"[87. 93. 87. 93. 93. 87. 87. 87. 87. 93. 87. 87. 87. 93. 93. 93. 87. 87.
 87. 87. 87. 93. 87. 93. 87. 93. 93. 93. 93. 87. 87. 87. 87. 87.]",196.6217816275912,None,l,1,0.6472606332308715,196.6217816275912,None,None,None,11_YA,25,F,11,2021_Nov_12_1341,Partial repeat,2021.2.3,120.12567518716294,
7,1,0,1,1,3,2,2,3,1,1,0,0,1,0,0,0,26,26,26,1,0,1,0,,,,,,,,,0.7690370960376026,197.32952432329148,None,"[87. 87. 87. 93. 93. 93. 87. 93. 87. 87. 87. 93. 93. 87. 87. 93. 93. 93.
 93. 87. 87. 93. 87. 87. 93. 93. 93. 87. 93. 87. 87. 87. 93. 87.]",198.1788292209203,None,l,1,1.0734684269209538,198.1788292209203,None,None,None,11_YA,25,F,11,2021_Nov_12_1341,Partial repeat,2021.2.3,120.12567518716294,
7,1,0,1,1,3,2,2,3,1,1,0,0,1,0,0,0,26,26,26,,,,,,,,,,,,,,,,,,,,,,,,,,11_YA,25,F,11,2021_Nov_12_1341,Partial repeat,2021.2.3,120.12567518716294,
1,7,0,1,1,3,2,2,2,1,1,0,1,1,0,0,0,27,27,27,0,0,0,0,,,,,,,199.27791169733518,None,0.8528891313048325,199.919050865984,None,"[87. 93. 87. 87. 87. 93. 87. 87. 87. 93. 87. 93. 87. 87. 93. 87. 87. 93.
 93. 93. 87. 93. 87. 93. 93. 87. 93. 87. 87. 87. 93. 93. 93. 87.]",200.85161698778575,None,l,1,0.784979935415322,200.85161698778575,None,None,None,11_YA,25,F,11,2021_Nov_12_1341,Partial repeat,2021.2.3,120.12567518716294,
1,7,0,1,1,3,2,2,2,1,1,0,1,1,0,0,0,27,27,27,1,0,1,0,,,,,,,,,0.9120174923383166,201.70091418806805,None,"[93. 87. 93. 87. 87. 87. 87. 87. 93. 87. 87. 93. 87. 87. 87. 93. 87. 93.
 93. 87. 93. 93. 93. 93. 93. 87. 87. 87. 87. 93. 87. 87. 87. 93.]",202.70008993065403,None,l,1,0.7276866684760535,202.70008993065403,None,None,None,11_YA,25,F,11,2021_Nov_12_1341,Partial repeat,2021.2.3,120.12567518716294,
1,7,0,1,1,3,2,2,2,1,1,0,1,1,0,0,0,27,27,27,,,,,,,,,,,,,,,,,,,,,,,,,,11_YA,25,F,11,2021_Nov_12_1341,Partial repeat,2021.2.3,120.12567518716294,
7,7,0,1,1,2,2,2,3,0,1,1,0,0,0,0,0,28,28,28,0,0,0,0,,,,,,,203.45779609603505,None,0.8223351931443413,204.04896794632896,None,"[93. 87. 87. 87. 87. 87. 93. 93. 87. 87. 93. 93. 87. 93. 93. 87. 93. 93.
 93. 87. 93. 87. 93. 87. 93. 87. 93. 87. 87. 87. 87. 93. 87. 93.]",204.9565574648541,None,s,1,0.663337501488968,204.9565574648541,None,None,None,11_YA,25,F,11,2021_Nov_12_1341,Partial repeat,2021.2.3,120.12567518716294,
7,7,0,1,1,2,2,2,3,0,1,1,0,0,0,0,0,28,28,28,1,0,1,0,,,,,,,,,0.9710679890317573,205.68095336755687,None,"[87. 87. 87. 93. 93. 93. 87. 93. 93. 87. 87. 93. 87. 87. 93. 87. 87. 93.
 87. 87. 87. 87. 87. 87. 87. 93. 93. 93. 87. 93. 93. 87. 93. 87.]",206.73841854187958,None,l,1,0.6420235517825859,206.73841854187958,None,None,None,11_YA,25,F,11,2021_Nov_12_1341,Partial repeat,2021.2.3,120.12567518716294,
7,7,0,1,1,2,2,2,3,0,1,1,0,0,0,0,0,28,28,28,,,,,,,,,,,,,,,,,,,,,,,,,,11_YA,25,F,11,2021_Nov_12_1341,Partial repeat,2021.2.3,120.12567518716294,
8,1,0,1,1,2,2,2,2,0,0,1,1,1,0,0,0,29,29,29,0,0,0,0,,,,,,,207.41287438766085,None,0.7078129588680018,207.90411448775194,None,"[93. 87. 93. 87. 87. 93. 93. 87. 93. 87. 87. 93. 87. 93. 93. 93. 93. 87.
 93. 93. 87. 87. 87. 87. 93. 93. 93. 93. 93. 87. 93. 93. 87. 87.]",208.69513476448446,None,s,1,0.620915826790224,208.69513476448446,None,None,None,11_YA,25,F,11,2021_Nov_12_1341,Partial repeat,2021.2.3,120.12567518716294,
8,1,0,1,1,2,2,2,2,0,0,1,1,1,0,0,0,29,29,29,1,0,1,0,,,,,,,,,0.8620394146621916,209.3862290640227,None,"[93. 87. 87. 87. 87. 87. 93. 93. 93. 93. 93. 93. 93. 87. 93. 93. 93. 93.
 87. 87. 87. 87. 93. 87. 93. 87. 93. 93. 87. 93. 93. 93. 93. 87.]",210.3354442234313,None,s,1,0.7089368969909629,210.3354442234313,None,None,None,11_YA,25,F,11,2021_Nov_12_1341,Partial repeat,2021.2.3,120.12567518716294,
8,1,0,1,1,2,2,2,2,0,0,1,1,1,0,0,0,29,29,29,,,,,,,,,,,,,,,,,,,,,,,,,,11_YA,25,F,11,2021_Nov_12_1341,Partial repeat,2021.2.3,120.12567518716294,
8,3,0,1,1,2,3,3,3,1,0,0,1,0,0,0,0,30,30,30,0,0,0,0,,,,,,,211.0681737855357,None,0.9184955881886149,211.7759145568998,None,"[93. 87. 87. 87. 93. 87. 87. 93. 87. 93. 87. 93. 87. 87. 87. 93. 87. 93.
 93. 93. 87. 93. 93. 87. 93. 93. 87. 87. 93. 93. 87. 93. 87. 87.]",212.77509831755287,None,l,1,0.5731339131143613,212.77509831755287,None,None,None,11_YA,25,F,11,2021_Nov_12_1341,Partial repeat,2021.2.3,120.12567518716294,
8,3,0,1,1,2,3,3,3,1,0,0,1,0,0,0,0,30,30,30,1,0,1,0,,,,,,,,,0.8002638062178111,213.4162352411422,None,"[87. 87. 93. 93. 87. 87. 87. 87. 87. 93. 93. 87. 87. 93. 93. 93. 93. 87.
 87. 93. 87. 93. 87. 93. 93. 87. 93. 87. 87. 87. 87. 87. 87. 93.]",214.29883436531236,None,s,1,0.9684907460159593,214.29883436531236,None,None,None,11_YA,25,F,11,2021_Nov_12_1341,Partial repeat,2021.2.3,120.12567518716294,
8,3,0,1,1,2,3,3,3,1,0,0,1,0,0,0,0,30,30,30,,,,,,,,,,,,,,,,,,,,,,,,,,11_YA,25,F,11,2021_Nov_12_1341,Partial repeat,2021.2.3,120.12567518716294,
7,8,0,1,1,2,3,3,2,1,1,0,0,1,0,0,0,31,31,31,0,0,0,0,,,,,,,215.29802646475673,None,0.9083399829613532,215.79759124401335,None,"[87. 93. 87. 87. 93. 87. 87. 93. 93. 93. 93. 93. 87. 93. 87. 87. 87. 87.
 87. 93. 87. 87. 87. 93. 87. 87. 93. 93. 87. 87. 87. 93. 93. 93.]",216.78011826971397,None,l,1,0.6319454814556593,216.78011826971397,None,None,None,11_YA,25,F,11,2021_Nov_12_1341,Partial repeat,2021.2.3,120.12567518716294,
7,8,0,1,1,2,3,3,2,1,1,0,0,1,0,0,0,31,31,31,1,0,1,0,,,,,,,,,0.9027461907634133,217.47953724841773,None,"[93. 93. 87. 93. 87. 87. 93. 87. 93. 93. 87. 87. 93. 93. 87. 87. 87. 93.
 87. 87. 87. 87. 93. 87. 93. 87. 87. 87. 93. 93. 93. 87. 87. 93.]",218.46206299122696,None,l,1,0.8695195603877437,218.46206299122696,None,None,None,11_YA,25,F,11,2021_Nov_12_1341,Partial repeat,2021.2.3,120.12567518716294,
7,8,0,1,1,2,3,3,2,1,1,0,0,1,0,0,0,31,31,31,,,,,,,,,,,,,,,,,,,,,,,,,,11_YA,25,F,11,2021_Nov_12_1341,Partial repeat,2021.2.3,120.12567518716294,
1,3,0,1,1,2,3,3,2,1,0,0,0,0,0,0,0,32,32,32,0,0,0,0,,,,,,,219.35298839817642,None,0.8138971450592714,219.82759196884672,None,"[87. 87. 87. 93. 87. 87. 93. 87. 87. 93. 93. 93. 87. 93. 87. 87. 87. 87.
 93. 87. 93. 93. 87. 93. 93. 93. 93. 93. 93. 87. 93. 87. 93. 87.]",220.72685616676063,None,l,1,0.7007132454855309,220.72685616676063,None,None,None,11_YA,25,F,11,2021_Nov_12_1341,Partial repeat,2021.2.3,120.12567518716294,
1,3,0,1,1,2,3,3,2,1,0,0,0,0,0,0,0,32,32,32,1,0,1,0,,,,,,,,,0.7747353103335348,221.50121008685892,None,"[87. 93. 87. 87. 93. 87. 93. 87. 87. 87. 87. 87. 87. 93. 93. 87. 87. 87.
 87. 87. 93. 93. 87. 93. 87. 87. 87. 93. 93. 93. 93. 93. 93. 93.]",222.35884030509715,None,s,1,0.5727772694390296,222.35884030509715,None,None,None,11_YA,25,F,11,2021_Nov_12_1341,Partial repeat,2021.2.3,120.12567518716294,
1,3,0,1,1,2,3,3,2,1,0,0,0,0,0,0,0,32,32,32,,,,,,,,,,,,,,,,,,,,,,,,,,11_YA,25,F,11,2021_Nov_12_1341,Partial repeat,2021.2.3,120.12567518716294,
8,5,0,1,1,3,2,3,3,0,0,0,1,1,0,0,0,33,33,33,0,0,0,0,,,,,,,222.9500160040643,None,0.9895893462383556,223.50788849625314,None,"[93. 87. 93. 87. 87. 93. 87. 93. 87. 87. 93. 93. 93. 93. 93. 93. 93. 93.
 93. 87. 93. 87. 87. 87. 93. 87. 87. 93. 87. 93. 87. 93. 93. 87.]",224.5736757839586,None,s,1,0.9340941954533264,224.5736757839586,None,None,None,11_YA,25,F,11,2021_Nov_12_1341,Partial repeat,2021.2.3,120.12567518716294,
8,5,0,1,1,3,2,3,3,0,0,0,1,1,0,0,0,33,33,33,1,0,1,0,,,,,,,,,0.7624557829822413,225.57284254630758,None,"[87. 87. 87. 87. 87. 93. 87. 93. 93. 87. 93. 87. 87. 87. 93. 93. 93. 87.
 87. 87. 93. 93. 93. 93. 93. 93. 93. 87. 87. 93. 93. 93. 93. 87.]",226.42215449983632,None,s,1,0.8456760705139459,226.42215449983632,None,None,None,11_YA,25,F,11,2021_Nov_12_1341,Partial repeat,2021.2.3,120.12567518716294,
8,5,0,1,1,3,2,3,3,0,0,0,1,1,0,0,0,33,33,33,,,,,,,,,,,,,,,,,,,,,,,,,,11_YA,25,F,11,2021_Nov_12_1341,Partial repeat,2021.2.3,120.12567518716294,
7,3,0,1,1,2,3,2,3,0,1,0,0,0,0,0,0,34,34,34,0,0,0,0,,,,,,,227.28809753049973,None,0.7912429729447497,227.77935815684486,None,"[93. 87. 87. 93. 93. 93. 93. 87. 93. 87. 93. 87. 93. 93. 93. 87. 93. 87.
 93. 93. 93. 87. 87. 87. 87. 87. 93. 87. 93. 93. 93. 87. 93. 87.]",228.65363773341414,None,s,1,0.7573131098843078,228.65363773341414,None,None,None,11_YA,25,F,11,2021_Nov_12_1341,Partial repeat,2021.2.3,120.12567518716294,
7,3,0,1,1,2,3,2,3,0,1,0,0,0,0,0,0,34,34,34,1,0,1,0,,,,,,,,,0.9479514478537366,229.47795640608365,None,"[93. 93. 93. 93. 87. 87. 93. 93. 93. 93. 87. 93. 87. 93. 93. 93. 87. 87.
 87. 87. 87. 93. 87. 93. 87. 87. 93. 93. 93. 93. 87. 87. 93. 93.]",230.51043375183417,None,l,1,0.756591163019948,230.51043375183417,None,None,None,11_YA,25,F,11,2021_Nov_12_1341,Partial repeat,2021.2.3,120.12567518716294,
7,3,0,1,1,2,3,2,3,0,1,0,0,0,0,0,0,34,34,34,,,,,,,,,,,,,,,,,,,,,,,,,,11_YA,25,F,11,2021_Nov_12_1341,Partial repeat,2021.2.3,120.12567518716294,
1,5,0,1,1,2,3,3,2,0,0,0,0,1,0,0,0,35,35,35,0,0,0,0,,,,,,,231.2847924827729,None,0.983592362235892,231.7593950912751,None,"[93. 93. 87. 93. 87. 93. 93. 87. 87. 87. 93. 93. 87. 93. 93. 87. 93. 93.
 87. 93. 87. 93. 93. 93. 93. 93. 93. 87. 87. 93. 87. 93. 93. 93.]",232.83351186898653,None,s,1,0.7376111126150136,232.83351186898653,None,None,None,11_YA,25,F,11,2021_Nov_12_1341,Partial repeat,2021.2.3,120.12567518716294,
1,5,0,1,1,2,3,3,2,0,0,0,0,1,0,0,0,35,35,35,1,0,1,0,,,,,,,,,0.7611170260831176,233.63285650416128,None,"[93. 93. 93. 87. 87. 93. 87. 87. 93. 93. 87. 93. 93. 93. 87. 93. 93. 93.
 87. 93. 93. 93. 93. 87. 93. 87. 87. 87. 87. 87. 87. 87. 93. 87.]",234.48214857288076,None,s,1,1.073049563036875,234.48214857288076,None,None,None,11_YA,25,F,11,2021_Nov_12_1341,Partial repeat,2021.2.3,120.12567518716294,
1,5,0,1,1,2,3,3,2,0,0,0,0,1,0,0,0,35,35,35,,,,,,,,,,,,,,,,,,,,,,,,,,11_YA,25,F,11,2021_Nov_12_1341,Partial repeat,2021.2.3,120.12567518716294,
7,6,0,1,1,3,3,2,2,1,1,1,1,1,0,0,0,36,36,36,0,0,0,0,,,,,,,235.57291342603094,None,0.8830262893640134,236.09747597626392,None,"[93. 93. 87. 87. 87. 87. 93. 87. 93. 87. 87. 87. 93. 93. 87. 87. 87. 87.
 87. 87. 87. 87. 93. 93. 93. 93. 87. 93. 93. 87. 93. 93. 93. 87.]",237.05502415362935,None,l,1,0.7882968498824994,237.05502415362935,None,None,None,11_YA,25,F,11,2021_Nov_12_1341,Partial repeat,2021.2.3,120.12567518716294,
7,6,0,1,1,3,3,2,2,1,1,1,1,1,0,0,0,36,36,36,1,0,1,0,,,,,,,,,0.7048053444689949,237.9126434672953,None,"[93. 87. 87. 93. 93. 93. 93. 93. 93. 87. 93. 93. 87. 87. 87. 93. 87. 93.
 87. 93. 87. 87. 93. 87. 93. 87. 87. 93. 93. 87. 93. 87. 93. 87.]",238.6953310467943,None,l,1,0.6360459215502487,238.6953310467943,None,None,None,11_YA,25,F,11,2021_Nov_12_1341,Partial repeat,2021.2.3,120.12567518716294,
7,6,0,1,1,3,3,2,2,1,1,1,1,1,0,0,0,36,36,36,,,,,,,,,,,,,,,,,,,,,,,,,,11_YA,25,F,11,2021_Nov_12_1341,Partial repeat,2021.2.3,120.12567518716294,
3,5,0,1,1,2,3,2,2,0,0,0,1,1,0,0,0,37,37,37,0,0,0,0,,,,,,,239.3531227809999,None,0.9038457892406319,239.82773276612443,None,"[87. 93. 93. 93. 93. 93. 93. 93. 93. 93. 93. 87. 87. 87. 93. 87. 93. 87.
 87. 93. 93. 93. 87. 87. 93. 87. 93. 87. 93. 93. 87. 87. 93. 87.]",240.81857966015014,None,s,1,0.7529057381352686,240.81857966015014,None,None,None,11_YA,25,F,11,2021_Nov_12_1341,Partial repeat,2021.2.3,120.12567518716294,
3,5,0,1,1,2,3,2,2,0,0,0,1,1,0,0,0,37,37,37,1,0,1,0,,,,,,,,,0.916718749858589,241.64289897426534,None,"[87. 93. 87. 87. 93. 87. 93. 93. 87. 87. 87. 93. 93. 93. 87. 87. 87. 87.
 93. 87. 87. 87. 87. 93. 87. 87. 93. 93. 87. 87. 87. 93. 93. 87.]",242.63374554756683,None,s,1,0.8421939838408434,242.63374554756683,None,None,None,11_YA,25,F,11,2021_Nov_12_1341,Partial repeat,2021.2.3,120.12567518716294,
3,5,0,1,1,2,3,2,2,0,0,0,1,1,0,0,0,37,37,37,,,,,,,,,,,,,,,,,,,,,,,,,,11_YA,25,F,11,2021_Nov_12_1341,Partial repeat,2021.2.3,120.12567518716294,
6,5,0,1,1,3,2,3,2,1,0,0,0,0,0,0,0,38,38,38,0,0,0,0,,,,,,,243.49135074943297,None,0.7931329156689823,243.95764535635226,None,"[93. 87. 93. 93. 87. 87. 93. 87. 87. 93. 93. 93. 93. 87. 87. 93. 87. 93.
 93. 93. 93. 87. 87. 93. 87. 87. 93. 93. 93. 93. 93. 87. 87. 93.]",244.83192974376198,None,l,1,0.5946957814912821,244.83192974376198,None,None,None,11_YA,25,F,11,2021_Nov_12_1341,Partial repeat,2021.2.3,120.12567518716294,
6,5,0,1,1,3,2,3,2,1,0,0,0,0,0,0,0,38,38,38,1,0,1,0,,,,,,,,,0.9797003670306417,245.48971795001762,None,"[93. 87. 87. 87. 93. 87. 93. 87. 93. 87. 87. 87. 87. 87. 93. 93. 93. 87.
 87. 87. 93. 87. 93. 87. 87. 93. 87. 93. 87. 87. 87. 87. 87. 87.]",246.5471776720533,None,s,1,0.7355347536640693,246.5471776720533,None,None,None,11_YA,25,F,11,2021_Nov_12_1341,Partial repeat,2021.2.3,120.12567518716294,
6,5,0,1,1,3,2,3,2,1,0,0,0,0,0,0,0,38,38,38,,,,,,,,,,,,,,,,,,,,,,,,,,11_YA,25,F,11,2021_Nov_12_1341,Partial repeat,2021.2.3,120.12567518716294,
6,4,0,1,1,3,2,2,3,0,1,0,0,0,0,0,0,39,39,39,0,0,0,0,,,,,,,247.29654119779752,None,0.9185622298533942,247.77949350183735,None,"[93. 87. 87. 87. 87. 93. 87. 93. 93. 87. 87. 93. 93. 87. 93. 87. 93. 93.
 93. 93. 93. 87. 87. 87. 87. 87. 93. 87. 93. 87. 93. 87. 87. 87.]",248.77866924442242,None,s,1,0.8241693664467675,248.77866924442242,None,None,None,11_YA,25,F,11,2021_Nov_12_1341,Partial repeat,2021.2.3,120.12567518716294,
6,4,0,1,1,3,2,2,3,0,1,0,0,0,0,0,0,39,39,39,1,0,1,0,,,,,,,,,0.9771084445260017,249.66959465137188,None,"[87. 87. 93. 87. 87. 87. 93. 87. 93. 87. 87. 93. 93. 87. 87. 87. 93. 93.
 87. 93. 93. 87. 87. 87. 93. 87. 87. 87. 87. 87. 93. 87. 87. 93.]",250.72705405268516,None,l,1,0.6038536983069207,250.72705405268516,None,None,None,11_YA,25,F,11,2021_Nov_12_1341,Partial repeat,2021.2.3,120.12567518716294,
6,4,0,1,1,3,2,2,3,0,1,0,0,0,0,0,0,39,39,39,,,,,,,,,,,,,,,,,,,,,,,,,,11_YA,25,F,11,2021_Nov_12_1341,Partial repeat,2021.2.3,120.12567518716294,
3,8,0,1,1,2,2,2,2,0,1,1,1,0,0,0,0,40,40,40,0,0,0,0,,,,,,,251.35154001433057,None,0.8251237274816625,252.00932725841722,None,"[87. 87. 87. 93. 93. 87. 93. 87. 87. 93. 93. 93. 93. 93. 93. 87. 87. 87.
 93. 87. 87. 93. 87. 93. 93. 87. 87. 87. 93. 87. 87. 87. 93. 87.]",252.9085863247683,None,s,1,0.5504171221891738,252.9085863247683,None,None,None,11_YA,25,F,11,2021_Nov_12_1341,Partial repeat,2021.2.3,120.12567518716294,
3,8,0,1,1,2,2,2,2,0,1,1,1,0,0,0,0,40,40,40,1,0,1,0,,,,,,,,,0.9092092293634946,253.52474279640774,None,"[87. 93. 93. 87. 93. 93. 87. 93. 87. 93. 87. 87. 87. 87. 93. 93. 87. 93.
 93. 87. 93. 93. 93. 93. 93. 93. 93. 93. 93. 93. 87. 87. 93. 93.]",254.52391501104285,None,l,1,0.7591437952232809,254.52391501104285,None,None,None,11_YA,25,F,11,2021_Nov_12_1341,Partial repeat,2021.2.3,120.12567518716294,
3,8,0,1,1,2,2,2,2,0,1,1,1,0,0,0,0,40,40,40,,,,,,,,,,,,,,,,,,,,,,,,,,11_YA,25,F,11,2021_Nov_12_1341,Partial repeat,2021.2.3,120.12567518716294,
8,4,0,1,1,3,2,2,2,0,1,0,1,0,0,0,0,41,41,41,0,0,0,0,,,,,,,255.30660226981945,None,0.9936130310028406,255.74789974720625,None,"[93. 93. 93. 93. 93. 93. 93. 87. 87. 87. 93. 87. 93. 87. 93. 93. 93. 87.
 93. 93. 93. 93. 87. 87. 87. 93. 93. 93. 87. 93. 87. 93. 87. 93.]",256.82202710876845,None,s,1,1.565176140751646,256.82202710876845,None,None,None,11_YA,25,F,11,2021_Nov_12_1341,Partial repeat,2021.2.3,120.12567518716294,
8,4,0,1,1,3,2,2,2,0,1,0,1,0,0,0,0,41,41,41,1,0,1,0,,,,,,,,,0.8635819088814045,258.4456730975853,None,"[93. 87. 87. 87. 87. 87. 93. 87. 87. 93. 87. 87. 93. 87. 87. 87. 93. 87.
 87. 87. 93. 87. 93. 93. 87. 87. 93. 87. 87. 87. 87. 93. 87. 93.]",259.386564219275,None,l,1,0.6487545597037752,259.386564219275,None,None,None,11_YA,25,F,11,2021_Nov_12_1341,Partial repeat,2021.2.3,120.12567518716294,
8,4,0,1,1,3,2,2,2,0,1,0,1,0,0,0,0,41,41,41,,,,,,,,,,,,,,,,,,,,,,,,,,11_YA,25,F,11,2021_Nov_12_1341,Partial repeat,2021.2.3,120.12567518716294,
3,6,0,1,1,2,2,2,3,1,1,1,0,1,0,0,0,42,42,42,0,0,0,0,,,,,,,260.0526819155357,None,0.7294301213030012,260.47732939314847,None,"[93. 93. 93. 93. 87. 93. 93. 93. 87. 87. 87. 93. 87. 93. 93. 93. 93. 87.
 87. 93. 93. 87. 93. 93. 93. 93. 87. 87. 87. 87. 93. 87. 87. 93.]",261.2850028768835,None,l,1,0.7814564755099127,261.2850028768835,None,None,None,11_YA,25,F,11,2021_Nov_12_1341,Partial repeat,2021.2.3,120.12567518716294,
3,6,0,1,1,2,2,2,3,1,1,1,0,1,0,0,0,42,42,42,1,0,1,0,,,,,,,,,0.9561711719492014,262.1259834160692,None,"[93. 87. 87. 87. 93. 87. 93. 87. 93. 87. 87. 87. 93. 93. 93. 87. 93. 87.
 87. 93. 87. 87. 87. 87. 93. 87. 87. 93. 87. 87. 93. 87. 87. 87.]",263.1584514608603,None,l,1,0.7160097953428703,263.1584514608603,None,None,None,11_YA,25,F,11,2021_Nov_12_1341,Partial repeat,2021.2.3,120.12567518716294,
3,6,0,1,1,2,2,2,3,1,1,1,0,1,0,0,0,42,42,42,,,,,,,,,,,,,,,,,,,,,,,,,,11_YA,25,F,11,2021_Nov_12_1341,Partial repeat,2021.2.3,120.12567518716294,
2,1,0,1,1,2,2,2,3,1,0,1,0,0,0,0,0,43,43,43,0,0,0,0,,,,,,,263.891164345383,None,0.9831910003007206,265.24838403852846,None,"[87. 93. 87. 93. 93. 93. 93. 93. 93. 93. 87. 93. 93. 93. 93. 93. 93. 93.
 93. 93. 87. 87. 87. 93. 87. 93. 93. 87. 93. 87. 93. 93. 93. 93.]",266.3141719676796,None,l,1,0.6963963175476238,266.3141719676796,None,None,None,11_YA,25,F,11,2021_Nov_12_1341,Partial repeat,2021.2.3,120.12567518716294,
2,1,0,1,1,2,2,2,3,1,0,1,0,0,0,0,0,43,43,43,1,0,1,0,,,,,,,,,0.8525800467480823,267.0802060194528,None,"[93. 93. 93. 87. 93. 93. 93. 87. 93. 87. 87. 87. 93. 87. 87. 93. 87. 87.
 87. 93. 93. 93. 87. 93. 93. 93. 87. 87. 87. 87. 93. 87. 87. 87.]",268.0127621988495,None,s,1,0.5979373261170622,268.0127621988495,None,None,None,11_YA,25,F,11,2021_Nov_12_1341,Partial repeat,2021.2.3,120.12567518716294,
2,1,0,1,1,2,2,2,3,1,0,1,0,0,0,0,0,43,43,43,,,,,,,,,,,,,,,,,,,,,,,,,,11_YA,25,F,11,2021_Nov_12_1341,Partial repeat,2021.2.3,120.12567518716294,
6,2,0,1,1,2,2,3,2,0,0,1,0,1,0,0,0,44,44,44,0,0,0,0,,,,,,,268.6206013679466,None,0.9521462026985885,269.24507610429646,None,"[87. 93. 87. 87. 93. 93. 93. 87. 87. 87. 93. 87. 87. 93. 93. 87. 93. 87.
 93. 87. 87. 87. 93. 87. 93. 87. 93. 93. 93. 93. 87. 87. 93. 87.]",270.2775611473926,None,s,1,0.6371963539813805,270.2775611473926,None,None,None,11_YA,25,F,11,2021_Nov_12_1341,Partial repeat,2021.2.3,120.12567518716294,
6,2,0,1,1,2,2,3,2,0,0,1,0,1,0,0,0,44,44,44,1,0,1,0,,,,,,,,,0.752101109301546,270.97698076754114,None,"[87. 93. 87. 87. 87. 87. 87. 87. 87. 93. 87. 87. 93. 93. 93. 93. 87. 93.
 87. 93. 93. 87. 93. 93. 93. 93. 93. 87. 93. 87. 87. 87. 87. 93.]",271.81795296793644,None,s,1,0.712875051384799,271.81795296793644,None,None,None,11_YA,25,F,11,2021_Nov_12_1341,Partial repeat,2021.2.3,120.12567518716294,
6,2,0,1,1,2,2,3,2,0,0,1,0,1,0,0,0,44,44,44,,,,,,,,,,,,,,,,,,,,,,,,,,11_YA,25,F,11,2021_Nov_12_1341,Partial repeat,2021.2.3,120.12567518716294,
6,1,0,1,1,3,2,3,3,0,1,0,1,0,0,0,0,45,45,45,0,0,0,0,,,,,,,272.550684454377,None,0.8155876949600207,273.31671594036925,None,"[87. 93. 87. 93. 93. 87. 93. 93. 93. 93. 93. 87. 93. 87. 93. 87. 87. 93.
 93. 87. 93. 93. 87. 93. 87. 87. 87. 87. 93. 93. 93. 93. 93. 93.]",274.20765353478146,None,s,1,0.8841913423675578,274.20765353478146,None,None,None,11_YA,25,F,11,2021_Nov_12_1341,Partial repeat,2021.2.3,120.12567518716294,
6,1,0,1,1,3,2,3,3,0,1,0,1,0,0,0,0,45,45,45,1,0,1,0,,,,,,,,,0.7389252465301457,275.1651811858919,None,"[87. 87. 93. 87. 93. 87. 93. 93. 93. 93. 87. 93. 93. 93. 93. 87. 93. 93.
 87. 93. 93. 87. 87. 87. 87. 87. 93. 87. 93. 87. 87. 93. 93. 93.]",275.9895017828976,None,l,1,0.6685376998239008,275.9895017828976,None,None,None,11_YA,25,F,11,2021_Nov_12_1341,Partial repeat,2021.2.3,120.12567518716294,
6,1,0,1,1,3,2,3,3,0,1,0,1,0,0,0,0,45,45,45,,,,,,,,,,,,,,,,,,,,,,,,,,11_YA,25,F,11,2021_Nov_12_1341,Partial repeat,2021.2.3,120.12567518716294,
4,6,0,1,1,2,2,3,3,1,1,1,1,1,0,0,0,46,46,46,0,0,0,0,,,,,,,276.6806012139996,None,0.7301289516232835,277.17186055745515,None,"[93. 93. 93. 93. 93. 93. 87. 93. 93. 93. 87. 93. 87. 93. 93. 93. 87. 93.
 87. 93. 93. 93. 87. 87. 93. 93. 93. 93. 93. 87. 87. 87. 87. 93.]",277.97952634384455,None,l,1,0.7591540583507594,277.97952634384455,None,None,None,11_YA,25,F,11,2021_Nov_12_1341,Partial repeat,2021.2.3,120.12567518716294,
4,6,0,1,1,2,2,3,3,1,1,1,1,1,0,0,0,46,46,46,1,0,1,0,,,,,,,,,0.9909912425798548,278.81216520556154,None,"[93. 93. 87. 87. 87. 87. 93. 93. 87. 87. 93. 87. 87. 87. 93. 87. 93. 93.
 87. 93. 93. 87. 93. 87. 87. 93. 87. 93. 87. 93. 93. 87. 87. 93.]",279.87795570049366,None,l,1,0.6202407054443029,279.87795570049366,None,None,None,11_YA,25,F,11,2021_Nov_12_1341,Partial repeat,2021.2.3,120.12567518716294,
4,6,0,1,1,2,2,3,3,1,1,1,1,1,0,0,0,46,46,46,,,,,,,,,,,,,,,,,,,,,,,,,,11_YA,25,F,11,2021_Nov_12_1341,Partial repeat,2021.2.3,120.12567518716294,
4,2,0,1,1,3,3,3,2,1,0,1,0,0,0,0,0,47,47,47,0,0,0,0,,,,,,,280.5107663413046,None,0.7455212351825121,280.9936965154766,None,"[87. 93. 87. 87. 93. 87. 87. 93. 87. 87. 87. 87. 93. 93. 93. 87. 87. 93.
 93. 93. 87. 87. 93. 93. 87. 93. 87. 93. 93. 87. 93. 87. 93. 87.]",281.818022244046,None,l,1,0.8722777758603115,281.818022244046,None,None,None,11_YA,25,F,11,2021_Nov_12_1341,Partial repeat,2021.2.3,120.12567518716294,
4,2,0,1,1,3,3,3,2,1,0,1,0,0,0,0,0,47,47,47,1,0,1,0,,,,,,,,,0.9451007282728348,282.7505755369384,None,"[87. 87. 87. 87. 93. 87. 87. 87. 93. 93. 87. 87. 87. 87. 87. 93. 93. 93.
 93. 93. 87. 93. 93. 87. 93. 87. 87. 87. 87. 87. 93. 93. 87. 87.]",283.7747381459276,None,s,1,0.5636501420049171,283.7747381459276,None,None,None,11_YA,25,F,11,2021_Nov_12_1341,Partial repeat,2021.2.3,120.12567518716294,
4,2,0,1,1,3,3,3,2,1,0,1,0,0,0,0,0,47,47,47,,,,,,,,,,,,,,,,,,,,,,,,,,11_YA,25,F,11,2021_Nov_12_1341,Partial repeat,2021.2.3,120.12567518716294,
8,7,0,1,1,2,2,3,3,0,0,1,1,1,0,0,0,48,48,48,0,0,0,0,,,,,,,284.35758756211635,None,0.9613023472664961,284.8488475470167,None,"[93. 93. 93. 93. 93. 87. 93. 87. 93. 93. 87. 93. 93. 87. 93. 87. 87. 87.
 87. 93. 87. 93. 93. 87. 93. 93. 93. 93. 93. 93. 87. 87. 93. 87.]",285.88965630710936,None,s,1,0.5927906884780896,285.88965630710936,None,None,None,11_YA,25,F,11,2021_Nov_12_1341,Partial repeat,2021.2.3,120.12567518716294,
8,7,0,1,1,2,2,3,3,0,0,1,1,1,0,0,0,48,48,48,1,0,1,0,,,,,,,,,0.90401893040042,286.55576566457967,None,"[87. 87. 87. 93. 93. 87. 87. 93. 87. 93. 93. 87. 93. 93. 87. 93. 87. 87.
 93. 87. 87. 93. 93. 93. 93. 93. 87. 93. 93. 93. 93. 93. 93. 87.]",287.5382910866665,None,s,1,1.2162564311220194,287.5382910866665,None,None,None,11_YA,25,F,11,2021_Nov_12_1341,Partial repeat,2021.2.3,120.12567518716294,
8,7,0,1,1,2,2,3,3,0,0,1,1,1,0,0,0,48,48,48,,,,,,,,,,,,,,,,,,,,,,,,,,11_YA,25,F,11,2021_Nov_12_1341,Partial repeat,2021.2.3,120.12567518716294,
8,8,0,1,1,2,2,3,3,1,0,1,1,0,0,0,0,49,49,49,0,0,0,0,,,,,,,288.7706049921135,None,0.8339184159516414,289.26187331580513,None,"[93. 87. 93. 87. 93. 93. 87. 87. 93. 93. 93. 93. 87. 87. 93. 93. 93. 93.
 87. 87. 87. 93. 93. 87. 93. 87. 93. 87. 93. 93. 87. 87. 87. 93.]",290.1861016088096,None,l,1,0.9525505056408292,290.1861016088096,None,None,None,11_YA,25,F,11,2021_Nov_12_1341,Partial repeat,2021.2.3,120.12567518716294,
8,8,0,1,1,2,2,3,3,1,0,1,1,0,0,0,0,49,49,49,1,0,1,0,,,,,,,,,0.8451448170416663,291.21025299250414,None,"[87. 93. 87. 87. 87. 87. 87. 87. 87. 87. 93. 87. 93. 93. 93. 93. 93. 87.
 87. 93. 93. 93. 93. 87. 87. 93. 93. 93. 87. 93. 87. 93. 87. 93.]",292.14282103864207,None,s,1,0.6429696838331438,292.14282103864207,None,None,None,11_YA,25,F,11,2021_Nov_12_1341,Partial repeat,2021.2.3,120.12567518716294,
8,8,0,1,1,2,2,3,3,1,0,1,1,0,0,0,0,49,49,49,,,,,,,,,,,,,,,,,,,,,,,,,,11_YA,25,F,11,2021_Nov_12_1341,Partial repeat,2021.2.3,120.12567518716294,
2,5,0,1,1,2,2,3,2,0,1,1,0,0,0,0,0,50,50,50,0,0,0,0,,,,,,,292.8006182251338,None,0.7321103228049626,293.3251698707936,None,"[87. 93. 93. 87. 87. 87. 93. 93. 93. 87. 93. 93. 93. 87. 93. 87. 87. 93.
 87. 87. 93. 93. 93. 93. 93. 93. 87. 87. 87. 93. 93. 93. 93. 87.]",294.14116867513985,None,s,1,0.6126431047068763,294.14116867513985,None,None,None,11_YA,25,F,11,2021_Nov_12_1341,Partial repeat,2021.2.3,120.12567518716294,
2,5,0,1,1,2,2,3,2,0,1,1,0,0,0,0,0,50,50,50,1,0,1,0,,,,,,,,,0.8118231800845175,294.8239357297316,None,"[93. 93. 87. 93. 87. 87. 87. 93. 93. 87. 87. 93. 87. 93. 93. 93. 93. 87.
 87. 87. 87. 87. 87. 87. 87. 87. 93. 87. 93. 87. 87. 87. 93. 87.]",295.7148678718577,None,l,1,0.799036571200304,295.7148678718577,None,None,None,11_YA,25,F,11,2021_Nov_12_1341,Partial repeat,2021.2.3,120.12567518716294,
2,5,0,1,1,2,2,3,2,0,1,1,0,0,0,0,0,50,50,50,,,,,,,,,,,,,,,,,,,,,,,,,,11_YA,25,F,11,2021_Nov_12_1341,Partial repeat,2021.2.3,120.12567518716294,
6,8,0,1,1,2,3,3,3,0,0,0,1,1,0,0,0,51,51,51,0,0,0,0,,,,,,,296.53918269585483,None,0.7111778486317764,297.0720712081438,None,"[87. 87. 87. 93. 93. 87. 87. 93. 93. 87. 87. 87. 87. 93. 93. 87. 93. 93.
 93. 93. 93. 93. 87. 93. 93. 93. 93. 87. 93. 87. 93. 87. 87. 87.]",297.86308956053927,None,s,1,0.5389060627076105,297.86308956053927,None,None,None,11_YA,25,F,11,2021_Nov_12_1341,Partial repeat,2021.2.3,120.12567518716294,
6,8,0,1,1,2,3,3,3,0,0,0,1,1,0,0,0,51,51,51,1,0,1,0,,,,,,,,,0.8421484576116606,298.4625925044538,None,"[87. 87. 87. 87. 93. 87. 87. 93. 93. 87. 87. 93. 93. 87. 87. 87. 87. 87.
 93. 93. 87. 93. 93. 93. 93. 93. 87. 93. 87. 87. 87. 87. 93. 87.]",299.38682624974444,None,s,1,0.8074279606926211,299.38682624974444,None,None,None,11_YA,25,F,11,2021_Nov_12_1341,Partial repeat,2021.2.3,120.12567518716294,
6,8,0,1,1,2,3,3,3,0,0,0,1,1,0,0,0,51,51,51,,,,,,,,,,,,,,,,,,,,,,,,,,11_YA,25,F,11,2021_Nov_12_1341,Partial repeat,2021.2.3,120.12567518716294,
4,7,0,1,1,2,3,2,3,1,0,0,0,0,0,0,0,52,52,52,0,0,0,0,,,,,,,300.20282794059494,None,0.8231933533932252,300.6108302292723,None,"[93. 87. 87. 87. 93. 93. 93. 93. 93. 93. 87. 87. 87. 93. 87. 93. 93. 93.
 93. 93. 87. 93. 93. 87. 93. 87. 87. 87. 93. 93. 93. 87. 87. 87.]",301.5100713351494,None,l,1,1.036107756893216,301.5100713351494,None,None,None,11_YA,25,F,11,2021_Nov_12_1341,Partial repeat,2021.2.3,120.12567518716294,
4,7,0,1,1,2,3,2,3,1,0,0,0,0,0,0,0,52,52,52,1,0,1,0,,,,,,,,,0.9263667672573185,302.61749324397624,None,"[93. 93. 87. 93. 87. 87. 87. 93. 93. 87. 87. 93. 87. 93. 87. 87. 93. 87.
 87. 93. 87. 87. 87. 87. 93. 93. 93. 93. 87. 93. 87. 87. 93. 87.]",303.62499109994496,None,s,1,1.0493815084955713,303.62499109994496,None,None,None,11_YA,25,F,11,2021_Nov_12_1341,Partial repeat,2021.2.3,120.12567518716294,
4,7,0,1,1,2,3,2,3,1,0,0,0,0,0,0,0,52,52,52,,,,,,,,,,,,,,,,,,,,,,,,,,11_YA,25,F,11,2021_Nov_12_1341,Partial repeat,2021.2.3,120.12567518716294,
3,1,0,1,1,3,2,2,3,1,0,0,0,0,0,0,0,53,53,53,0,0,0,0,,,,,,,304.69077710475904,None,0.8371841965951563,305.09044894126237,None,"[93. 87. 87. 93. 87. 87. 93. 93. 87. 93. 87. 93. 93. 87. 93. 87. 93. 93.
 93. 93. 87. 87. 87. 87. 87. 93. 87. 87. 87. 87. 87. 87. 93. 87.]",306.0146830072763,None,l,1,0.9787185938566836,306.0146830072763,None,None,None,11_YA,25,F,11,2021_Nov_12_1341,Partial repeat,2021.2.3,120.12567518716294,
3,1,0,1,1,3,2,2,3,1,0,0,0,0,0,0,0,53,53,53,1,0,1,0,,,,,,,,,0.738149363669008,307.0554850321914,None,"[87. 87. 93. 93. 93. 87. 93. 93. 87. 93. 87. 87. 87. 87. 87. 93. 93. 87.
 93. 93. 93. 87. 87. 87. 87. 93. 87. 87. 87. 93. 93. 93. 93. 93.]",307.87981076076085,None,s,1,0.6176739614411417,307.87981076076085,None,None,None,11_YA,25,F,11,2021_Nov_12_1341,Partial repeat,2021.2.3,120.12567518716294,
3,1,0,1,1,3,2,2,3,1,0,0,0,0,0,0,0,53,53,53,,,,,,,,,,,,,,,,,,,,,,,,,,11_YA,25,F,11,2021_Nov_12_1341,Partial repeat,2021.2.3,120.12567518716294,
5,5,0,1,1,3,3,3,2,0,0,1,0,1,0,0,0,54,54,54,0,0,0,0,,,,,,,308.5126181943442,None,0.8456309993389701,309.0871487043769,None,"[87. 87. 93. 87. 87. 87. 93. 87. 87. 93. 87. 93. 87. 93. 87. 93. 87. 87.
 87. 93. 93. 93. 93. 93. 87. 87. 93. 93. 87. 87. 87. 93. 87. 93.]",310.0197077702778,None,s,1,0.7178321418905398,310.0197077702778,None,None,None,11_YA,25,F,11,2021_Nov_12_1341,Partial repeat,2021.2.3,120.12567518716294,
5,5,0,1,1,3,3,3,2,0,0,1,0,1,0,0,0,54,54,54,1,0,1,0,,,,,,,,,0.9438829746574278,310.8107136144881,None,"[87. 93. 87. 93. 93. 93. 87. 93. 87. 93. 93. 87. 87. 87. 87. 87. 87. 87.
 93. 87. 93. 87. 87. 87. 87. 93. 87. 87. 87. 87. 93. 87. 87. 93.]",311.8432005819195,None,s,1,0.5264328350367578,311.8432005819195,None,None,None,11_YA,25,F,11,2021_Nov_12_1341,Partial repeat,2021.2.3,120.12567518716294,
5,5,0,1,1,3,3,3,2,0,0,1,0,1,0,0,0,54,54,54,,,,,,,,,,,,,,,,,,,,,,,,,,11_YA,25,F,11,2021_Nov_12_1341,Partial repeat,2021.2.3,120.12567518716294,
7,5,0,1,1,3,3,2,3,0,1,1,0,0,0,0,0,55,55,55,0,0,0,0,,,,,,,312.40106633893083,None,0.8085282307716906,312.9089846623983,None,"[93. 93. 87. 93. 93. 87. 93. 93. 93. 93. 87. 93. 87. 93. 87. 93. 87. 93.
 87. 87. 87. 87. 87. 87. 93. 87. 93. 87. 93. 87. 87. 93. 87. 93.]",313.7999158423563,None,s,1,0.8742778028008615,313.7999158423563,None,None,None,11_YA,25,F,11,2021_Nov_12_1341,Partial repeat,2021.2.3,120.12567518716294,
7,5,0,1,1,3,3,2,3,0,1,1,0,0,0,0,0,55,55,55,1,0,1,0,,,,,,,,,0.8133246506357598,314.7324717010306,None,"[93. 93. 93. 93. 93. 93. 87. 93. 87. 93. 87. 93. 93. 87. 93. 87. 87. 93.
 87. 93. 87. 93. 93. 93. 87. 87. 93. 87. 87. 87. 93. 93. 87. 87.]",315.631733653885,None,l,1,1.0420180353503383,315.631733653885,None,None,None,11_YA,25,F,11,2021_Nov_12_1341,Partial repeat,2021.2.3,120.12567518716294,
7,5,0,1,1,3,3,2,3,0,1,1,0,0,0,0,0,55,55,55,,,,,,,,,,,,,,,,,,,,,,,,,,11_YA,25,F,11,2021_Nov_12_1341,Partial repeat,2021.2.3,120.12567518716294,
5,2,0,1,1,2,3,2,2,0,1,0,1,0,0,0,0,56,56,56,0,0,0,0,,,,,,,316.7058443378646,None,0.8895516078613204,317.1804588131081,None,"[87. 93. 87. 87. 87. 87. 87. 93. 87. 87. 87. 87. 93. 87. 93. 93. 87. 93.
 93. 87. 93. 87. 87. 93. 93. 87. 87. 93. 87. 93. 87. 87. 93. 87.]",318.15464865145714,None,s,1,0.7112162734283629,318.15464865145714,None,None,None,11_YA,25,F,11,2021_Nov_12_1341,Partial repeat,2021.2.3,120.12567518716294,
5,2,0,1,1,2,3,2,2,0,1,0,1,0,0,0,0,56,56,56,1,0,1,0,,,,,,,,,0.8393945350126744,318.9290028922778,None,"[93. 93. 87. 87. 87. 87. 87. 87. 93. 87. 93. 87. 87. 87. 93. 93. 87. 93.
 93. 87. 93. 87. 93. 93. 93. 93. 87. 93. 93. 87. 87. 87. 93. 87.]",319.8532430520236,None,l,1,0.9807333740436661,319.8532430520236,None,None,None,11_YA,25,F,11,2021_Nov_12_1341,Partial repeat,2021.2.3,120.12567518716294,
5,2,0,1,1,2,3,2,2,0,1,0,1,0,0,0,0,56,56,56,,,,,,,,,,,,,,,,,,,,,,,,,,11_YA,25,F,11,2021_Nov_12_1341,Partial repeat,2021.2.3,120.12567518716294,
2,4,0,1,1,3,2,3,2,0,0,0,0,1,0,0,0,57,57,57,0,0,0,0,,,,,,,320.85241719099486,None,0.7890792529593614,321.3769774961693,None,"[87. 87. 87. 87. 87. 93. 87. 93. 93. 93. 87. 93. 93. 87. 93. 87. 87. 93.
 87. 93. 87. 87. 87. 87. 87. 87. 87. 93. 93. 87. 87. 87. 93. 93.]",322.2512612421342,None,s,1,1.5419404204503735,322.2512612421342,None,None,None,11_YA,25,F,11,2021_Nov_12_1341,Partial repeat,2021.2.3,120.12567518716294,
2,4,0,1,1,3,2,3,2,0,0,0,0,1,0,0,0,57,57,57,1,0,1,0,,,,,,,,,0.9001501594159174,323.8665921734673,None,"[93. 93. 87. 87. 87. 93. 93. 93. 93. 93. 93. 87. 87. 87. 93. 93. 93. 87.
 87. 93. 87. 87. 93. 93. 87. 93. 93. 87. 93. 93. 93. 93. 87. 87.]",324.8407890677172,None,s,1,1.0168797878186524,324.8407890677172,None,None,None,11_YA,25,F,11,2021_Nov_12_1341,Partial repeat,2021.2.3,120.12567518716294,
2,4,0,1,1,3,2,3,2,0,0,0,0,1,0,0,0,57,57,57,,,,,,,,,,,,,,,,,,,,,,,,,,11_YA,25,F,11,2021_Nov_12_1341,Partial repeat,2021.2.3,120.12567518716294,
4,5,0,1,1,2,2,3,2,1,0,1,0,0,0,0,0,58,58,58,0,0,0,0,,,,,,,325.8816026386503,None,0.8396958920214088,326.5393776952742,None,"[87. 87. 87. 87. 87. 93. 87. 93. 87. 87. 87. 93. 93. 93. 93. 93. 87. 93.
 87. 93. 87. 87. 93. 93. 87. 87. 87. 87. 87. 87. 87. 93. 87. 93.]",327.4636201000785,None,l,1,0.6336642345622749,327.4636201000785,None,None,None,11_YA,25,F,11,2021_Nov_12_1341,Partial repeat,2021.2.3,120.12567518716294,
4,5,0,1,1,2,2,3,2,1,0,1,0,0,0,0,0,58,58,58,1,0,1,0,,,,,,,,,0.8243347296048794,328.16303939950467,None,"[93. 87. 87. 93. 93. 93. 87. 87. 87. 87. 87. 87. 93. 93. 93. 93. 87. 87.
 87. 93. 93. 87. 93. 93. 87. 87. 93. 87. 87. 93. 93. 87. 93. 93.]",329.07062539007893,None,s,1,1.37876727956791,329.07062539007893,None,None,None,11_YA,25,F,11,2021_Nov_12_1341,Partial repeat,2021.2.3,120.12567518716294,
4,5,0,1,1,2,2,3,2,1,0,1,0,0,0,0,0,58,58,58,,,,,,,,,,,,,,,,,,,,,,,,,,11_YA,25,F,11,2021_Nov_12_1341,Partial repeat,2021.2.3,120.12567518716294,
1,6,0,1,1,3,3,2,3,1,1,1,0,1,0,0,0,59,59,59,0,0,0,0,,,,,,,330.46113834759853,None,0.9610513533300078,330.9773909719124,None,"[93. 87. 93. 93. 93. 87. 87. 93. 87. 87. 93. 93. 87. 87. 87. 87. 87. 93.
 93. 93. 87. 93. 93. 87. 93. 93. 87. 93. 93. 87. 93. 93. 93. 87.]",332.01819427971805,None,l,1,1.5193304301938042,332.01819427971805,None,None,None,11_YA,25,F,11,2021_Nov_12_1341,Partial repeat,2021.2.3,120.12567518716294,
1,6,0,1,1,3,3,2,3,1,1,1,0,1,0,0,0,59,59,59,1,0,1,0,,,,,,,,,0.9061880461689567,333.60854123115223,None,"[87. 87. 93. 87. 93. 93. 87. 93. 93. 93. 87. 93. 87. 87. 87. 87. 87. 87.
 87. 87. 93. 87. 87. 93. 93. 87. 93. 93. 87. 87. 93. 87. 87. 87.]",334.59938716300894,None,l,1,0.9222255301274345,334.59938716300894,None,None,None,11_YA,25,F,11,2021_Nov_12_1341,Partial repeat,2021.2.3,120.12567518716294,
1,6,0,1,1,3,3,2,3,1,1,1,0,1,0,0,0,59,59,59,,,,,,,,,,,,,,,,,,,,,,,,,,11_YA,25,F,11,2021_Nov_12_1341,Partial repeat,2021.2.3,120.12567518716294,
2,2,0,1,1,3,2,3,2,1,1,0,0,1,0,0,0,60,60,60,0,0,0,0,,,,,,,335.540286623489,None,0.9286993850611531,336.27299598006175,None,"[87. 87. 87. 87. 87. 87. 93. 93. 93. 87. 93. 93. 93. 87. 87. 87. 87. 87.
 93. 93. 87. 87. 87. 87. 87. 93. 87. 93. 93. 93. 93. 93. 93. 87.]",337.28883711711387,None,l,1,1.0644541938872862,337.28883711711387,None,None,None,11_YA,25,F,11,2021_Nov_12_1341,Partial repeat,2021.2.3,120.12567518716294,
2,2,0,1,1,3,2,3,2,1,1,0,0,1,0,0,0,60,60,60,1,0,1,0,,,,,,,,,0.9905867638813713,338.42122729042603,None,"[87. 87. 93. 93. 93. 87. 87. 87. 93. 93. 93. 87. 93. 93. 93. 87. 93. 87.
 93. 93. 87. 93. 87. 93. 87. 87. 87. 93. 93. 87. 93. 93. 93. 93.]",339.4953408609099,None,l,1,0.7134850660158918,339.4953408609099,None,None,None,11_YA,25,F,11,2021_Nov_12_1341,Partial repeat,2021.2.3,120.12567518716294,
2,2,0,1,1,3,2,3,2,1,1,0,0,1,0,0,0,60,60,60,,,,,,,,,,,,,,,,,,,,,,,,,,11_YA,25,F,11,2021_Nov_12_1341,Partial repeat,2021.2.3,120.12567518716294,
5,4,0,1,1,2,3,2,3,0,0,0,0,1,0,0,0,61,61,61,0,0,0,0,,,,,,,340.23640055446594,None,0.7616386197861814,340.76927944507315,None,"[93. 93. 87. 93. 87. 93. 93. 87. 93. 87. 93. 87. 87. 93. 93. 87. 93. 87.
 87. 93. 93. 93. 93. 87. 93. 93. 87. 93. 93. 87. 87. 93. 87. 93.]",341.6185901157105,None,s,1,0.846330986326393,341.6185901157105,None,None,None,11_YA,25,F,11,2021_Nov_12_1341,Partial repeat,2021.2.3,120.12567518716294,
5,4,0,1,1,2,3,2,3,0,0,0,0,1,0,0,0,61,61,61,1,0,1,0,,,,,,,,,0.8275626289762085,342.5344902016004,None,"[87. 87. 87. 87. 93. 87. 87. 93. 93. 87. 93. 87. 87. 87. 87. 87. 93. 93.
 93. 87. 93. 87. 87. 87. 93. 93. 93. 93. 93. 93. 87. 87. 87. 87.]",343.4504031163988,None,s,1,1.1269422068762651,343.4504031163988,None,None,None,11_YA,25,F,11,2021_Nov_12_1341,Partial repeat,2021.2.3,120.12567518716294,
5,4,0,1,1,2,3,2,3,0,0,0,0,1,0,0,0,61,61,61,,,,,,,,,,,,,,,,,,,,,,,,,,11_YA,25,F,11,2021_Nov_12_1341,Partial repeat,2021.2.3,120.12567518716294,
1,4,0,1,1,2,3,2,2,1,1,0,1,1,0,0,0,62,62,62,0,0,0,0,,,,,,,344.5994506661091,None,0.7040449904518702,345.21560521341235,None,"[87. 87. 87. 93. 87. 87. 93. 87. 93. 93. 93. 87. 93. 87. 87. 87. 93. 93.
 87. 93. 93. 87. 87. 93. 93. 93. 93. 93. 93. 93. 87. 87. 87. 93.]",346.00662645231296,None,l,1,0.8905182396520104,346.00662645231296,None,None,None,11_YA,25,F,11,2021_Nov_12_1341,Partial repeat,2021.2.3,120.12567518716294,
1,4,0,1,1,2,3,2,2,1,1,0,1,1,0,0,0,62,62,62,1,0,1,0,,,,,,,,,0.9041729361238888,346.96416019715525,None,"[93. 93. 93. 87. 87. 87. 93. 93. 93. 87. 87. 93. 93. 87. 93. 93. 87. 87.
 93. 93. 93. 93. 87. 87. 87. 93. 87. 93. 87. 87. 93. 93. 87. 87.]",347.95501639213944,None,l,1,0.8141920030566325,347.95501639213944,None,None,None,11_YA,25,F,11,2021_Nov_12_1341,Partial repeat,2021.2.3,120.12567518716294,
1,4,0,1,1,2,3,2,2,1,1,0,1,1,0,0,0,62,62,62,,,,,,,,,,,,,,,,,,,,,,,,,,11_YA,25,F,11,2021_Nov_12_1341,Partial repeat,2021.2.3,120.12567518716294,
3,7,0,1,1,3,2,3,3,1,0,0,1,0,0,0,0,63,63,63,0,0,0,0,,,,,,,348.7876571781917,None,0.8594613963244732,349.62863258581456,None,"[93. 87. 87. 87. 93. 87. 93. 93. 93. 93. 93. 93. 93. 87. 93. 87. 93. 93.
 93. 93. 87. 87. 87. 87. 87. 93. 87. 87. 87. 93. 93. 87. 87. 93.]",350.57784999028263,None,l,1,0.9594704192504651,350.57784999028263,None,None,None,11_YA,25,F,11,2021_Nov_12_1341,Partial repeat,2021.2.3,120.12567518716294,
3,7,0,1,1,3,2,3,3,1,0,0,1,0,0,0,0,63,63,63,1,0,1,0,,,,,,,,,0.9144514495430045,351.6103231666366,None,"[93. 93. 93. 87. 87. 93. 93. 87. 87. 87. 87. 93. 93. 87. 93. 93. 93. 93.
 93. 93. 87. 93. 87. 87. 93. 93. 93. 93. 87. 93. 93. 93. 87. 87.]",352.60949922994496,None,s,1,0.7359237903356188,352.60949922994496,None,None,None,11_YA,25,F,11,2021_Nov_12_1341,Partial repeat,2021.2.3,120.12567518716294,
3,7,0,1,1,3,2,3,3,1,0,0,1,0,0,0,0,63,63,63,,,,,,,,,,,,,,,,,,,,,,,,,,11_YA,25,F,11,2021_Nov_12_1341,Partial repeat,2021.2.3,120.12567518716294,
7,7,0,1,1,2,2,2,2,0,0,1,1,1,1,0,0,64,64,64,0,0,0,0,,,,,,,363.04256183053167,None,0.9255344018959399,366.97261829697527,None,"[87. 93. 93. 93. 93. 87. 87. 87. 93. 87. 87. 87. 93. 87. 93. 87. 87. 93.
 93. 93. 87. 87. 87. 93. 87. 87. 87. 87. 87. 87. 87. 87. 87. 93.]",367.9884523781275,None,s,1,1.7244537833630602,367.9884523781275,None,None,None,11_YA,25,F,11,2021_Nov_12_1341,Partial repeat,2021.2.3,120.12567518716294,
7,7,0,1,1,2,2,2,2,0,0,1,1,1,1,0,0,64,64,64,1,0,1,0,,,,,,,,,0.9819735386570069,369.7786371721495,None,"[87. 87. 87. 93. 87. 93. 93. 93. 87. 93. 93. 87. 93. 93. 93. 93. 93. 87.
 93. 93. 87. 93. 87. 87. 93. 87. 93. 93. 93. 93. 87. 93. 87. 87.]",370.84442445985496,None,s,1,0.8998076527859666,370.84442445985496,None,None,None,11_YA,25,F,11,2021_Nov_12_1341,Partial repeat,2021.2.3,120.12567518716294,
7,7,0,1,1,2,2,2,2,0,0,1,1,1,1,0,0,64,64,64,,,,,,,,,,,,,,,,,,,,,,,,,,11_YA,25,F,11,2021_Nov_12_1341,Partial repeat,2021.2.3,120.12567518716294,
7,7,0,1,1,2,2,3,3,0,0,1,1,1,1,0,0,65,65,65,0,0,0,0,,,,,,,371.760329998031,None,0.9303248530981969,372.9426865275291,None,"[93. 93. 87. 87. 87. 93. 93. 87. 87. 93. 93. 87. 87. 93. 93. 93. 87. 87.
 93. 93. 93. 87. 93. 93. 87. 87. 87. 93. 87. 87. 87. 87. 87. 93.]",373.95851451494855,None,s,1,0.6818476930948236,373.95851451494855,None,None,None,11_YA,25,F,11,2021_Nov_12_1341,Partial repeat,2021.2.3,120.12567518716294,
7,7,0,1,1,2,2,3,3,0,0,1,1,1,1,0,0,65,65,65,1,0,1,0,,,,,,,,,0.8916538194502979,374.70788894526504,None,"[93. 87. 93. 87. 93. 93. 87. 93. 87. 93. 87. 87. 93. 87. 93. 93. 87. 93.
 87. 93. 93. 87. 93. 93. 93. 87. 93. 93. 87. 87. 87. 93. 93. 93.]",375.6820855187916,None,s,1,1.24637838914623,375.6820855187916,None,None,None,11_YA,25,F,11,2021_Nov_12_1341,Partial repeat,2021.2.3,120.12567518716294,
7,7,0,1,1,2,2,3,3,0,0,1,1,1,1,0,0,65,65,65,,,,,,,,,,,,,,,,,,,,,,,,,,11_YA,25,F,11,2021_Nov_12_1341,Partial repeat,2021.2.3,120.12567518716294,
7,7,0,1,1,2,2,3,2,0,1,1,0,0,1,0,0,66,66,66,0,0,0,0,,,,,,,376.9477103283625,None,0.806979609761893,377.56386712072526,None,"[87. 87. 87. 93. 87. 87. 87. 93. 87. 87. 93. 87. 93. 93. 93. 87. 87. 93.
 93. 93. 87. 87. 93. 93. 87. 87. 87. 93. 93. 93. 93. 87. 87. 87.]",378.45479765923756,None,s,1,0.6503857555062496,378.45479765923756,None,None,None,11_YA,25,F,11,2021_Nov_12_1341,Partial repeat,2021.2.3,120.12567518716294,
7,7,0,1,1,2,2,3,2,0,1,1,0,0,1,0,0,66,66,66,1,0,1,0,,,,,,,,,0.9829326896875346,379.17920190073164,None,"[93. 93. 87. 87. 93. 87. 93. 93. 93. 93. 93. 93. 87. 87. 87. 93. 93. 93.
 93. 87. 93. 93. 87. 93. 87. 87. 87. 87. 87. 93. 93. 87. 93. 87.]",380.2366545668674,None,l,1,0.6759627517330955,380.2366545668674,None,None,None,11_YA,25,F,11,2021_Nov_12_1341,Partial repeat,2021.2.3,120.12567518716294,
7,7,0,1,1,2,2,3,2,0,1,1,0,0,1,0,0,66,66,66,,,,,,,,,,,,,,,,,,,,,,,,,,11_YA,25,F,11,2021_Nov_12_1341,Partial repeat,2021.2.3,120.12567518716294,
7,7,0,1,1,2,2,2,3,0,1,1,0,0,1,0,0,67,67,67,0,0,0,0,,,,,,,380.9360767527978,None,0.8604422262831053,381.502271999816,None,"[87. 87. 93. 87. 87. 93. 87. 93. 87. 93. 93. 93. 93. 93. 87. 93. 93. 87.
 93. 87. 93. 87. 87. 93. 93. 87. 87. 87. 87. 87. 87. 93. 93. 93.]",382.4514935736788,None,s,1,0.8612288778322181,382.4514935736788,None,None,None,11_YA,25,F,11,2021_Nov_12_1341,Partial repeat,2021.2.3,120.12567518716294,
7,7,0,1,1,2,2,2,3,0,1,1,0,0,1,0,0,67,67,67,1,0,1,0,,,,,,,,,0.9308114296681149,383.37571865945665,None,"[93. 93. 87. 93. 93. 93. 87. 87. 87. 93. 93. 87. 93. 87. 87. 93. 87. 87.
 93. 93. 87. 93. 93. 93. 87. 87. 93. 93. 93. 93. 87. 87. 93. 87.]",384.3915553063898,None,l,1,1.160370816241084,384.3915553063898,None,None,None,11_YA,25,F,11,2021_Nov_12_1341,Partial repeat,2021.2.3,120.12567518716294,
7,7,0,1,1,2,2,2,3,0,1,1,0,0,1,0,0,67,67,67,,,,,,,,,,,,,,,,,,,,,,,,,,11_YA,25,F,11,2021_Nov_12_1341,Partial repeat,2021.2.3,120.12567518716294,
7,7,0,1,1,2,3,2,3,1,0,0,0,0,1,0,0,68,68,68,0,0,0,0,,,,,,,385.5739095908284,None,0.8756255421212374,386.22337279719613,None,"[93. 87. 93. 87. 87. 93. 87. 87. 93. 93. 87. 93. 93. 87. 87. 93. 87. 93.
 87. 93. 93. 87. 87. 87. 93. 93. 87. 93. 87. 87. 93. 93. 87. 87.]",387.1892446915581,None,l,1,0.6515448474510777,387.1892446915581,None,None,None,11_YA,25,F,11,2021_Nov_12_1341,Partial repeat,2021.2.3,120.12567518716294,
7,7,0,1,1,2,3,2,3,1,0,0,0,0,1,0,0,68,68,68,1,0,1,0,,,,,,,,,0.8954205463201766,387.90531687726434,None,"[87. 87. 93. 93. 87. 87. 93. 87. 87. 93. 87. 93. 93. 93. 87. 87. 93. 87.
 87. 87. 93. 93. 93. 87. 93. 93. 93. 87. 93. 87. 87. 87. 87. 93.]",388.88783524345126,None,s,1,0.6163182664631677,388.88783524345126,None,None,None,11_YA,25,F,11,2021_Nov_12_1341,Partial repeat,2021.2.3,120.12567518716294,
7,7,0,1,1,2,3,2,3,1,0,0,0,0,1,0,0,68,68,68,,,,,,,,,,,,,,,,,,,,,,,,,,11_YA,25,F,11,2021_Nov_12_1341,Partial repeat,2021.2.3,120.12567518716294,
7,7,0,1,1,3,2,2,2,1,1,0,1,1,1,0,0,69,69,69,0,0,0,0,,,,,,,389.51230484823736,None,0.9886129995326265,390.0618613207753,None,"[87. 87. 93. 87. 87. 87. 93. 87. 93. 87. 87. 87. 93. 87. 93. 93. 93. 93.
 87. 87. 93. 87. 93. 93. 87. 87. 93. 87. 93. 87. 93. 93. 93. 87.]",391.13599766257266,None,l,1,0.5773902244563942,391.13599766257266,None,None,None,11_YA,25,F,11,2021_Nov_12_1341,Partial repeat,2021.2.3,120.12567518716294,
7,7,0,1,1,3,2,2,2,1,1,0,1,1,1,0,0,69,69,69,1,0,1,0,,,,,,,,,0.892943826061976,391.7771092490666,None,"[93. 93. 87. 93. 93. 87. 87. 87. 87. 93. 93. 87. 93. 87. 93. 93. 87. 93.
 87. 87. 93. 93. 87. 93. 87. 93. 93. 87. 93. 93. 93. 93. 87. 93.]",392.7513093505431,None,l,1,0.5608608164275211,392.7513093505431,None,None,None,11_YA,25,F,11,2021_Nov_12_1341,Partial repeat,2021.2.3,120.12567518716294,
7,7,0,1,1,3,2,2,2,1,1,0,1,1,1,0,0,69,69,69,,,,,,,,,,,,,,,,,,,,,,,,,,11_YA,25,F,11,2021_Nov_12_1341,Partial repeat,2021.2.3,120.12567518716294,
7,7,0,1,1,3,2,3,2,1,0,0,0,0,1,0,0,70,70,70,0,0,0,0,,,,,,,393.33416870913607,None,0.9797138993104979,393.79212837376326,None,"[93. 87. 93. 93. 93. 87. 93. 93. 87. 93. 87. 87. 87. 87. 93. 93. 87. 93.
 87. 87. 87. 93. 93. 93. 93. 87. 93. 93. 87. 87. 87. 93. 87. 93.]",394.8579114920731,None,l,1,0.5983478512116562,394.8579114920731,None,None,None,11_YA,25,F,11,2021_Nov_12_1341,Partial repeat,2021.2.3,120.12567518716294,
7,7,0,1,1,3,2,3,2,1,0,0,0,0,1,0,0,70,70,70,1,0,1,0,,,,,,,,,0.8902316813829926,395.5156849450832,None,"[87. 87. 87. 93. 93. 93. 93. 87. 87. 93. 93. 93. 93. 87. 93. 87. 87. 93.
 93. 87. 93. 87. 93. 87. 87. 93. 87. 93. 87. 87. 93. 93. 87. 87.]",396.4898956304096,None,s,1,0.6144532637927114,396.4898956304096,None,None,None,11_YA,25,F,11,2021_Nov_12_1341,Partial repeat,2021.2.3,120.12567518716294,
7,7,0,1,1,3,2,3,2,1,0,0,0,0,1,0,0,70,70,70,,,,,,,,,,,,,,,,,,,,,,,,,,11_YA,25,F,11,2021_Nov_12_1341,Partial repeat,2021.2.3,120.12567518716294,
7,7,0,1,1,3,2,3,3,0,1,0,1,0,1,0,0,71,71,71,0,0,0,0,,,,,,,397.1310280638809,None,0.8864130459997476,397.5723236169315,None,"[93. 87. 87. 93. 93. 87. 93. 93. 93. 87. 87. 87. 87. 93. 87. 93. 87. 87.
 87. 87. 93. 87. 93. 93. 93. 93. 93. 87. 87. 93. 87. 93. 87. 93.]",398.53818845539354,None,s,1,0.6302350671394379,398.53818845539354,None,None,None,11_YA,25,F,11,2021_Nov_12_1341,Partial repeat,2021.2.3,120.12567518716294,
7,7,0,1,1,3,2,3,3,0,1,0,1,0,1,0,0,71,71,71,1,0,1,0,,,,,,,,,0.9602629754688168,399.23761994228335,None,"[87. 93. 93. 87. 87. 87. 87. 87. 87. 87. 87. 87. 93. 87. 93. 93. 87. 93.
 87. 87. 87. 93. 93. 93. 93. 93. 87. 87. 87. 87. 87. 93. 93. 87.]",400.2867530608173,None,l,1,0.6420084778137607,400.2867530608173,None,None,None,11_YA,25,F,11,2021_Nov_12_1341,Partial repeat,2021.2.3,120.12567518716294,
7,7,0,1,1,3,2,3,3,0,1,0,1,0,1,0,0,71,71,71,,,,,,,,,,,,,,,,,,,,,,,,,,11_YA,25,F,11,2021_Nov_12_1341,Partial repeat,2021.2.3,120.12567518716294,
7,7,0,1,1,2,3,2,3,0,1,0,0,0,1,0,0,72,72,72,0,0,0,0,,,,,,,400.95285953178336,None,0.983287864952896,401.46910285513786,None,"[87. 87. 87. 87. 87. 87. 87. 87. 93. 93. 87. 87. 93. 87. 93. 93. 87. 93.
 87. 87. 93. 87. 93. 87. 87. 87. 87. 87. 87. 87. 87. 93. 93. 87.]",402.53488789778476,None,s,1,0.6327110466099839,402.53488789778476,None,None,None,11_YA,25,F,11,2021_Nov_12_1341,Partial repeat,2021.2.3,120.12567518716294,
7,7,0,1,1,2,3,2,3,0,1,0,0,0,1,0,0,72,72,72,1,0,1,0,,,,,,,,,0.7266215040510345,403.22597674503686,None,"[87. 87. 93. 87. 87. 87. 93. 87. 87. 87. 93. 93. 87. 87. 93. 93. 93. 93.
 87. 93. 87. 93. 87. 93. 93. 87. 93. 93. 87. 93. 87. 93. 87. 87.]",404.03365151166236,None,l,1,0.654014733189797,404.03365151166236,None,None,None,11_YA,25,F,11,2021_Nov_12_1341,Partial repeat,2021.2.3,120.12567518716294,
7,7,0,1,1,2,3,2,3,0,1,0,0,0,1,0,0,72,72,72,,,,,,,,,,,,,,,,,,,,,,,,,,11_YA,25,F,11,2021_Nov_12_1341,Partial repeat,2021.2.3,120.12567518716294,
7,7,0,1,1,2,2,3,3,1,0,1,1,0,1,0,0,73,73,73,0,0,0,0,,,,,,,404.69976054841027,None,0.9632518954732637,405.5324202571046,None,"[93. 93. 87. 93. 93. 87. 93. 87. 87. 93. 87. 87. 93. 87. 87. 87. 93. 93.
 87. 87. 87. 87. 93. 87. 87. 87. 93. 93. 93. 87. 87. 87. 93. 93.]",406.5815440746801,None,l,1,0.6982523399829006,406.5815440746801,None,None,None,11_YA,25,F,11,2021_Nov_12_1341,Partial repeat,2021.2.3,120.12567518716294,
7,7,0,1,1,2,2,3,3,1,0,1,1,0,1,0,0,73,73,73,1,0,1,0,,,,,,,,,0.9933887172195195,407.33924799500255,None,"[93. 87. 93. 87. 93. 87. 93. 87. 87. 93. 93. 87. 93. 93. 93. 93. 87. 93.
 93. 93. 87. 87. 87. 87. 87. 93. 93. 87. 93. 93. 93. 93. 93. 93.]",408.4216968285018,None,s,1,0.8422003982941533,408.4216968285018,None,None,None,11_YA,25,F,11,2021_Nov_12_1341,Partial repeat,2021.2.3,120.12567518716294,
7,7,0,1,1,2,2,3,3,1,0,1,1,0,1,0,0,73,73,73,,,,,,,,,,,,,,,,,,,,,,,,,,11_YA,25,F,11,2021_Nov_12_1341,Partial repeat,2021.2.3,120.12567518716294,
7,7,0,1,1,2,2,2,2,1,0,1,1,0,1,0,0,74,74,74,0,0,0,0,,,,,,,409.2876414627781,None,0.7332503207888224,410.0286896103162,None,"[93. 93. 87. 87. 93. 93. 87. 93. 87. 87. 93. 87. 87. 87. 93. 87. 93. 87.
 93. 93. 93. 87. 87. 93. 93. 87. 93. 87. 87. 93. 87. 93. 87. 93.]",410.844695149839,None,l,1,0.7553015369248897,410.844695149839,None,None,None,11_YA,25,F,11,2021_Nov_12_1341,Partial repeat,2021.2.3,120.12567518716294,
7,7,0,1,1,2,2,2,2,1,0,1,1,0,1,0,0,74,74,74,1,0,1,0,,,,,,,,,0.9672045136032775,411.66900355938105,None,"[93. 87. 93. 93. 87. 87. 93. 87. 87. 87. 93. 87. 87. 93. 93. 93. 93. 93.
 93. 87. 87. 93. 87. 93. 93. 87. 87. 87. 87. 87. 87. 93. 87. 93.]",412.7264652057538,None,s,1,0.6655857678224493,412.7264652057538,None,None,None,11_YA,25,F,11,2021_Nov_12_1341,Partial repeat,2021.2.3,120.12567518716294,
7,7,0,1,1,2,2,2,2,1,0,1,1,0,1,0,0,74,74,74,,,,,,,,,,,,,,,,,,,,,,,,,,11_YA,25,F,11,2021_Nov_12_1341,Partial repeat,2021.2.3,120.12567518716294,
7,7,0,1,1,3,2,2,3,1,1,0,0,1,1,0,0,75,75,75,0,0,0,0,,,,,,,413.4009027703396,None,0.983143380716907,413.9171393585166,None,"[87. 93. 87. 93. 93. 93. 93. 93. 93. 87. 87. 87. 93. 87. 93. 93. 87. 87.
 93. 87. 87. 93. 93. 87. 93. 87. 93. 87. 93. 87. 93. 87. 93. 93.]",414.9829215146583,None,l,1,0.8242864302428643,414.9829215146583,None,None,None,11_YA,25,F,11,2021_Nov_12_1341,Partial repeat,2021.2.3,120.12567518716294,
7,7,0,1,1,3,2,2,3,1,1,0,0,1,1,0,0,75,75,75,1,0,1,0,,,,,,,,,0.8903087754632146,415.8655334677378,None,"[87. 93. 93. 93. 93. 93. 87. 87. 93. 93. 93. 87. 87. 87. 87. 93. 87. 87.
 93. 87. 93. 93. 87. 93. 87. 93. 93. 87. 87. 87. 87. 87. 93. 87.]",416.8397380593324,None,l,1,0.7435310127548291,416.8397380593324,None,None,None,11_YA,25,F,11,2021_Nov_12_1341,Partial repeat,2021.2.3,120.12567518716294,
7,7,0,1,1,3,2,2,3,1,1,0,0,1,1,0,0,75,75,75,,,,,,,,,,,,,,,,,,,,,,,,,,11_YA,25,F,11,2021_Nov_12_1341,Partial repeat,2021.2.3,120.12567518716294,
7,7,0,1,1,3,2,3,3,1,0,0,1,0,1,0,0,76,76,76,0,0,0,0,,,,,,,417.5974294714688,None,0.7961728847257088,418.0470618911486,None,"[87. 87. 93. 87. 87. 93. 87. 87. 87. 93. 93. 87. 93. 87. 93. 93. 93. 87.
 93. 87. 87. 93. 87. 93. 87. 93. 93. 93. 87. 93. 93. 93. 93. 87.]",418.9296658261601,None,l,1,1.1497055025974987,418.9296658261601,None,None,None,11_YA,25,F,11,2021_Nov_12_1341,Partial repeat,2021.2.3,120.12567518716294,
7,7,0,1,1,3,2,3,3,1,0,0,1,0,1,0,0,76,76,76,1,0,1,0,,,,,,,,,0.807745253719838,420.14532876966314,None,"[93. 87. 87. 87. 87. 93. 93. 93. 87. 87. 93. 93. 87. 93. 93. 93. 87. 87.
 93. 87. 93. 87. 93. 93. 87. 93. 93. 93. 87. 87. 93. 87. 87. 87.]",421.03625866673065,None,s,1,0.627159015441066,421.03625866673065,None,None,None,11_YA,25,F,11,2021_Nov_12_1341,Partial repeat,2021.2.3,120.12567518716294,
7,7,0,1,1,3,2,3,3,1,0,0,1,0,1,0,0,76,76,76,,,,,,,,,,,,,,,,,,,,,,,,,,11_YA,25,F,11,2021_Nov_12_1341,Partial repeat,2021.2.3,120.12567518716294,
7,7,0,1,1,2,2,3,2,1,0,1,0,0,1,0,0,77,77,77,0,0,0,0,,,,,,,421.6857263632164,None,0.7720153885684709,422.2186074988822,None,"[87. 87. 87. 87. 87. 93. 93. 93. 87. 87. 87. 87. 87. 87. 87. 87. 87. 87.
 93. 93. 87. 93. 87. 87. 87. 93. 93. 93. 93. 87. 93. 87. 87. 93.]",423.07623579278516,None,l,1,0.651279930475539,423.07623579278516,None,None,None,11_YA,25,F,11,2021_Nov_12_1341,Partial repeat,2021.2.3,120.12567518716294,
7,7,0,1,1,2,2,3,2,1,0,1,0,0,1,0,0,77,77,77,1,0,1,0,,,,,,,,,0.7555726338528835,423.79231471366893,None,"[87. 87. 87. 93. 87. 93. 87. 93. 87. 87. 93. 87. 93. 93. 87. 93. 87. 93.
 87. 87. 93. 87. 87. 87. 93. 87. 87. 93. 87. 87. 93. 93. 93. 87.]",424.6332994222503,None,s,1,1.2863061239013405,424.6332994222503,None,None,None,11_YA,25,F,11,2021_Nov_12_1341,Partial repeat,2021.2.3,120.12567518716294,
7,7,0,1,1,2,2,3,2,1,0,1,0,0,1,0,0,77,77,77,,,,,,,,,,,,,,,,,,,,,,,,,,11_YA,25,F,11,2021_Nov_12_1341,Partial repeat,2021.2.3,120.12567518716294,
7,7,0,1,1,2,2,2,2,1,1,1,1,1,1,0,0,78,78,78,0,0,0,0,,,,,,,425.9405457033099,None,0.7729472537006752,426.4151431802484,None,"[87. 93. 87. 87. 93. 87. 93. 87. 87. 87. 93. 93. 87. 93. 93. 87. 87. 87.
 93. 93. 87. 93. 93. 93. 87. 87. 87. 87. 93. 87. 87. 87. 93. 87.]",427.26443685258164,None,l,1,0.7192625652651259,427.26443685258164,None,None,None,11_YA,25,F,11,2021_Nov_12_1341,Partial repeat,2021.2.3,120.12567518716294,
7,7,0,1,1,2,2,2,2,1,1,1,1,1,1,0,0,78,78,78,1,0,1,0,,,,,,,,,0.8961808289060779,428.0471205834074,None,"[93. 93. 93. 87. 93. 93. 87. 93. 93. 87. 93. 93. 93. 93. 87. 87. 93. 93.
 87. 93. 87. 87. 87. 93. 93. 87. 93. 87. 93. 87. 87. 93. 93. 93.]",429.0296665317501,None,l,1,0.49011451387923444,429.0296665317501,None,None,None,11_YA,25,F,11,2021_Nov_12_1341,Partial repeat,2021.2.3,120.12567518716294,
7,7,0,1,1,2,2,2,2,1,1,1,1,1,1,0,0,78,78,78,,,,,,,,,,,,,,,,,,,,,,,,,,11_YA,25,F,11,2021_Nov_12_1341,Partial repeat,2021.2.3,120.12567518716294,
7,7,0,1,1,3,3,3,3,0,1,1,1,0,1,0,0,79,79,79,0,0,0,0,,,,,,,429.537555669448,None,0.8957275013383263,430.2369897221197,None,"[93. 93. 87. 93. 93. 87. 93. 93. 93. 87. 87. 93. 87. 93. 93. 93. 87. 93.
 87. 93. 87. 87. 93. 87. 87. 87. 87. 87. 93. 93. 93. 87. 87. 87.]",431.2195161063755,None,s,1,0.6194321634438893,431.2195161063755,None,None,None,11_YA,25,F,11,2021_Nov_12_1341,Partial repeat,2021.2.3,120.12567518716294,
7,7,0,1,1,3,3,3,3,0,1,1,1,0,1,0,0,79,79,79,1,0,1,0,,,,,,,,,0.8975563334781924,431.91061104735854,None,"[93. 87. 93. 87. 87. 93. 87. 87. 93. 87. 93. 93. 87. 87. 87. 87. 93. 93.
 87. 87. 87. 93. 93. 87. 93. 93. 87. 93. 87. 93. 87. 93. 93. 93.]",432.89312267836885,None,l,1,0.5952394065170665,432.89312267836885,None,None,None,11_YA,25,F,11,2021_Nov_12_1341,Partial repeat,2021.2.3,120.12567518716294,
7,7,0,1,1,3,3,3,3,0,1,1,1,0,1,0,0,79,79,79,,,,,,,,,,,,,,,,,,,,,,,,,,11_YA,25,F,11,2021_Nov_12_1341,Partial repeat,2021.2.3,120.12567518716294,
7,7,0,1,1,3,2,2,2,0,0,0,1,1,1,0,0,80,80,80,0,0,0,0,,,,,,,433.5092775463945,None,0.7521114414600827,433.900625345178,None,"[87. 87. 93. 93. 93. 87. 87. 93. 87. 87. 93. 87. 87. 93. 93. 87. 93. 93.
 87. 87. 87. 87. 93. 87. 93. 87. 87. 93. 87. 87. 87. 93. 93. 87.]",434.7415927347329,None,s,1,0.6014287137504652,434.7415927347329,None,None,None,11_YA,25,F,11,2021_Nov_12_1341,Partial repeat,2021.2.3,120.12567518716294,
7,7,0,1,1,3,2,2,2,0,0,0,1,1,1,0,0,80,80,80,1,0,1,0,,,,,,,,,0.8805214717329485,435.4077165247254,None,"[93. 87. 87. 87. 87. 93. 93. 93. 87. 93. 87. 87. 93. 93. 87. 87. 87. 87.
 87. 93. 93. 87. 93. 87. 93. 93. 93. 87. 93. 87. 93. 93. 93. 93.]",436.36524417583587,None,s,1,0.897862790155159,436.36524417583587,None,None,None,11_YA,25,F,11,2021_Nov_12_1341,Partial repeat,2021.2.3,120.12567518716294,
7,7,0,1,1,3,2,2,2,0,0,0,1,1,1,0,0,80,80,80,,,,,,,,,,,,,,,,,,,,,,,,,,11_YA,25,F,11,2021_Nov_12_1341,Partial repeat,2021.2.3,120.12567518716294,
7,7,0,1,1,2,3,2,3,1,1,0,0,1,1,0,0,81,81,81,0,0,0,0,,,,,,,437.281158694248,None,0.9358661954019354,437.7058196422149,None,"[93. 87. 87. 93. 93. 93. 87. 93. 93. 93. 87. 87. 87. 93. 87. 93. 87. 87.
 87. 87. 93. 93. 93. 93. 93. 93. 93. 93. 87. 93. 87. 93. 87. 87.]",438.7299639700086,None,l,1,0.6615007224172587,438.7299639700086,None,None,None,11_YA,25,F,11,2021_Nov_12_1341,Partial repeat,2021.2.3,120.12567518716294,
7,7,0,1,1,2,3,2,3,1,1,0,0,1,1,0,0,81,81,81,1,0,1,0,,,,,,,,,0.7017827217302995,439.4626858347674,None,"[93. 87. 87. 93. 93. 87. 93. 93. 87. 87. 93. 87. 87. 93. 87. 93. 87. 87.
 93. 93. 93. 93. 87. 87. 87. 93. 87. 87. 87. 87. 93. 87. 87. 93.]",440.25370579077753,None,l,1,0.5615843669047536,440.25370579077753,None,None,None,11_YA,25,F,11,2021_Nov_12_1341,Partial repeat,2021.2.3,120.12567518716294,
7,7,0,1,1,2,3,2,3,1,1,0,0,1,1,0,0,81,81,81,,,,,,,,,,,,,,,,,,,,,,,,,,11_YA,25,F,11,2021_Nov_12_1341,Partial repeat,2021.2.3,120.12567518716294,
7,7,0,1,1,2,3,3,3,0,1,0,1,0,1,0,0,82,82,82,0,0,0,0,,,,,,,440.8448798861309,None,0.7889066350452364,441.4360677725617,None,"[93. 93. 93. 87. 87. 87. 93. 87. 93. 93. 93. 87. 93. 93. 93. 87. 87. 93.
 87. 93. 87. 87. 93. 93. 93. 87. 93. 87. 93. 93. 93. 93. 87. 93.]",442.3020271600835,None,s,1,0.4653226468954017,442.3020271600835,None,None,None,11_YA,25,F,11,2021_Nov_12_1341,Partial repeat,2021.2.3,120.12567518716294,
7,7,0,1,1,2,3,3,3,0,1,0,1,0,1,0,0,82,82,82,1,0,1,0,,,,,,,,,0.9392841907257217,442.8265743156262,None,"[93. 93. 93. 93. 93. 87. 87. 87. 93. 93. 93. 93. 93. 87. 87. 87. 87. 93.
 93. 87. 87. 87. 87. 93. 93. 87. 93. 93. 93. 87. 93. 87. 93. 87.]",443.842399095819,None,l,1,0.5254812506991584,443.842399095819,None,None,None,11_YA,25,F,11,2021_Nov_12_1341,Partial repeat,2021.2.3,120.12567518716294,
7,7,0,1,1,2,3,3,3,0,1,0,1,0,1,0,0,82,82,82,,,,,,,,,,,,,,,,,,,,,,,,,,11_YA,25,F,11,2021_Nov_12_1341,Partial repeat,2021.2.3,120.12567518716294,
7,7,0,1,1,2,3,3,2,1,1,0,0,1,1,0,0,83,83,83,0,0,0,0,,,,,,,444.383625116182,None,0.728173939592223,444.81660721536355,None,"[87. 93. 93. 87. 87. 87. 87. 87. 87. 93. 93. 93. 93. 87. 87. 93. 87. 87.
 93. 93. 87. 87. 87. 93. 93. 87. 93. 87. 87. 87. 87. 93. 87. 87.]",445.63259158718665,None,l,1,0.5269915340313673,445.63259158718665,None,None,None,11_YA,25,F,11,2021_Nov_12_1341,Partial repeat,2021.2.3,120.12567518716294,
7,7,0,1,1,2,3,3,2,1,1,0,0,1,1,0,0,83,83,83,1,0,1,0,,,,,,,,,0.8792794544652317,446.2237621545901,None,"[87. 87. 93. 93. 93. 93. 87. 87. 87. 93. 87. 87. 87. 93. 93. 93. 93. 87.
 93. 87. 87. 93. 87. 87. 87. 87. 93. 87. 87. 87. 93. 87. 87. 87.]",447.181308086896,None,l,1,0.48138347901567613,447.181308086896,None,None,None,11_YA,25,F,11,2021_Nov_12_1341,Partial repeat,2021.2.3,120.12567518716294,
7,7,0,1,1,2,3,3,2,1,1,0,0,1,1,0,0,83,83,83,,,,,,,,,,,,,,,,,,,,,,,,,,11_YA,25,F,11,2021_Nov_12_1341,Partial repeat,2021.2.3,120.12567518716294,
7,7,0,1,1,3,2,3,2,1,1,0,0,1,1,0,0,84,84,84,0,0,0,0,,,,,,,447.68089531674286,None,0.7679722892671766,448.2054546597492,None,"[87. 93. 87. 93. 87. 87. 87. 93. 93. 87. 87. 87. 93. 93. 87. 87. 93. 93.
 93. 93. 87. 87. 87. 87. 87. 87. 93. 93. 87. 93. 87. 93. 93. 93.]",449.0630855194331,None,l,1,0.5035784540614259,449.0630855194331,None,None,None,11_YA,25,F,11,2021_Nov_12_1341,Partial repeat,2021.2.3,120.12567518716294,
7,7,0,1,1,3,2,3,2,1,1,0,0,1,1,0,0,84,84,84,1,0,1,0,,,,,,,,,0.8941608052321871,449.6126253143884,None,"[93. 93. 87. 93. 87. 87. 87. 93. 87. 87. 87. 87. 87. 93. 87. 93. 93. 87.
 93. 93. 87. 93. 87. 93. 87. 93. 87. 93. 87. 87. 93. 87. 93. 87.]",450.5868283023701,None,l,1,0.49989944363096583,450.5868283023701,None,None,None,11_YA,25,F,11,2021_Nov_12_1341,Partial repeat,2021.2.3,120.12567518716294,
7,7,0,1,1,3,2,3,2,1,1,0,0,1,1,0,0,84,84,84,,,,,,,,,,,,,,,,,,,,,,,,,,11_YA,25,F,11,2021_Nov_12_1341,Partial repeat,2021.2.3,120.12567518716294,
7,7,0,1,1,2,3,3,2,0,1,0,0,0,1,0,0,85,85,85,0,0,0,0,,,,,,,451.1114001535625,None,0.8650109435694329,451.55269474444503,None,"[87. 87. 93. 87. 87. 93. 87. 93. 87. 87. 87. 93. 93. 93. 93. 93. 87. 93.
 93. 93. 87. 93. 87. 93. 87. 93. 87. 87. 93. 93. 87. 87. 87. 93.]",452.49358233818475,None,s,1,0.6572482597475755,452.49358233818475,None,None,None,11_YA,25,F,11,2021_Nov_12_1341,Partial repeat,2021.2.3,120.12567518716294,
7,7,0,1,1,2,3,3,2,0,1,0,0,0,1,0,0,85,85,85,1,0,1,0,,,,,,,,,0.7704249091092258,453.2096532409996,None,"[93. 87. 87. 93. 87. 87. 93. 87. 87. 93. 93. 93. 93. 87. 87. 93. 87. 87.
 87. 93. 93. 93. 87. 93. 87. 93. 93. 93. 93. 87. 87. 93. 93. 87.]",454.0589546106785,None,l,1,0.5799226511280722,454.0589546106785,None,None,None,11_YA,25,F,11,2021_Nov_12_1341,Partial repeat,2021.2.3,120.12567518716294,
7,7,0,1,1,2,3,3,2,0,1,0,0,0,1,0,0,85,85,85,,,,,,,,,,,,,,,,,,,,,,,,,,11_YA,25,F,11,2021_Nov_12_1341,Partial repeat,2021.2.3,120.12567518716294,
7,7,0,1,1,2,3,3,3,1,1,0,1,1,1,0,0,86,86,86,0,0,0,0,,,,,,,454.6584581960378,None,0.7017676325623217,455.0331447697499,None,"[93. 93. 87. 93. 93. 87. 87. 87. 87. 93. 93. 87. 87. 87. 87. 87. 87. 87.
 93. 93. 87. 93. 93. 93. 87. 87. 87. 93. 93. 87. 93. 87. 87. 93.]",455.82417402671945,None,l,1,0.6868028592643896,455.82417402671945,None,None,None,11_YA,25,F,11,2021_Nov_12_1341,Partial repeat,2021.2.3,120.12567518716294,
7,7,0,1,1,2,3,3,3,1,1,0,1,1,1,0,0,86,86,86,1,0,1,0,,,,,,,,,0.7070375803513133,456.5652154390791,None,"[93. 93. 87. 87. 93. 87. 93. 87. 93. 87. 93. 87. 93. 87. 93. 93. 87. 87.
 87. 93. 93. 93. 87. 87. 87. 93. 93. 93. 87. 87. 93. 87. 87. 87.]",457.34792354483307,None,l,1,1.0671187583247956,457.34792354483307,None,None,None,11_YA,25,F,11,2021_Nov_12_1341,Partial repeat,2021.2.3,120.12567518716294,
7,7,0,1,1,2,3,3,3,1,1,0,1,1,1,0,0,86,86,86,,,,,,,,,,,,,,,,,,,,,,,,,,11_YA,25,F,11,2021_Nov_12_1341,Partial repeat,2021.2.3,120.12567518716294,
7,7,0,1,1,3,2,2,2,1,0,0,1,0,1,0,0,87,87,87,0,0,0,0,,,,,,,458.4386669095611,None,0.7950278541173393,458.8966240084055,None,"[87. 93. 93. 93. 87. 87. 93. 93. 87. 87. 87. 87. 93. 87. 87. 87. 87. 93.
 93. 87. 93. 93. 93. 87. 87. 93. 87. 87. 87. 93. 87. 87. 87. 87.]",459.7709013399153,None,l,1,0.5647277703765212,459.7709013399153,None,None,None,11_YA,25,F,11,2021_Nov_12_1341,Partial repeat,2021.2.3,120.12567518716294,
7,7,0,1,1,3,2,2,2,1,0,0,1,0,1,0,0,87,87,87,1,0,1,0,,,,,,,,,0.9840271588618286,460.3953760762661,None,"[87. 93. 93. 87. 93. 87. 93. 93. 93. 87. 93. 93. 87. 93. 87. 93. 93. 93.
 87. 93. 93. 87. 93. 87. 93. 87. 93. 87. 93. 87. 87. 93. 93. 93.]",461.46117875866184,None,s,1,0.6013575133047198,461.46117875866184,None,None,None,11_YA,25,F,11,2021_Nov_12_1341,Partial repeat,2021.2.3,120.12567518716294,
7,7,0,1,1,3,2,2,2,1,0,0,1,0,1,0,0,87,87,87,,,,,,,,,,,,,,,,,,,,,,,,,,11_YA,25,F,11,2021_Nov_12_1341,Partial repeat,2021.2.3,120.12567518716294,
7,7,0,1,1,2,2,2,2,0,1,1,1,0,1,0,0,88,88,88,0,0,0,0,,,,,,,462.0856515706755,None,0.9921906553546145,462.56025289628724,None,"[93. 87. 87. 87. 93. 93. 87. 87. 87. 93. 93. 87. 93. 87. 87. 87. 87. 93.
 87. 93. 93. 87. 93. 93. 87. 87. 93. 93. 87. 87. 93. 87. 87. 93.]",463.6343744848391,None,s,1,0.5719809149022694,463.6343744848391,None,None,None,11_YA,25,F,11,2021_Nov_12_1341,Partial repeat,2021.2.3,120.12567518716294,
7,7,0,1,1,2,2,2,2,0,1,1,1,0,1,0,0,88,88,88,1,0,1,0,,,,,,,,,0.9033825358975596,464.25052903214237,None,"[87. 87. 93. 87. 87. 93. 87. 93. 87. 93. 87. 87. 93. 87. 87. 93. 87. 87.
 87. 93. 93. 93. 87. 93. 93. 93. 93. 93. 87. 87. 93. 87. 87. 87.]",465.2330557371206,None,l,1,0.5253093433157119,465.2330557371206,None,None,None,11_YA,25,F,11,2021_Nov_12_1341,Partial repeat,2021.2.3,120.12567518716294,
7,7,0,1,1,2,2,2,2,0,1,1,1,0,1,0,0,88,88,88,,,,,,,,,,,,,,,,,,,,,,,,,,11_YA,25,F,11,2021_Nov_12_1341,Partial repeat,2021.2.3,120.12567518716294,
7,7,0,1,1,2,2,2,3,0,0,1,0,1,1,0,0,89,89,89,0,0,0,0,,,,,,,465.7742698907432,None,0.9987443402567131,466.15727986072943,None,"[93. 93. 87. 87. 87. 93. 87. 93. 87. 93. 93. 93. 93. 93. 87. 87. 87. 87.
 87. 87. 93. 93. 87. 87. 93. 87. 93. 87. 87. 87. 93. 93. 87. 87.]",467.2397267698925,None,s,1,0.6947494063315389,467.2397267698925,None,None,None,11_YA,25,F,11,2021_Nov_12_1341,Partial repeat,2021.2.3,120.12567518716294,
7,7,0,1,1,2,2,2,3,0,0,1,0,1,1,0,0,89,89,89,1,0,1,0,,,,,,,,,0.9055809413604399,467.99743069021497,None,"[87. 93. 87. 87. 93. 93. 87. 93. 93. 87. 87. 93. 93. 93. 93. 93. 93. 93.
 87. 87. 93. 93. 93. 93. 93. 87. 87. 87. 93. 87. 87. 93. 93. 87.]",468.97995290507515,None,s,1,0.6826203141499718,468.97995290507515,None,None,None,11_YA,25,F,11,2021_Nov_12_1341,Partial repeat,2021.2.3,120.12567518716294,
7,7,0,1,1,2,2,2,3,0,0,1,0,1,1,0,0,89,89,89,,,,,,,,,,,,,,,,,,,,,,,,,,11_YA,25,F,11,2021_Nov_12_1341,Partial repeat,2021.2.3,120.12567518716294,
7,7,0,1,1,3,3,3,2,0,0,1,0,1,1,0,0,90,90,90,0,0,0,0,,,,,,,469.67936963871944,None,0.8542682265715594,470.44540978422447,None,"[93. 87. 93. 87. 87. 93. 87. 93. 93. 87. 87. 93. 87. 87. 93. 87. 93. 93.
 93. 87. 93. 87. 93. 87. 93. 93. 93. 93. 87. 87. 93. 93. 93. 93.]",471.3862954536271,None,s,1,0.5643618257427079,471.3862954536271,None,None,None,11_YA,25,F,11,2021_Nov_12_1341,Partial repeat,2021.2.3,120.12567518716294,
7,7,0,1,1,3,3,3,2,0,0,1,0,1,1,0,0,90,90,90,1,0,1,0,,,,,,,,,0.9774102926043976,472.0107746800959,None,"[93. 87. 93. 87. 87. 93. 93. 87. 87. 93. 87. 93. 93. 87. 93. 93. 93. 93.
 87. 87. 93. 93. 87. 87. 87. 87. 87. 93. 93. 87. 93. 87. 87. 93.]",473.0682327985178,None,s,1,0.6585013234516737,473.0682327985178,None,None,None,11_YA,25,F,11,2021_Nov_12_1341,Partial repeat,2021.2.3,120.12567518716294,
7,7,0,1,1,3,3,3,2,0,0,1,0,1,1,0,0,90,90,90,,,,,,,,,,,,,,,,,,,,,,,,,,11_YA,25,F,11,2021_Nov_12_1341,Partial repeat,2021.2.3,120.12567518716294,
7,7,0,1,1,3,3,2,3,1,0,1,0,0,1,0,0,91,91,91,0,0,0,0,,,,,,,473.75100851262323,None,0.7078311329459831,474.20064061157973,None,"[87. 87. 87. 93. 93. 87. 87. 87. 93. 93. 87. 87. 93. 87. 87. 93. 87. 87.
 93. 87. 93. 87. 87. 87. 87. 93. 93. 87. 93. 93. 93. 87. 87. 87.]",474.98332498385207,None,l,1,0.7114779831754277,474.98332498385207,None,None,None,11_YA,25,F,11,2021_Nov_12_1341,Partial repeat,2021.2.3,120.12567518716294,
7,7,0,1,1,3,3,2,3,1,0,1,0,0,1,0,0,91,91,91,1,0,1,0,,,,,,,,,0.7714490833526423,475.7576773003357,None,"[87. 93. 93. 93. 87. 93. 87. 87. 93. 93. 93. 93. 87. 87. 93. 87. 93. 87.
 93. 87. 87. 87. 87. 87. 93. 93. 87. 87. 93. 87. 93. 87. 93. 87.]",476.60697931146024,None,s,1,1.9669740482286215,476.60697931146024,None,None,None,11_YA,25,F,11,2021_Nov_12_1341,Partial repeat,2021.2.3,120.12567518716294,
7,7,0,1,1,3,3,2,3,1,0,1,0,0,1,0,0,91,91,91,,,,,,,,,,,,,,,,,,,,,,,,,,11_YA,25,F,11,2021_Nov_12_1341,Partial repeat,2021.2.3,120.12567518716294,
7,7,0,1,1,2,3,3,3,0,0,0,1,1,1,0,0,92,92,92,0,0,0,0,,,,,,,478.58867983468735,None,0.9724886278689389,479.4046754318051,None,"[93. 93. 93. 87. 93. 87. 93. 93. 93. 87. 87. 87. 87. 93. 93. 87. 87. 93.
 87. 93. 87. 87. 87. 93. 93. 87. 93. 93. 87. 93. 87. 93. 93. 93.]",480.45379475926256,None,s,1,6.408480957558822,480.45379475926256,None,None,None,11_YA,25,F,11,2021_Nov_12_1341,Partial repeat,2021.2.3,120.12567518716294,
7,7,0,1,1,2,3,3,3,0,0,0,1,1,1,0,0,92,92,92,1,0,1,0,,,,,,,,,0.7564577437250838,486.9234441259314,None,"[93. 87. 87. 87. 93. 87. 87. 87. 87. 93. 87. 93. 93. 87. 87. 93. 93. 87.
 93. 93. 93. 93. 93. 93. 93. 87. 87. 93. 87. 93. 93. 87. 93. 87.]",487.7560884399345,None,s,1,0.9143100931660229,487.7560884399345,None,None,None,11_YA,25,F,11,2021_Nov_12_1341,Partial repeat,2021.2.3,120.12567518716294,
7,7,0,1,1,2,3,3,3,0,0,0,1,1,1,0,0,92,92,92,,,,,,,,,,,,,,,,,,,,,,,,,,11_YA,25,F,11,2021_Nov_12_1341,Partial repeat,2021.2.3,120.12567518716294,
7,7,0,1,1,3,2,2,3,0,0,0,0,1,1,0,0,93,93,93,0,0,0,0,,,,,,,488.68033020329403,None,0.7967623524201928,489.3547671264341,None,"[87. 93. 93. 87. 87. 93. 93. 87. 87. 87. 93. 87. 87. 93. 93. 93. 93. 93.
 87. 93. 87. 87. 87. 93. 87. 93. 87. 87. 87. 93. 93. 93. 87. 87.]",490.23737747589985,None,s,1,1.377152761348043,490.23737747589985,None,None,None,11_YA,25,F,11,2021_Nov_12_1341,Partial repeat,2021.2.3,120.12567518716294,
7,7,0,1,1,3,2,2,3,0,0,0,0,1,1,0,0,93,93,93,1,0,1,0,,,,,,,,,0.904267603540196,491.6778452435865,None,"[87. 93. 87. 87. 93. 93. 93. 87. 93. 93. 93. 93. 93. 87. 93. 87. 93. 93.
 87. 93. 87. 87. 87. 93. 87. 87. 93. 93. 93. 93. 87. 87. 87. 87.]",492.66036745844576,None,s,1,1.2412644652258678,492.66036745844576,None,None,None,11_YA,25,F,11,2021_Nov_12_1341,Partial repeat,2021.2.3,120.12567518716294,
7,7,0,1,1,3,2,2,3,0,0,0,0,1,1,0,0,93,93,93,,,,,,,,,,,,,,,,,,,,,,,,,,11_YA,25,F,11,2021_Nov_12_1341,Partial repeat,2021.2.3,120.12567518716294,
7,7,0,1,1,2,3,3,2,1,0,0,0,0,1,0,0,94,94,94,0,0,0,0,,,,,,,493.9259903436805,None,0.8998299679399802,496.5072008667212,None,"[93. 93. 93. 93. 93. 87. 87. 87. 93. 87. 93. 87. 93. 87. 87. 87. 87. 87.
 87. 93. 87. 93. 87. 93. 93. 87. 87. 87. 87. 87. 87. 93. 87. 93.]",497.4897128184539,None,l,1,0.6520871895854725,497.4897128184539,None,None,None,11_YA,25,F,11,2021_Nov_12_1341,Partial repeat,2021.2.3,120.12567518716294,
7,7,0,1,1,2,3,3,2,1,0,0,0,0,1,0,0,94,94,94,1,0,1,0,,,,,,,,,0.9752911934689976,498.21411032477045,None,"[93. 87. 87. 93. 87. 87. 93. 87. 93. 93. 87. 93. 87. 93. 93. 93. 87. 93.
 87. 87. 87. 87. 93. 87. 93. 87. 93. 93. 87. 87. 87. 93. 93. 93.]",499.2715713296975,None,s,1,0.646668258349564,499.2715713296975,None,None,None,11_YA,25,F,11,2021_Nov_12_1341,Partial repeat,2021.2.3,120.12567518716294,
7,7,0,1,1,2,3,3,2,1,0,0,0,0,1,0,0,94,94,94,,,,,,,,,,,,,,,,,,,,,,,,,,11_YA,25,F,11,2021_Nov_12_1341,Partial repeat,2021.2.3,120.12567518716294,
7,7,0,1,1,3,2,3,3,0,0,0,1,1,1,0,0,95,95,95,0,0,0,0,,,,,,,499.93768613945485,None,0.9133373371081396,500.8202923195249,None,"[87. 93. 87. 93. 87. 93. 87. 93. 93. 87. 93. 87. 93. 87. 87. 87. 87. 93.
 87. 87. 93. 87. 93. 87. 87. 87. 87. 93. 87. 87. 93. 87. 93. 93.]",501.8111417793316,None,s,1,0.6348669447970678,501.8111417793316,None,None,None,11_YA,25,F,11,2021_Nov_12_1341,Partial repeat,2021.2.3,120.12567518716294,
7,7,0,1,1,3,2,3,3,0,0,0,1,1,1,0,0,95,95,95,1,0,1,0,,,,,,,,,0.9203233080031631,502.5188921723775,None,"[93. 93. 87. 93. 93. 87. 93. 93. 87. 87. 87. 87. 87. 93. 87. 87. 93. 93.
 87. 87. 93. 93. 87. 93. 87. 87. 93. 93. 93. 93. 93. 93. 93. 93.]",503.5180631041221,None,s,1,0.8320306012674337,503.5180631041221,None,None,None,11_YA,25,F,11,2021_Nov_12_1341,Partial repeat,2021.2.3,120.12567518716294,
7,7,0,1,1,3,2,3,3,0,0,0,1,1,1,0,0,95,95,95,,,,,,,,,,,,,,,,,,,,,,,,,,11_YA,25,F,11,2021_Nov_12_1341,Partial repeat,2021.2.3,120.12567518716294,
7,7,0,1,1,3,2,2,3,1,0,0,0,0,1,0,0,96,96,96,0,0,0,0,,,,,,,504.36735773862256,None,0.7749157502678259,504.97519113471117,None,"[87. 93. 87. 93. 93. 87. 93. 93. 93. 87. 87. 87. 93. 87. 93. 93. 93. 93.
 93. 87. 93. 87. 87. 93. 93. 87. 87. 87. 87. 93. 87. 87. 93. 93.]",505.8328284088502,None,l,1,0.6133182260527974,505.8328284088502,None,None,None,11_YA,25,F,11,2021_Nov_12_1341,Partial repeat,2021.2.3,120.12567518716294,
7,7,0,1,1,3,2,2,3,1,0,0,0,0,1,0,0,96,96,96,1,0,1,0,,,,,,,,,0.9470022881353833,506.5072505787448,None,"[87. 93. 87. 93. 87. 87. 87. 93. 87. 93. 87. 87. 93. 93. 87. 87. 87. 87.
 87. 93. 93. 87. 87. 93. 93. 87. 93. 93. 93. 87. 87. 93. 93. 93.]",507.531409659784,None,s,1,0.7548483557075087,507.531409659784,None,None,None,11_YA,25,F,11,2021_Nov_12_1341,Partial repeat,2021.2.3,120.12567518716294,
7,7,0,1,1,3,2,2,3,1,0,0,0,0,1,0,0,96,96,96,,,,,,,,,,,,,,,,,,,,,,,,,,11_YA,25,F,11,2021_Nov_12_1341,Partial repeat,2021.2.3,120.12567518716294,
7,7,0,1,1,2,3,2,2,1,0,0,1,0,1,0,0,97,97,97,0,0,0,0,,,,,,,508.30576839072273,None,0.7879861186771381,508.9385742206923,None,"[87. 93. 87. 87. 93. 87. 87. 93. 93. 87. 87. 87. 87. 93. 93. 93. 87. 93.
 93. 87. 93. 93. 87. 93. 87. 87. 93. 93. 93. 93. 93. 93. 87. 87.]",509.8045358532736,None,l,1,0.7048419091806863,509.8045358532736,None,None,None,11_YA,25,F,11,2021_Nov_12_1341,Partial repeat,2021.2.3,120.12567518716294,
7,7,0,1,1,2,3,2,2,1,0,0,1,0,1,0,0,97,97,97,1,0,1,0,,,,,,,,,0.7718009004757621,510.570560283365,None,"[87. 87. 87. 87. 93. 87. 87. 87. 93. 87. 93. 87. 87. 87. 87. 93. 93. 87.
 87. 87. 87. 87. 87. 93. 87. 93. 87. 93. 87. 87. 87. 87. 93. 93.]",511.4198619737663,None,s,1,0.8495577777075596,511.4198619737663,None,None,None,11_YA,25,F,11,2021_Nov_12_1341,Partial repeat,2021.2.3,120.12567518716294,
7,7,0,1,1,2,3,2,2,1,0,0,1,0,1,0,0,97,97,97,,,,,,,,,,,,,,,,,,,,,,,,,,11_YA,25,F,11,2021_Nov_12_1341,Partial repeat,2021.2.3,120.12567518716294,
7,7,0,1,1,3,2,3,2,0,0,0,0,1,1,0,0,98,98,98,0,0,0,0,,,,,,,512.2858056458754,None,0.8058385441061524,513.0851538090001,None,"[87. 87. 93. 87. 93. 93. 87. 93. 93. 93. 87. 93. 87. 87. 93. 93. 87. 87.
 87. 87. 87. 87. 87. 93. 87. 87. 87. 93. 93. 93. 87. 87. 93. 93.]",513.9760846682348,None,s,1,0.7574449269250181,513.9760846682348,None,None,None,11_YA,25,F,11,2021_Nov_12_1341,Partial repeat,2021.2.3,120.12567518716294,
7,7,0,1,1,3,2,3,2,0,0,0,0,1,1,0,0,98,98,98,1,0,1,0,,,,,,,,,0.867543464520486,514.7920741716216,None,"[93. 93. 87. 93. 93. 87. 93. 93. 93. 87. 93. 93. 87. 93. 93. 93. 87. 93.
 87. 93. 93. 93. 93. 87. 87. 93. 93. 87. 93. 87. 87. 93. 87. 93.]",515.7412896517535,None,s,1,0.9443444938860921,515.7412896517535,None,None,None,11_YA,25,F,11,2021_Nov_12_1341,Partial repeat,2021.2.3,120.12567518716294,
7,7,0,1,1,3,2,3,2,0,0,0,0,1,1,0,0,98,98,98,,,,,,,,,,,,,,,,,,,,,,,,,,11_YA,25,F,11,2021_Nov_12_1341,Partial repeat,2021.2.3,120.12567518716294,
7,7,0,1,1,2,3,3,2,0,0,0,0,1,1,0,0,99,99,99,0,0,0,0,,,,,,,516.7154894325067,None,0.8853547436922607,517.4315558452045,None,"[87. 93. 93. 87. 93. 87. 87. 87. 87. 87. 93. 87. 93. 87. 93. 93. 93. 93.
 93. 87. 93. 93. 93. 87. 87. 87. 87. 93. 93. 87. 93. 87. 87. 87.]",518.4057546637896,None,s,1,1.0002442205650368,518.4057546637896,None,None,None,11_YA,25,F,11,2021_Nov_12_1341,Partial repeat,2021.2.3,120.12567518716294,
7,7,0,1,1,2,3,3,2,0,0,0,0,1,1,0,0,99,99,99,1,0,1,0,,,,,,,,,0.7441648736125296,519.4798685549968,None,"[93. 87. 93. 93. 93. 87. 87. 87. 87. 93. 87. 87. 87. 87. 87. 87. 87. 93.
 93. 93. 93. 93. 87. 87. 87. 87. 93. 93. 93. 87. 87. 93. 87. 93.]",520.3125163969498,None,s,1,0.9181834615683329,520.3125163969498,None,None,None,11_YA,25,F,11,2021_Nov_12_1341,Partial repeat,2021.2.3,120.12567518716294,
7,7,0,1,1,2,3,3,2,0,0,0,0,1,1,0,0,99,99,99,,,,,,,,,,,,,,,,,,,,,,,,,,11_YA,25,F,11,2021_Nov_12_1341,Partial repeat,2021.2.3,120.12567518716294,
7,7,0,1,1,3,3,3,3,1,1,1,1,1,1,0,0,100,100,100,0,0,0,0,,,,,,,521.2533962933439,None,0.9774743563646251,521.8195944268655,None,"[93. 93. 93. 87. 87. 93. 93. 87. 93. 87. 93. 87. 87. 87. 87. 87. 87. 87.
 87. 93. 87. 87. 93. 87. 87. 93. 93. 87. 93. 87. 87. 87. 87. 87.]",522.8770570354063,None,l,1,0.609130870097033,522.8770570354063,None,None,None,11_YA,25,F,11,2021_Nov_12_1341,Partial repeat,2021.2.3,120.12567518716294,
7,7,0,1,1,3,3,3,3,1,1,1,1,1,1,0,0,100,100,100,1,0,1,0,,,,,,,,,0.7946039649458576,523.5598282593928,None,"[87. 87. 87. 87. 93. 93. 87. 93. 93. 87. 93. 93. 87. 87. 87. 87. 87. 87.
 87. 87. 93. 93. 87. 87. 93. 87. 93. 93. 87. 87. 93. 93. 87. 93.]",524.4341030251217,None,l,1,0.667166930878011,524.4341030251217,None,None,None,11_YA,25,F,11,2021_Nov_12_1341,Partial repeat,2021.2.3,120.12567518716294,
7,7,0,1,1,3,3,3,3,1,1,1,1,1,1,0,0,100,100,100,,,,,,,,,,,,,,,,,,,,,,,,,,11_YA,25,F,11,2021_Nov_12_1341,Partial repeat,2021.2.3,120.12567518716294,
7,7,0,1,1,3,3,3,3,0,0,1,1,1,1,0,0,101,101,101,0,0,0,0,,,,,,,525.1251970039366,None,0.8325565129059775,525.8329685646831,None,"[87. 87. 87. 87. 93. 87. 87. 87. 87. 93. 93. 93. 93. 87. 93. 87. 87. 93.
 93. 93. 87. 93. 87. 93. 87. 87. 93. 93. 93. 87. 93. 87. 87. 87.]",526.7405276145482,None,s,1,0.6325702493322751,526.7405276145482,None,None,None,11_YA,25,F,11,2021_Nov_12_1341,Partial repeat,2021.2.3,120.12567518716294,
7,7,0,1,1,3,3,3,3,0,0,1,1,1,1,0,0,101,101,101,1,0,1,0,,,,,,,,,0.8069634378529658,527.4316318564906,None,"[87. 93. 87. 87. 87. 87. 87. 87. 93. 87. 93. 93. 87. 93. 93. 93. 93. 87.
 93. 93. 93. 87. 93. 93. 93. 87. 87. 87. 87. 87. 87. 87. 87. 93.]",528.3142245662066,None,s,1,0.7869395512916526,528.3142245662066,None,None,None,11_YA,25,F,11,2021_Nov_12_1341,Partial repeat,2021.2.3,120.12567518716294,
7,7,0,1,1,3,3,3,3,0,0,1,1,1,1,0,0,101,101,101,,,,,,,,,,,,,,,,,,,,,,,,,,11_YA,25,F,11,2021_Nov_12_1341,Partial repeat,2021.2.3,120.12567518716294,
7,7,0,1,1,2,2,2,3,1,1,1,0,1,1,0,0,102,102,102,0,0,0,0,,,,,,,529.1218849003099,None,0.7428625418335435,529.6464535442756,None,"[93. 93. 87. 93. 87. 93. 93. 87. 87. 87. 87. 87. 87. 93. 87. 93. 93. 87.
 87. 87. 93. 93. 93. 87. 87. 87. 93. 93. 93. 93. 87. 93. 93. 87.]",530.4791126115233,None,l,1,0.9741765185635813,530.4791126115233,None,None,None,11_YA,25,F,11,2021_Nov_12_1341,Partial repeat,2021.2.3,120.12567518716294,
7,7,0,1,1,2,2,2,3,1,1,1,0,1,1,0,0,102,102,102,1,0,1,0,,,,,,,,,0.7199030336185381,531.5115800148687,None,"[87. 87. 87. 93. 87. 87. 93. 93. 87. 87. 87. 93. 87. 93. 93. 93. 93. 93.
 87. 87. 93. 93. 93. 87. 93. 93. 87. 87. 93. 87. 93. 93. 87. 87.]",532.3192576679994,None,l,1,0.6860809124009393,532.3192576679994,None,None,None,11_YA,25,F,11,2021_Nov_12_1341,Partial repeat,2021.2.3,120.12567518716294,
7,7,0,1,1,2,2,2,3,1,1,1,0,1,1,0,0,102,102,102,,,,,,,,,,,,,,,,,,,,,,,,,,11_YA,25,F,11,2021_Nov_12_1341,Partial repeat,2021.2.3,120.12567518716294,
7,7,0,1,1,2,3,2,2,0,0,0,1,1,1,0,0,103,103,103,0,0,0,0,,,,,,,533.0270016465911,None,0.9155466707594129,533.6264991382186,None,"[93. 93. 87. 93. 93. 87. 93. 93. 93. 87. 87. 87. 93. 93. 93. 87. 93. 93.
