prime_tar_pos,probe_tar_pos,dimension,tar_color,tar_shape,prime_dist_color,probe_dist_color,prime_dist_shape,probe_dist_shape,prime_tar_ori,probe_tar_ori,col_rep,shape_rep,resp_rep,pos_fixed,sparse,MainLoop.thisRepN,MainLoop.thisTrialN,MainLoop.thisN,MainLoop.thisIndex,PrimeProbe.thisRepN,PrimeProbe.thisTrialN,PrimeProbe.thisN,PrimeProbe.thisIndex,Instruction.started,Instruction.stopped,instruction_key.keys,instruction_key.rt,instruction_key.started,instruction_key.stopped,PairStartText.started,PairStartText.stopped,fixdur,FixCross.started,FixCross.stopped,dist_ori,SearchFixCross.started,SearchFixCross.stopped,key_resp.keys,key_resp.corr,key_resp.rt,key_resp.started,key_resp.stopped,feedback_text.started,feedback_text.stopped,text_finish.started,text_finish.stopped,finish_key.keys,finish_key.rt,finish_key.started,finish_key.stopped,participant,age,gender,group,date,expName,psychopyVersion,frameRate,
,,,,,,,,,,,,,,,,,,,,,,,,36.744532954292595,None,space,1.3938505041764984,36.744532954292595,None,,,,,,,,,,,,,,,,,,,,,,12_MZ,42,F,12,2021_Nov_04_0935,Partial repeat,2021.2.3,120.09713935769038,
3,3,0,1,1,2,2,2,3,1,0,1,0,0,1,0,0,0,0,0,0,0,0,0,,,,,,,112.60573352670235,None,0.8321790161369854,118.40807736640193,None,"[87. 87. 87. 87. 87. 93. 93. 87. 87. 87. 93. 93. 93. 87. 87. 93. 93. 93.
 87. 93. 93. 87. 87. 93. 87. 93. 93. 87. 93. 87. 93. 87. 87. 87.]",119.32396443157029,None,l,1,0.9541071520900459,119.32396443157029,None,None,None,,,,,,,12_MZ,42,F,12,2021_Nov_04_0935,Partial repeat,2021.2.3,120.09713935769038,
3,3,0,1,1,2,2,2,3,1,0,1,0,0,1,0,0,0,0,0,1,0,1,0,,,,,,,,,0.8550770761059672,120.34809332511452,None,"[87. 93. 93. 87. 93. 93. 93. 93. 87. 93. 87. 87. 93. 93. 93. 87. 93. 93.
 93. 87. 87. 87. 87. 87. 87. 87. 93. 93. 93. 93. 87. 87. 93. 87.]",121.2806119601828,None,s,1,0.6450863743336868,121.2806119601828,None,None,None,,,,,,,12_MZ,42,F,12,2021_Nov_04_0935,Partial repeat,2021.2.3,120.09713935769038,
3,3,0,1,1,2,2,2,3,1,0,1,0,0,1,0,0,0,0,0,,,,,,,,,,,,,,,,,,,,,,,,,,,,,,,,12_MZ,42,F,12,2021_Nov_04_0935,Partial repeat,2021.2.3,120.09713935769038,
3,3,0,1,1,3,2,2,3,1,1,0,0,1,1,0,0,1,1,1,0,0,0,0,,,,,,,121.94671085673531,None,0.8613066490234413,122.87925803532085,None,"[93. 93. 93. 93. 87. 87. 87. 93. 93. 87. 93. 87. 93. 87. 87. 87. 87. 87.
 87. 87. 87. 87. 93. 93. 93. 93. 93. 93. 93. 87. 93. 93. 93. 87.]",123.82013029955306,None,l,1,0.6016248602957148,123.82013029955306,None,None,None,,,,,,,12_MZ,42,F,12,2021_Nov_04_0935,Partial repeat,2021.2.3,120.09713935769038,
3,3,0,1,1,3,2,2,3,1,1,0,0,1,1,0,0,1,1,1,1,0,1,0,,,,,,,,,0.8985695751880678,124.48621925398152,None,"[87. 93. 87. 87. 87. 87. 93. 87. 87. 87. 93. 87. 87. 93. 93. 87. 93. 87.
 93. 87. 87. 93. 93. 93. 87. 87. 87. 93. 87. 93. 87. 93. 93. 87.]",125.46038865366324,None,l,1,0.7053997885681156,125.46038865366324,None,None,None,,,,,,,12_MZ,42,F,12,2021_Nov_04_0935,Partial repeat,2021.2.3,120.09713935769038,
3,3,0,1,1,3,2,2,3,1,1,0,0,1,1,0,0,1,1,1,,,,,,,,,,,,,,,,,,,,,,,,,,,,,,,,12_MZ,42,F,12,2021_Nov_04_0935,Partial repeat,2021.2.3,120.09713935769038,
3,3,0,1,1,3,2,3,3,1,0,0,1,0,1,0,0,2,2,2,0,0,0,0,,,,,,,126.17644800621929,None,0.8071546505240387,126.98408714945197,None,"[93. 93. 87. 87. 87. 93. 87. 93. 87. 87. 87. 87. 93. 87. 87. 93. 93. 93.
 87. 87. 93. 87. 87. 93. 87. 93. 87. 93. 87. 93. 93. 93. 93. 87.]",127.86667643774342,None,l,1,1.2435239855813052,127.86667643774342,None,None,None,,,,,,,12_MZ,42,F,12,2021_Nov_04_0935,Partial repeat,2021.2.3,120.09713935769038,
3,3,0,1,1,3,2,3,3,1,0,0,1,0,1,0,0,2,2,2,1,0,1,0,,,,,,,,,0.773547282977039,129.16556939827058,None,"[93. 93. 93. 87. 87. 93. 93. 93. 87. 93. 87. 87. 93. 87. 87. 87. 93. 93.
 93. 87. 93. 87. 87. 87. 87. 87. 87. 93. 93. 87. 87. 93. 93. 93.]",130.01481825476594,None,s,1,0.7910537526213375,130.01481825476594,None,None,None,,,,,,,12_MZ,42,F,12,2021_Nov_04_0935,Partial repeat,2021.2.3,120.09713935769038,
3,3,0,1,1,3,2,3,3,1,0,0,1,0,1,0,0,2,2,2,,,,,,,,,,,,,,,,,,,,,,,,,,,,,,,,12_MZ,42,F,12,2021_Nov_04_0935,Partial repeat,2021.2.3,120.09713935769038,
3,3,0,1,1,3,2,2,2,1,0,0,1,0,1,0,0,3,3,3,0,0,0,0,,,,,,,130.82247215082782,None,0.7915291705882109,132.7957900556952,None,"[87. 93. 93. 87. 93. 93. 93. 87. 93. 93. 87. 93. 93. 93. 93. 93. 93. 87.
 93. 87. 87. 93. 93. 93. 87. 93. 93. 87. 87. 87. 87. 93. 93. 93.]",133.66171121272748,None,l,1,0.9512999452688291,133.66171121272748,None,None,None,,,,,,,12_MZ,42,F,12,2021_Nov_04_0935,Partial repeat,2021.2.3,120.09713935769038,
3,3,0,1,1,3,2,2,2,1,0,0,1,0,1,0,0,3,3,3,1,0,1,0,,,,,,,,,0.9187523402273655,134.67752175561236,None,"[93. 93. 87. 93. 87. 93. 87. 93. 93. 93. 87. 93. 93. 93. 93. 93. 87. 87.
 93. 93. 93. 87. 93. 87. 87. 87. 87. 93. 93. 87. 93. 93. 87. 93.]",135.67669206932806,None,s,1,0.7442657963179045,135.67669206932806,None,None,None,,,,,,,12_MZ,42,F,12,2021_Nov_04_0935,Partial repeat,2021.2.3,120.09713935769038,
3,3,0,1,1,3,2,2,2,1,0,0,1,0,1,0,0,3,3,3,,,,,,,,,,,,,,,,,,,,,,,,,,,,,,,,12_MZ,42,F,12,2021_Nov_04_0935,Partial repeat,2021.2.3,120.09713935769038,
3,3,0,1,1,2,3,3,3,1,0,0,1,0,1,0,0,4,4,4,0,0,0,0,,,,,,,136.4510164378588,None,0.9105950453450994,137.27530254524788,None,"[93. 93. 93. 93. 93. 93. 87. 87. 93. 93. 87. 93. 87. 87. 93. 87. 93. 93.
 93. 87. 93. 87. 87. 87. 93. 87. 87. 93. 87. 93. 87. 93. 93. 87.]",138.2661262855006,None,l,1,0.8108918178711519,138.2661262855006,None,None,None,,,,,,,12_MZ,42,F,12,2021_Nov_04_0935,Partial repeat,2021.2.3,120.09713935769038,
3,3,0,1,1,2,3,3,3,1,0,0,1,0,1,0,0,4,4,4,1,0,1,0,,,,,,,,,0.7078341565007652,139.13203140684902,None,"[93. 93. 93. 93. 93. 87. 93. 87. 87. 93. 93. 93. 87. 93. 93. 87. 87. 93.
 93. 87. 93. 93. 87. 87. 87. 93. 87. 93. 87. 93. 93. 87. 87. 93.]",139.9147122909668,None,s,1,0.7142896510011951,139.9147122909668,None,None,None,,,,,,,12_MZ,42,F,12,2021_Nov_04_0935,Partial repeat,2021.2.3,120.09713935769038,
3,3,0,1,1,2,3,3,3,1,0,0,1,0,1,0,0,4,4,4,,,,,,,,,,,,,,,,,,,,,,,,,,,,,,,,12_MZ,42,F,12,2021_Nov_04_0935,Partial repeat,2021.2.3,120.09713935769038,
3,3,0,1,1,3,3,2,3,0,1,1,0,0,1,0,0,5,5,5,0,0,0,0,,,,,,,140.64741636268354,None,0.7486976835197725,141.44673972096632,None,"[93. 87. 93. 87. 87. 93. 93. 93. 93. 87. 93. 93. 93. 93. 93. 93. 93. 87.
 93. 87. 87. 87. 93. 93. 87. 87. 87. 93. 87. 87. 93. 87. 93. 87.]",142.27102390407322,None,s,1,0.6780323283062444,142.27102390407322,None,None,None,,,,,,,12_MZ,42,F,12,2021_Nov_04_0935,Partial repeat,2021.2.3,120.09713935769038,
3,3,0,1,1,3,3,2,3,0,1,1,0,0,1,0,0,5,5,5,1,0,1,0,,,,,,,,,0.9962667674735104,143.0120520992955,None,"[93. 93. 87. 87. 93. 93. 93. 93. 93. 93. 93. 87. 93. 87. 93. 87. 87. 93.
 93. 87. 93. 93. 87. 87. 87. 93. 93. 87. 93. 93. 93. 93. 87. 93.]",144.08617833091625,None,l,1,0.8469073224531485,144.08617833091625,None,None,None,,,,,,,12_MZ,42,F,12,2021_Nov_04_0935,Partial repeat,2021.2.3,120.09713935769038,
3,3,0,1,1,3,3,2,3,0,1,1,0,0,1,0,0,5,5,5,,,,,,,,,,,,,,,,,,,,,,,,,,,,,,,,12_MZ,42,F,12,2021_Nov_04_0935,Partial repeat,2021.2.3,120.09713935769038,
3,3,0,1,1,2,2,2,2,0,0,1,1,1,1,0,0,6,6,6,0,0,0,0,,,,,,,144.95209050796564,None,0.9348019755149433,145.75139334057292,None,"[87. 87. 93. 87. 87. 87. 93. 87. 87. 87. 93. 93. 87. 87. 93. 93. 87. 87.
 87. 87. 93. 87. 87. 93. 93. 87. 87. 93. 93. 87. 87. 93. 93. 87.]",146.7671942620475,None,s,1,0.741925548611448,146.7671942620475,None,None,None,,,,,,,12_MZ,42,F,12,2021_Nov_04_0935,Partial repeat,2021.2.3,120.09713935769038,
3,3,0,1,1,2,2,2,2,0,0,1,1,1,1,0,0,6,6,6,1,0,1,0,,,,,,,,,0.8680254325494157,147.56649549108647,None,"[93. 87. 87. 87. 93. 93. 87. 93. 93. 93. 87. 93. 93. 87. 87. 93. 93. 87.
 93. 93. 93. 87. 93. 87. 93. 93. 93. 87. 87. 87. 93. 93. 87. 93.]",148.52402049232114,None,s,1,0.8091349483445356,148.52402049232114,None,None,None,,,,,,,12_MZ,42,F,12,2021_Nov_04_0935,Partial repeat,2021.2.3,120.09713935769038,
3,3,0,1,1,2,2,2,2,0,0,1,1,1,1,0,0,6,6,6,,,,,,,,,,,,,,,,,,,,,,,,,,,,,,,,12_MZ,42,F,12,2021_Nov_04_0935,Partial repeat,2021.2.3,120.09713935769038,
3,3,0,1,1,3,3,3,3,1,1,1,1,1,1,0,0,7,7,7,0,0,0,0,,,,,,,149.35663200607053,None,0.9018624727019621,150.1226466832112,None,"[87. 93. 93. 87. 87. 93. 87. 87. 93. 93. 93. 87. 93. 87. 93. 93. 87. 87.
 93. 87. 93. 87. 93. 93. 87. 93. 87. 93. 87. 87. 87. 93. 93. 93.]",151.1051427721079,None,l,1,0.9805458255412987,151.1051427721079,None,None,None,,,,,,,12_MZ,42,F,12,2021_Nov_04_0935,Partial repeat,2021.2.3,120.09713935769038,
3,3,0,1,1,3,3,3,3,1,1,1,1,1,1,0,0,7,7,7,1,0,1,0,,,,,,,,,0.9659291079290536,152.13760444842706,None,"[87. 93. 93. 87. 87. 93. 93. 87. 87. 93. 87. 87. 87. 93. 87. 87. 87. 87.
 93. 87. 93. 93. 93. 87. 87. 87. 87. 87. 87. 93. 87. 87. 87. 93.]",153.17837453328139,None,l,1,1.4019151703168973,153.17837453328139,None,None,None,,,,,,,12_MZ,42,F,12,2021_Nov_04_0935,Partial repeat,2021.2.3,120.09713935769038,
3,3,0,1,1,3,3,3,3,1,1,1,1,1,1,0,0,7,7,7,,,,,,,,,,,,,,,,,,,,,,,,,,,,,,,,12_MZ,42,F,12,2021_Nov_04_0935,Partial repeat,2021.2.3,120.09713935769038,
3,3,0,1,1,2,3,2,2,1,1,0,1,1,1,0,0,8,8,8,0,0,0,0,,,,,,,154.6021569277682,None,0.8037568475513119,155.92602867308563,None,"[93. 93. 93. 87. 93. 93. 93. 93. 93. 93. 87. 87. 93. 87. 93. 93. 93. 87.
 93. 93. 87. 93. 87. 87. 87. 93. 87. 87. 87. 93. 87. 93. 93. 87.]",156.80862565850532,None,l,1,0.7956624081703012,156.80862565850532,None,None,None,,,,,,,12_MZ,42,F,12,2021_Nov_04_0935,Partial repeat,2021.2.3,120.09713935769038,
3,3,0,1,1,2,3,2,2,1,1,0,1,1,1,0,0,8,8,8,1,0,1,0,,,,,,,,,0.7119547303408377,157.657881249988,None,"[87. 87. 93. 87. 93. 93. 87. 87. 87. 93. 93. 93. 93. 87. 87. 87. 87. 87.
 87. 93. 93. 93. 93. 87. 87. 93. 87. 93. 93. 93. 87. 93. 93. 93.]",158.44888401261562,None,l,1,0.5954270684735548,158.44888401261562,None,None,None,,,,,,,12_MZ,42,F,12,2021_Nov_04_0935,Partial repeat,2021.2.3,120.09713935769038,
3,3,0,1,1,2,3,2,2,1,1,0,1,1,1,0,0,8,8,8,,,,,,,,,,,,,,,,,,,,,,,,,,,,,,,,12_MZ,42,F,12,2021_Nov_04_0935,Partial repeat,2021.2.3,120.09713935769038,
3,3,0,1,1,3,3,3,2,0,0,1,0,1,1,0,0,9,9,9,0,0,0,0,,,,,,,159.0566867839666,None,0.8068700859545512,160.22237837414843,None,"[87. 93. 93. 93. 87. 87. 93. 87. 93. 87. 87. 87. 87. 93. 87. 93. 93. 93.
 93. 87. 93. 93. 93. 93. 93. 87. 87. 87. 87. 87. 87. 87. 87. 93.]",161.1049522681834,None,s,1,0.8354074921106758,161.1049522681834,None,None,None,,,,,,,12_MZ,42,F,12,2021_Nov_04_0935,Partial repeat,2021.2.3,120.09713935769038,
3,3,0,1,1,3,3,3,2,0,0,1,0,1,1,0,0,9,9,9,1,0,1,0,,,,,,,,,0.7917929938848239,162.00418018207563,None,"[87. 87. 93. 87. 93. 93. 93. 87. 93. 93. 87. 87. 87. 93. 93. 87. 93. 87.
 87. 87. 87. 93. 87. 93. 87. 87. 87. 93. 93. 87. 87. 93. 93. 87.]",162.8701462390228,None,s,1,0.7336880177989542,162.8701462390228,None,None,None,,,,,,,12_MZ,42,F,12,2021_Nov_04_0935,Partial repeat,2021.2.3,120.09713935769038,
3,3,0,1,1,3,3,3,2,0,0,1,0,1,1,0,0,9,9,9,,,,,,,,,,,,,,,,,,,,,,,,,,,,,,,,12_MZ,42,F,12,2021_Nov_04_0935,Partial repeat,2021.2.3,120.09713935769038,
3,3,0,1,1,2,3,3,2,0,0,0,0,1,1,0,0,10,10,10,0,0,0,0,,,,,,,163.6277797056233,None,0.8877570158282063,165.64275895865558,None,"[87. 93. 87. 93. 93. 93. 87. 87. 87. 87. 93. 87. 93. 93. 93. 87. 93. 87.
 93. 93. 87. 87. 93. 87. 87. 93. 87. 87. 87. 87. 87. 93. 93. 93.]",166.60858948200257,None,s,1,0.7868764569687983,166.60858948200257,None,None,None,,,,,,,12_MZ,42,F,12,2021_Nov_04_0935,Partial repeat,2021.2.3,120.09713935769038,
3,3,0,1,1,2,3,3,2,0,0,0,0,1,1,0,0,10,10,10,1,0,1,0,,,,,,,,,0.723602981834209,167.45785693989126,None,"[93. 93. 93. 93. 87. 87. 87. 87. 93. 93. 93. 87. 87. 87. 87. 87. 87. 93.
 93. 93. 93. 93. 93. 93. 87. 93. 93. 93. 93. 87. 87. 87. 87. 87.]",168.25720691740923,None,s,1,0.9143174889484271,168.25720691740923,None,None,None,,,,,,,12_MZ,42,F,12,2021_Nov_04_0935,Partial repeat,2021.2.3,120.09713935769038,
3,3,0,1,1,2,3,3,2,0,0,0,0,1,1,0,0,10,10,10,,,,,,,,,,,,,,,,,,,,,,,,,,,,,,,,12_MZ,42,F,12,2021_Nov_04_0935,Partial repeat,2021.2.3,120.09713935769038,
3,3,0,1,1,2,2,3,2,0,0,1,0,1,1,0,0,11,11,11,0,0,0,0,,,,,,,169.18971464821243,None,0.8818386781907375,172.42859726893062,None,"[93. 87. 93. 87. 93. 93. 93. 87. 93. 87. 93. 87. 87. 93. 87. 87. 93. 87.
 93. 93. 93. 93. 87. 87. 87. 93. 87. 93. 93. 93. 93. 87. 87. 87.]",173.3861142523234,None,s,1,0.5376665351138854,173.3861142523234,None,None,None,,,,,,,12_MZ,42,F,12,2021_Nov_04_0935,Partial repeat,2021.2.3,120.09713935769038,
3,3,0,1,1,2,2,3,2,0,0,1,0,1,1,0,0,11,11,11,1,0,1,0,,,,,,,,,0.9695226484308087,173.9856028422929,None,"[93. 93. 93. 87. 87. 93. 87. 93. 87. 87. 93. 87. 87. 93. 87. 93. 93. 87.
 93. 93. 93. 93. 87. 93. 87. 87. 93. 87. 87. 93. 87. 87. 87. 87.]",175.03474644055927,None,s,1,1.160863242282403,175.03474644055927,None,None,None,,,,,,,12_MZ,42,F,12,2021_Nov_04_0935,Partial repeat,2021.2.3,120.09713935769038,
3,3,0,1,1,2,2,3,2,0,0,1,0,1,1,0,0,11,11,11,,,,,,,,,,,,,,,,,,,,,,,,,,,,,,,,12_MZ,42,F,12,2021_Nov_04_0935,Partial repeat,2021.2.3,120.09713935769038,
3,3,0,1,1,3,3,3,2,0,1,1,0,0,1,0,0,12,12,12,0,0,0,0,,,,,,,176.22537897131735,None,0.8212104135293388,176.98306118639687,None,"[93. 87. 87. 87. 93. 93. 87. 87. 93. 87. 87. 93. 87. 87. 93. 87. 93. 93.
 93. 93. 87. 93. 93. 93. 87. 87. 93. 87. 87. 87. 87. 93. 87. 87.]",177.88229166599854,None,s,1,0.7133573363399819,177.88229166599854,None,None,None,,,,,,,12_MZ,42,F,12,2021_Nov_04_0935,Partial repeat,2021.2.3,120.09713935769038,
3,3,0,1,1,3,3,3,2,0,1,1,0,0,1,0,0,12,12,12,1,0,1,0,,,,,,,,,0.8526264276072661,178.6566160345293,None,"[93. 87. 87. 93. 87. 87. 93. 93. 93. 93. 87. 93. 93. 87. 93. 93. 87. 93.
 87. 87. 87. 87. 93. 93. 87. 93. 93. 93. 93. 93. 87. 93. 93. 87.]",179.5891667409653,None,l,1,0.6864683808853442,179.5891667409653,None,None,None,,,,,,,12_MZ,42,F,12,2021_Nov_04_0935,Partial repeat,2021.2.3,120.09713935769038,
3,3,0,1,1,3,3,3,2,0,1,1,0,0,1,0,0,12,12,12,,,,,,,,,,,,,,,,,,,,,,,,,,,,,,,,12_MZ,42,F,12,2021_Nov_04_0935,Partial repeat,2021.2.3,120.09713935769038,
3,3,0,1,1,3,3,2,2,1,0,1,1,0,1,0,0,13,13,13,0,0,0,0,,,,,,,180.29689299003292,None,0.9828943642212619,180.88807285075336,None,"[87. 87. 93. 93. 93. 93. 87. 93. 87. 93. 93. 93. 87. 93. 93. 87. 93. 93.
 87. 93. 93. 87. 87. 87. 87. 93. 93. 93. 87. 93. 93. 93. 93. 93.]",181.94547899549912,None,l,1,0.6012749616734254,181.94547899549912,None,None,None,,,,,,,12_MZ,42,F,12,2021_Nov_04_0935,Partial repeat,2021.2.3,120.09713935769038,
3,3,0,1,1,3,3,2,2,1,0,1,1,0,1,0,0,13,13,13,1,0,1,0,,,,,,,,,0.939638026926328,182.6115849477526,None,"[93. 87. 93. 93. 93. 87. 87. 87. 93. 87. 93. 87. 87. 93. 87. 93. 87. 93.
 93. 93. 93. 93. 93. 93. 93. 87. 93. 87. 87. 93. 93. 93. 93. 87.]",183.62739292492802,None,s,1,0.5833056950236823,183.62739292492802,None,None,None,,,,,,,12_MZ,42,F,12,2021_Nov_04_0935,Partial repeat,2021.2.3,120.09713935769038,
3,3,0,1,1,3,3,2,2,1,0,1,1,0,1,0,0,13,13,13,,,,,,,,,,,,,,,,,,,,,,,,,,,,,,,,12_MZ,42,F,12,2021_Nov_04_0935,Partial repeat,2021.2.3,120.09713935769038,
3,3,0,1,1,3,2,3,2,0,1,0,0,0,1,0,0,14,14,14,0,0,0,0,,,,,,,184.22685649923062,None,0.9123401270083027,184.90129427211787,None,"[87. 87. 93. 87. 93. 87. 93. 87. 87. 93. 93. 87. 93. 87. 93. 93. 87. 87.
 87. 87. 93. 87. 87. 87. 87. 87. 93. 87. 87. 87. 93. 87. 87. 87.]",185.89212378521677,None,s,1,0.7826090407728543,185.89212378521677,None,None,None,,,,,,,12_MZ,42,F,12,2021_Nov_04_0935,Partial repeat,2021.2.3,120.09713935769038,
3,3,0,1,1,3,2,3,2,0,1,0,0,0,1,0,0,14,14,14,1,0,1,0,,,,,,,,,0.7170594983700151,186.72472407398743,None,"[87. 93. 87. 87. 93. 87. 93. 87. 87. 87. 93. 87. 87. 87. 93. 93. 87. 93.
 87. 87. 87. 93. 93. 87. 93. 93. 93. 93. 87. 93. 93. 93. 87. 93.]",187.5157162530636,None,l,1,0.5510585761550146,187.5157162530636,None,None,None,,,,,,,12_MZ,42,F,12,2021_Nov_04_0935,Partial repeat,2021.2.3,120.09713935769038,
3,3,0,1,1,3,2,3,2,0,1,0,0,0,1,0,0,14,14,14,,,,,,,,,,,,,,,,,,,,,,,,,,,,,,,,12_MZ,42,F,12,2021_Nov_04_0935,Partial repeat,2021.2.3,120.09713935769038,
3,3,0,1,1,3,2,3,2,1,1,0,0,1,1,0,0,15,15,15,0,0,0,0,,,,,,,188.08191187686134,None,0.9835872185794298,188.9978056770169,None,"[87. 87. 93. 87. 93. 93. 93. 93. 93. 87. 93. 87. 87. 87. 87. 87. 93. 93.
 87. 87. 93. 93. 93. 93. 87. 87. 87. 87. 87. 93. 87. 93. 93. 87.]",190.0635455666786,None,l,1,0.627259504556946,190.0635455666786,None,None,None,,,,,,,12_MZ,42,F,12,2021_Nov_04_0935,Partial repeat,2021.2.3,120.09713935769038,
3,3,0,1,1,3,2,3,2,1,1,0,0,1,1,0,0,15,15,15,1,0,1,0,,,,,,,,,0.8455292433073488,190.75463928370527,None,"[93. 93. 87. 87. 87. 87. 87. 93. 87. 87. 93. 93. 93. 87. 87. 93. 87. 87.
 93. 93. 93. 93. 93. 87. 93. 93. 87. 87. 93. 93. 87. 93. 87. 87.]",191.67884822738347,None,l,1,0.9814329195739901,191.67884822738347,None,None,None,,,,,,,12_MZ,42,F,12,2021_Nov_04_0935,Partial repeat,2021.2.3,120.09713935769038,
3,3,0,1,1,3,2,3,2,1,1,0,0,1,1,0,0,15,15,15,,,,,,,,,,,,,,,,,,,,,,,,,,,,,,,,12_MZ,42,F,12,2021_Nov_04_0935,Partial repeat,2021.2.3,120.09713935769038,
3,3,0,1,1,2,3,3,3,1,1,0,1,1,1,0,0,16,16,16,0,0,0,0,,,,,,,192.66966491193523,None,0.9130758026596806,194.30993384959686,None,"[87. 87. 87. 87. 87. 87. 93. 93. 93. 87. 93. 87. 93. 93. 87. 87. 87. 87.
 87. 87. 93. 87. 93. 93. 93. 93. 87. 93. 93. 93. 87. 87. 87. 93.]",195.3090823547825,None,l,1,0.8538228714860452,195.3090823547825,None,None,None,,,,,,,12_MZ,42,F,12,2021_Nov_04_0935,Partial repeat,2021.2.3,120.09713935769038,
3,3,0,1,1,2,3,3,3,1,1,0,1,1,1,0,0,16,16,16,1,0,1,0,,,,,,,,,0.9205742041860903,196.21665555928303,None,"[93. 87. 93. 93. 87. 87. 87. 93. 87. 87. 93. 93. 93. 93. 87. 87. 93. 87.
 93. 93. 93. 87. 87. 87. 87. 87. 93. 93. 93. 87. 93. 93. 93. 87.]",197.21578097308384,None,l,1,0.8342288693449973,197.21578097308384,None,None,None,,,,,,,12_MZ,42,F,12,2021_Nov_04_0935,Partial repeat,2021.2.3,120.09713935769038,
3,3,0,1,1,2,3,3,3,1,1,0,1,1,1,0,0,16,16,16,,,,,,,,,,,,,,,,,,,,,,,,,,,,,,,,12_MZ,42,F,12,2021_Nov_04_0935,Partial repeat,2021.2.3,120.09713935769038,
3,3,0,1,1,2,3,2,3,0,1,0,0,0,1,0,0,17,17,17,0,0,0,0,,,,,,,198.07337319590545,None,0.853194728248269,199.0642001432949,None,"[93. 93. 87. 93. 87. 87. 93. 87. 87. 93. 87. 93. 93. 93. 87. 93. 93. 93.
 87. 93. 93. 87. 93. 87. 93. 87. 93. 93. 87. 87. 93. 87. 87. 87.]",199.99674379402995,None,s,1,0.645597912649805,199.99674379402995,None,None,None,,,,,,,12_MZ,42,F,12,2021_Nov_04_0935,Partial repeat,2021.2.3,120.09713935769038,
3,3,0,1,1,2,3,2,3,0,1,0,0,0,1,0,0,17,17,17,1,0,1,0,,,,,,,,,0.7111246458340211,200.70446715667447,None,"[87. 93. 93. 93. 87. 87. 87. 87. 87. 93. 93. 93. 93. 93. 87. 87. 93. 87.
 93. 93. 93. 87. 93. 87. 93. 87. 87. 87. 87. 87. 87. 93. 87. 87.]",201.50381071991887,None,l,1,0.5942333721650357,201.50381071991887,None,None,None,,,,,,,12_MZ,42,F,12,2021_Nov_04_0935,Partial repeat,2021.2.3,120.09713935769038,
3,3,0,1,1,2,3,2,3,0,1,0,0,0,1,0,0,17,17,17,,,,,,,,,,,,,,,,,,,,,,,,,,,,,,,,12_MZ,42,F,12,2021_Nov_04_0935,Partial repeat,2021.2.3,120.09713935769038,
3,3,0,1,1,3,3,2,3,0,0,1,0,1,1,0,0,18,18,18,0,0,0,0,,,,,,,202.1282498718749,None,0.7243965099267414,202.83596585810471,None,"[93. 93. 87. 87. 87. 87. 93. 93. 93. 87. 93. 93. 87. 87. 93. 87. 93. 87.
 87. 87. 87. 87. 87. 87. 87. 93. 87. 87. 93. 87. 93. 87. 93. 87.]",203.6353062142124,None,s,1,0.5907276509536814,203.6353062142124,None,None,None,,,,,,,12_MZ,42,F,12,2021_Nov_04_0935,Partial repeat,2021.2.3,120.09713935769038,
3,3,0,1,1,3,3,2,3,0,0,1,0,1,1,0,0,18,18,18,1,0,1,0,,,,,,,,,0.905943674500609,204.27643177810717,None,"[93. 87. 87. 93. 87. 93. 93. 93. 93. 87. 87. 87. 93. 93. 87. 93. 87. 93.
 93. 87. 93. 93. 87. 87. 93. 93. 87. 87. 87. 93. 93. 93. 93. 93.]",205.25891151060637,None,s,1,0.5834047955501092,205.25891151060637,None,None,None,,,,,,,12_MZ,42,F,12,2021_Nov_04_0935,Partial repeat,2021.2.3,120.09713935769038,
3,3,0,1,1,3,3,2,3,0,0,1,0,1,1,0,0,18,18,18,,,,,,,,,,,,,,,,,,,,,,,,,,,,,,,,12_MZ,42,F,12,2021_Nov_04_0935,Partial repeat,2021.2.3,120.09713935769038,
3,3,0,1,1,2,2,2,3,0,0,1,0,1,1,0,0,19,19,19,0,0,0,0,,,,,,,205.87503583975354,None,0.7015269610349085,206.49121757664898,None,"[93. 93. 93. 93. 87. 93. 87. 93. 87. 93. 87. 93. 93. 87. 87. 93. 93. 93.
 93. 93. 87. 87. 93. 87. 87. 93. 87. 87. 93. 93. 93. 87. 93. 93.]",207.27385163656982,None,s,1,0.6012156296429794,207.27385163656982,None,None,None,,,,,,,12_MZ,42,F,12,2021_Nov_04_0935,Partial repeat,2021.2.3,120.09713935769038,
3,3,0,1,1,2,2,2,3,0,0,1,0,1,1,0,0,19,19,19,1,0,1,0,,,,,,,,,0.801392340525665,207.93996239952844,None,"[93. 93. 93. 87. 93. 93. 93. 87. 93. 93. 87. 87. 93. 87. 87. 87. 93. 87.
 87. 93. 87. 87. 93. 87. 87. 87. 93. 87. 93. 87. 93. 87. 93. 87.]",208.82253661427706,None,s,1,0.6036084743925585,208.82253661427706,None,None,None,,,,,,,12_MZ,42,F,12,2021_Nov_04_0935,Partial repeat,2021.2.3,120.09713935769038,
3,3,0,1,1,2,2,2,3,0,0,1,0,1,1,0,0,19,19,19,,,,,,,,,,,,,,,,,,,,,,,,,,,,,,,,12_MZ,42,F,12,2021_Nov_04_0935,Partial repeat,2021.2.3,120.09713935769038,
3,3,0,1,1,2,3,3,2,0,1,0,0,0,1,0,0,20,20,20,0,0,0,0,,,,,,,209.44700046118624,None,0.9868142201542607,209.97155269678512,None,"[87. 93. 87. 93. 93. 87. 93. 87. 93. 87. 93. 87. 87. 87. 87. 87. 87. 93.
 93. 93. 93. 93. 93. 93. 87. 93. 87. 87. 87. 87. 93. 87. 93. 93.]",211.03729803857925,None,s,1,0.596851357916421,211.03729803857925,None,None,None,,,,,,,12_MZ,42,F,12,2021_Nov_04_0935,Partial repeat,2021.2.3,120.09713935769038,
3,3,0,1,1,2,3,3,2,0,1,0,0,0,1,0,0,20,20,20,1,0,1,0,,,,,,,,,0.9225806495285245,211.68676087524045,None,"[93. 87. 93. 93. 87. 87. 93. 93. 87. 93. 93. 87. 93. 87. 93. 93. 87. 93.
 87. 87. 93. 93. 87. 87. 87. 87. 87. 87. 93. 93. 87. 93. 87. 93.]",212.68591066328077,None,l,1,0.6273509079551332,212.68591066328077,None,None,None,,,,,,,12_MZ,42,F,12,2021_Nov_04_0935,Partial repeat,2021.2.3,120.09713935769038,
3,3,0,1,1,2,3,3,2,0,1,0,0,0,1,0,0,20,20,20,,,,,,,,,,,,,,,,,,,,,,,,,,,,,,,,12_MZ,42,F,12,2021_Nov_04_0935,Partial repeat,2021.2.3,120.09713935769038,
3,3,0,1,1,3,2,3,2,0,0,0,0,1,1,0,0,21,21,21,0,0,0,0,,,,,,,213.33534688070677,None,0.9542085430749246,213.90986887300573,None,"[87. 87. 87. 87. 87. 87. 93. 87. 87. 93. 93. 87. 87. 87. 93. 93. 93. 93.
 93. 87. 87. 93. 87. 87. 93. 87. 87. 93. 93. 93. 87. 93. 93. 93.]",214.94230296794854,None,s,1,0.5314113355434529,214.94230296794854,None,None,None,,,,,,,12_MZ,42,F,12,2021_Nov_04_0935,Partial repeat,2021.2.3,120.09713935769038,
3,3,0,1,1,3,2,3,2,0,0,0,0,1,1,0,0,21,21,21,1,0,1,0,,,,,,,,,0.7392104861058455,215.5334764143954,None,"[93. 87. 87. 87. 93. 93. 93. 93. 87. 87. 93. 87. 87. 93. 93. 87. 93. 93.
 87. 93. 87. 93. 87. 93. 93. 87. 87. 87. 93. 87. 93. 87. 93. 93.]",216.3494438504115,None,s,1,0.5317920226789283,216.3494438504115,None,None,None,,,,,,,12_MZ,42,F,12,2021_Nov_04_0935,Partial repeat,2021.2.3,120.09713935769038,
3,3,0,1,1,3,2,3,2,0,0,0,0,1,1,0,0,21,21,21,,,,,,,,,,,,,,,,,,,,,,,,,,,,,,,,12_MZ,42,F,12,2021_Nov_04_0935,Partial repeat,2021.2.3,120.09713935769038,
3,3,0,1,1,3,3,2,3,1,0,1,0,0,1,0,0,22,22,22,0,0,0,0,,,,,,,216.89064369159405,None,0.7945189308185757,217.4151956064792,None,"[93. 87. 87. 87. 93. 87. 93. 87. 93. 87. 87. 93. 93. 93. 93. 93. 87. 93.
 87. 93. 87. 93. 87. 93. 93. 87. 93. 87. 87. 87. 87. 93. 93. 87.]",218.28946205411978,None,l,1,0.559880126574626,218.28946205411978,None,None,None,,,,,,,12_MZ,42,F,12,2021_Nov_04_0935,Partial repeat,2021.2.3,120.09713935769038,
3,3,0,1,1,3,3,2,3,1,0,1,0,0,1,0,0,22,22,22,1,0,1,0,,,,,,,,,0.8756129885208006,218.90559760824567,None,"[93. 87. 93. 93. 93. 87. 93. 93. 87. 87. 87. 93. 93. 87. 93. 93. 93. 87.
 87. 93. 93. 93. 87. 87. 87. 87. 93. 87. 93. 87. 87. 87. 93. 87.]",219.86311427092483,None,s,1,0.5381787148571675,219.86311427092483,None,None,None,,,,,,,12_MZ,42,F,12,2021_Nov_04_0935,Partial repeat,2021.2.3,120.09713935769038,
3,3,0,1,1,3,3,2,3,1,0,1,0,0,1,0,0,22,22,22,,,,,,,,,,,,,,,,,,,,,,,,,,,,,,,,12_MZ,42,F,12,2021_Nov_04_0935,Partial repeat,2021.2.3,120.09713935769038,
3,3,0,1,1,3,3,3,3,1,0,1,1,0,1,0,0,23,23,23,0,0,0,0,,,,,,,220.420976791234,None,0.8837473237338669,221.01213452271077,None,"[87. 93. 87. 93. 87. 87. 93. 87. 93. 87. 87. 87. 87. 93. 87. 87. 93. 93.
 87. 93. 93. 93. 93. 87. 93. 93. 93. 87. 87. 93. 87. 87. 93. 87.]",221.97795414179268,None,l,1,0.5038469570832831,221.97795414179268,None,None,None,,,,,,,12_MZ,42,F,12,2021_Nov_04_0935,Partial repeat,2021.2.3,120.09713935769038,
3,3,0,1,1,3,3,3,3,1,0,1,1,0,1,0,0,23,23,23,1,0,1,0,,,,,,,,,0.7697981622242961,222.53581120996932,None,"[87. 93. 93. 93. 93. 93. 93. 93. 93. 87. 87. 87. 87. 87. 87. 87. 93. 87.
 93. 93. 93. 87. 87. 87. 87. 87. 93. 93. 93. 93. 87. 87. 87. 93.]",223.38510721137538,None,s,1,0.583934614545683,223.38510721137538,None,None,None,,,,,,,12_MZ,42,F,12,2021_Nov_04_0935,Partial repeat,2021.2.3,120.09713935769038,
3,3,0,1,1,3,3,3,3,1,0,1,1,0,1,0,0,23,23,23,,,,,,,,,,,,,,,,,,,,,,,,,,,,,,,,12_MZ,42,F,12,2021_Nov_04_0935,Partial repeat,2021.2.3,120.09713935769038,
3,3,0,1,1,3,3,3,2,1,0,1,0,0,1,0,0,24,24,24,0,0,0,0,,,,,,,223.99292120770508,None,0.8296333840423838,224.48417053500816,None,"[87. 87. 87. 87. 87. 87. 87. 87. 87. 87. 87. 87. 93. 87. 93. 93. 87. 87.
 87. 93. 87. 87. 93. 93. 87. 87. 93. 93. 93. 87. 87. 93. 87. 93.]",225.39172898667948,None,l,1,0.5776502300304855,225.39172898667948,None,None,None,,,,,,,12_MZ,42,F,12,2021_Nov_04_0935,Partial repeat,2021.2.3,120.09713935769038,
3,3,0,1,1,3,3,3,2,1,0,1,0,0,1,0,0,24,24,24,1,0,1,0,,,,,,,,,0.7496146203307548,226.03283017633476,None,"[93. 93. 93. 93. 93. 87. 93. 87. 87. 93. 87. 93. 93. 87. 87. 93. 93. 87.
 87. 87. 87. 93. 93. 93. 87. 87. 93. 93. 93. 93. 87. 87. 93. 93.]",226.8571352058309,None,s,1,0.5522718359977716,226.8571352058309,None,None,None,,,,,,,12_MZ,42,F,12,2021_Nov_04_0935,Partial repeat,2021.2.3,120.09713935769038,
3,3,0,1,1,3,3,3,2,1,0,1,0,0,1,0,0,24,24,24,,,,,,,,,,,,,,,,,,,,,,,,,,,,,,,,12_MZ,42,F,12,2021_Nov_04_0935,Partial repeat,2021.2.3,120.09713935769038,
3,3,0,1,1,3,3,3,3,0,1,1,1,0,1,0,0,25,25,25,0,0,0,0,,,,,,,227.4316440488691,None,0.8824640700484775,227.91456636624343,None,"[93. 87. 87. 87. 93. 93. 87. 93. 93. 93. 93. 93. 87. 93. 93. 87. 93. 87.
 87. 93. 87. 87. 87. 87. 87. 87. 93. 87. 93. 87. 93. 93. 93. 93.]",228.8720830289226,None,s,1,0.5523879343492126,228.8720830289226,None,None,None,,,,,,,12_MZ,42,F,12,2021_Nov_04_0935,Partial repeat,2021.2.3,120.09713935769038,
3,3,0,1,1,3,3,3,3,0,1,1,1,0,1,0,0,25,25,25,1,0,1,0,,,,,,,,,0.9212415464526608,229.48823012874095,None,"[93. 93. 93. 93. 87. 93. 87. 93. 93. 93. 87. 87. 87. 87. 87. 87. 93. 87.
 93. 87. 93. 93. 87. 87. 93. 93. 93. 87. 87. 87. 87. 93. 87. 93.]",230.48735746682382,None,l,1,0.5370876469255563,230.48735746682382,None,None,None,,,,,,,12_MZ,42,F,12,2021_Nov_04_0935,Partial repeat,2021.2.3,120.09713935769038,
3,3,0,1,1,3,3,3,3,0,1,1,1,0,1,0,0,25,25,25,,,,,,,,,,,,,,,,,,,,,,,,,,,,,,,,12_MZ,42,F,12,2021_Nov_04_0935,Partial repeat,2021.2.3,120.09713935769038,
3,3,0,1,1,2,3,3,2,1,1,0,0,1,1,0,0,26,26,26,0,0,0,0,,,,,,,231.03690388146936,None,0.8027626047779548,231.60308090387377,None,"[87. 93. 93. 87. 87. 93. 93. 93. 87. 93. 87. 87. 87. 87. 93. 93. 87. 87.
 93. 87. 93. 93. 93. 93. 93. 87. 93. 87. 93. 93. 93. 93. 87. 93.]",232.48565351505397,None,l,1,0.7148531449329312,232.48565351505397,None,None,None,,,,,,,12_MZ,42,F,12,2021_Nov_04_0935,Partial repeat,2021.2.3,120.09713935769038,
3,3,0,1,1,2,3,3,2,1,1,0,0,1,1,0,0,26,26,26,1,0,1,0,,,,,,,,,0.9996125002601891,233.25166498505791,None,"[87. 87. 87. 93. 87. 93. 87. 93. 93. 93. 93. 87. 87. 93. 87. 93. 87. 93.
 93. 87. 87. 87. 87. 87. 87. 87. 87. 93. 93. 87. 87. 87. 87. 87.]",234.32575850388355,None,l,1,0.6507581957243929,234.32575850388355,None,None,None,,,,,,,12_MZ,42,F,12,2021_Nov_04_0935,Partial repeat,2021.2.3,120.09713935769038,
3,3,0,1,1,2,3,3,2,1,1,0,0,1,1,0,0,26,26,26,,,,,,,,,,,,,,,,,,,,,,,,,,,,,,,,12_MZ,42,F,12,2021_Nov_04_0935,Partial repeat,2021.2.3,120.09713935769038,
3,3,0,1,1,3,2,2,3,0,0,0,0,1,1,0,0,27,27,27,0,0,0,0,,,,,,,235.0084915360453,None,0.7105997951200519,235.50808134325155,None,"[87. 87. 87. 93. 87. 87. 87. 87. 93. 93. 87. 93. 87. 93. 93. 93. 93. 87.
 93. 87. 87. 87. 87. 87. 93. 87. 87. 93. 93. 93. 93. 87. 93. 87.]",236.29907384304147,None,s,1,0.5980511477847585,236.29907384304147,None,None,None,,,,,,,12_MZ,42,F,12,2021_Nov_04_0935,Partial repeat,2021.2.3,120.09713935769038,
3,3,0,1,1,3,2,2,3,0,0,0,0,1,1,0,0,27,27,27,1,0,1,0,,,,,,,,,0.9030241990413108,236.95686657605438,None,"[87. 87. 93. 87. 87. 93. 87. 87. 93. 87. 87. 87. 93. 93. 93. 87. 93. 93.
 93. 87. 93. 87. 93. 93. 87. 87. 93. 93. 87. 87. 87. 87. 93. 93.]",237.9393479121219,None,s,1,0.5732144391538441,237.9393479121219,None,None,None,,,,,,,12_MZ,42,F,12,2021_Nov_04_0935,Partial repeat,2021.2.3,120.09713935769038,
3,3,0,1,1,3,2,2,3,0,0,0,0,1,1,0,0,27,27,27,,,,,,,,,,,,,,,,,,,,,,,,,,,,,,,,12_MZ,42,F,12,2021_Nov_04_0935,Partial repeat,2021.2.3,120.09713935769038,
3,3,0,1,1,2,2,2,3,0,1,1,0,0,1,0,0,28,28,28,0,0,0,0,,,,,,,238.53048415578223,None,0.8130022311732874,238.93848423018778,None,"[93. 87. 93. 87. 93. 93. 87. 93. 87. 93. 93. 93. 87. 87. 87. 93. 87. 93.
 87. 87. 87. 93. 93. 93. 87. 93. 93. 93. 93. 93. 87. 87. 93. 93.]",239.8294008491215,None,s,1,0.5712189586510021,239.8294008491215,None,None,None,,,,,,,12_MZ,42,F,12,2021_Nov_04_0935,Partial repeat,2021.2.3,120.09713935769038,
3,3,0,1,1,2,2,2,3,0,1,1,0,0,1,0,0,28,28,28,1,0,1,0,,,,,,,,,0.9238609260395685,240.46219074381838,None,"[87. 87. 87. 93. 93. 87. 87. 93. 93. 93. 93. 93. 87. 93. 93. 93. 87. 93.
 93. 93. 93. 87. 87. 87. 87. 87. 87. 93. 93. 93. 87. 87. 87. 93.]",241.4613315518758,None,l,1,0.5712920813693927,241.4613315518758,None,None,None,,,,,,,12_MZ,42,F,12,2021_Nov_04_0935,Partial repeat,2021.2.3,120.09713935769038,
3,3,0,1,1,2,2,2,3,0,1,1,0,0,1,0,0,28,28,28,,,,,,,,,,,,,,,,,,,,,,,,,,,,,,,,12_MZ,42,F,12,2021_Nov_04_0935,Partial repeat,2021.2.3,120.09713935769038,
3,3,0,1,1,2,2,3,3,0,0,1,1,1,1,0,0,29,29,29,0,0,0,0,,,,,,,242.05248286907897,None,0.7069447334990172,242.48544601330445,None,"[93. 87. 87. 87. 87. 93. 93. 87. 93. 93. 93. 87. 93. 93. 87. 87. 93. 93.
 93. 93. 87. 87. 87. 93. 93. 87. 87. 87. 87. 93. 87. 93. 93. 93.]",243.26816410020888,None,s,1,0.5555816011520847,243.26816410020888,None,None,None,,,,,,,12_MZ,42,F,12,2021_Nov_04_0935,Partial repeat,2021.2.3,120.09713935769038,
3,3,0,1,1,2,2,3,3,0,0,1,1,1,1,0,0,29,29,29,1,0,1,0,,,,,,,,,0.8642231071452199,243.8759325551964,None,"[93. 87. 93. 87. 87. 87. 93. 93. 93. 87. 93. 87. 87. 87. 87. 93. 93. 87.
 93. 87. 93. 87. 93. 87. 87. 87. 87. 93. 93. 93. 93. 87. 93. 87.]",244.8168061022833,None,s,1,0.5749001102440161,244.8168061022833,None,None,None,,,,,,,12_MZ,42,F,12,2021_Nov_04_0935,Partial repeat,2021.2.3,120.09713935769038,
3,3,0,1,1,2,2,3,3,0,0,1,1,1,1,0,0,29,29,29,,,,,,,,,,,,,,,,,,,,,,,,,,,,,,,,12_MZ,42,F,12,2021_Nov_04_0935,Partial repeat,2021.2.3,120.09713935769038,
3,3,0,1,1,3,3,2,2,1,1,1,1,1,1,0,0,30,30,30,0,0,0,0,,,,,,,245.41628410870146,None,0.7135610609585354,245.8325999680569,None,"[87. 93. 93. 93. 87. 87. 93. 93. 93. 93. 87. 87. 93. 93. 87. 93. 87. 93.
 93. 87. 93. 93. 93. 87. 87. 87. 87. 87. 93. 87. 93. 87. 87. 93.]",246.63191498778406,None,l,1,0.5518032733147038,246.63191498778406,None,None,None,,,,,,,12_MZ,42,F,12,2021_Nov_04_0935,Partial repeat,2021.2.3,120.09713935769038,
3,3,0,1,1,3,3,2,2,1,1,1,1,1,1,0,0,30,30,30,1,0,1,0,,,,,,,,,0.7308618630615156,247.2397151934257,None,"[93. 87. 93. 93. 87. 93. 93. 87. 87. 87. 93. 87. 93. 93. 87. 93. 87. 87.
 87. 93. 87. 87. 87. 87. 87. 87. 87. 87. 93. 93. 87. 93. 93. 93.]",248.05569289227935,None,l,1,0.6800922722582072,248.05569289227935,None,None,None,,,,,,,12_MZ,42,F,12,2021_Nov_04_0935,Partial repeat,2021.2.3,120.09713935769038,
3,3,0,1,1,3,3,2,2,1,1,1,1,1,1,0,0,30,30,30,,,,,,,,,,,,,,,,,,,,,,,,,,,,,,,,12_MZ,42,F,12,2021_Nov_04_0935,Partial repeat,2021.2.3,120.09713935769038,
3,3,0,1,1,3,2,3,2,1,0,0,0,0,1,0,0,31,31,31,0,0,0,0,,,,,,,248.76344576058216,None,0.959427420117808,249.1547456323608,None,"[93. 87. 87. 93. 93. 87. 87. 87. 93. 87. 87. 87. 93. 93. 87. 87. 87. 87.
 93. 93. 93. 87. 87. 87. 87. 87. 93. 93. 93. 93. 87. 87. 93. 87.]",250.19553175289911,None,l,1,0.5562438748964951,250.19553175289911,None,None,None,,,,,,,12_MZ,42,F,12,2021_Nov_04_0935,Partial repeat,2021.2.3,120.09713935769038,
3,3,0,1,1,3,2,3,2,1,0,0,0,0,1,0,0,31,31,31,1,0,1,0,,,,,,,,,0.7702894932147932,250.8033515220751,None,"[87. 87. 93. 93. 93. 93. 93. 87. 93. 87. 87. 93. 93. 87. 87. 87. 87. 87.
 87. 93. 87. 93. 87. 87. 93. 87. 93. 93. 87. 93. 93. 93. 93. 87.]",251.66094246204193,None,s,1,0.6108437749621771,251.66094246204193,None,None,None,,,,,,,12_MZ,42,F,12,2021_Nov_04_0935,Partial repeat,2021.2.3,120.09713935769038,
3,3,0,1,1,3,2,3,2,1,0,0,0,0,1,0,0,31,31,31,,,,,,,,,,,,,,,,,,,,,,,,,,,,,,,,12_MZ,42,F,12,2021_Nov_04_0935,Partial repeat,2021.2.3,120.09713935769038,
3,3,0,1,1,2,3,2,3,0,0,0,0,1,1,0,0,32,32,32,0,0,0,0,,,,,,,252.29374197814911,None,0.9447558448093485,252.7766556362543,None,"[87. 87. 87. 93. 87. 87. 93. 93. 93. 87. 87. 87. 87. 93. 87. 93. 93. 87.
 87. 87. 87. 87. 87. 93. 93. 93. 87. 93. 93. 87. 87. 87. 93. 93.]",253.8091243682743,None,s,1,2.158749739146174,253.8091243682743,None,None,None,,,,,,,12_MZ,42,F,12,2021_Nov_04_0935,Partial repeat,2021.2.3,120.09713935769038,
3,3,0,1,1,2,3,2,3,0,0,0,0,1,1,0,0,32,32,32,1,0,1,0,,,,,,,,,0.840919719791607,256.0238835475808,None,"[87. 87. 87. 93. 87. 93. 87. 93. 87. 93. 87. 93. 93. 87. 93. 87. 87. 93.
 93. 93. 87. 93. 87. 93. 93. 87. 87. 87. 93. 87. 93. 93. 87. 93.]",256.9397731784586,None,s,1,0.5961002464831608,256.9397731784586,None,None,None,,,,,,,12_MZ,42,F,12,2021_Nov_04_0935,Partial repeat,2021.2.3,120.09713935769038,
3,3,0,1,1,2,3,2,3,0,0,0,0,1,1,0,0,32,32,32,,,,,,,,,,,,,,,,,,,,,,,,,,,,,,,,12_MZ,42,F,12,2021_Nov_04_0935,Partial repeat,2021.2.3,120.09713935769038,
3,3,0,1,1,2,3,3,3,0,0,0,1,1,1,0,0,33,33,33,0,0,0,0,,,,,,,257.54762790542543,None,0.8976161896767287,257.97222972335885,None,"[87. 87. 87. 93. 93. 87. 87. 87. 93. 87. 93. 93. 93. 93. 87. 87. 87. 87.
 87. 93. 87. 93. 87. 87. 93. 93. 93. 87. 93. 87. 93. 93. 93. 87.]",258.946432477263,None,s,1,0.509141298475356,258.946432477263,None,None,None,,,,,,,12_MZ,42,F,12,2021_Nov_04_0935,Partial repeat,2021.2.3,120.09713935769038,
3,3,0,1,1,2,3,3,3,0,0,0,1,1,1,0,0,33,33,33,1,0,1,0,,,,,,,,,0.9267173598360834,259.52089449610435,None,"[93. 93. 87. 87. 87. 87. 87. 87. 87. 93. 93. 87. 87. 87. 87. 87. 87. 93.
 87. 87. 93. 87. 93. 93. 87. 87. 87. 87. 93. 87. 93. 93. 87. 93.]",260.52838732975715,None,s,1,0.6065632095054525,260.52838732975715,None,None,None,,,,,,,12_MZ,42,F,12,2021_Nov_04_0935,Partial repeat,2021.2.3,120.09713935769038,
3,3,0,1,1,2,3,3,3,0,0,0,1,1,1,0,0,33,33,33,,,,,,,,,,,,,,,,,,,,,,,,,,,,,,,,12_MZ,42,F,12,2021_Nov_04_0935,Partial repeat,2021.2.3,120.09713935769038,
3,3,0,1,1,3,2,3,3,1,1,0,1,1,1,0,0,34,34,34,0,0,0,0,,,,,,,261.15283642383724,None,0.7684281492428375,261.56083681895655,None,"[87. 93. 93. 87. 93. 93. 93. 93. 87. 87. 87. 87. 93. 93. 87. 93. 93. 93.
 93. 93. 93. 93. 93. 93. 87. 87. 93. 93. 87. 93. 87. 93. 93. 93.]",262.4101078046956,None,l,1,0.48485974522054676,262.4101078046956,None,None,None,,,,,,,12_MZ,42,F,12,2021_Nov_04_0935,Partial repeat,2021.2.3,120.09713935769038,
3,3,0,1,1,3,2,3,3,1,1,0,1,1,1,0,0,34,34,34,1,0,1,0,,,,,,,,,0.7245741657951499,262.95132239870736,None,"[87. 93. 93. 87. 93. 93. 93. 93. 87. 93. 87. 93. 87. 93. 87. 87. 93. 93.
 93. 87. 87. 93. 93. 93. 87. 87. 87. 87. 93. 87. 87. 87. 93. 93.]",263.7506342112978,None,l,1,0.5843547494636141,263.7506342112978,None,None,None,,,,,,,12_MZ,42,F,12,2021_Nov_04_0935,Partial repeat,2021.2.3,120.09713935769038,
3,3,0,1,1,3,2,3,3,1,1,0,1,1,1,0,0,34,34,34,,,,,,,,,,,,,,,,,,,,,,,,,,,,,,,,12_MZ,42,F,12,2021_Nov_04_0935,Partial repeat,2021.2.3,120.09713935769038,
3,3,0,1,1,3,2,2,3,0,1,0,0,0,1,0,0,35,35,35,0,0,0,0,,,,,,,264.3667736139878,None,0.9198239302499295,264.8247463315166,None,"[93. 87. 93. 87. 93. 93. 87. 93. 87. 87. 87. 87. 87. 87. 87. 87. 93. 93.
 87. 87. 87. 93. 87. 93. 87. 93. 93. 93. 87. 93. 87. 87. 93. 93.]",265.8238634067618,None,s,1,0.5271605964587707,265.8238634067618,None,None,None,,,,,,,12_MZ,42,F,12,2021_Nov_04_0935,Partial repeat,2021.2.3,120.09713935769038,
3,3,0,1,1,3,2,2,3,0,1,0,0,0,1,0,0,35,35,35,1,0,1,0,,,,,,,,,0.8645274161975971,266.406698939015,None,"[93. 93. 87. 93. 87. 93. 93. 87. 93. 93. 87. 93. 93. 87. 93. 87. 93. 87.
 93. 93. 87. 93. 87. 87. 93. 93. 87. 93. 87. 93. 87. 93. 87. 87.]",267.34756959967876,None,l,1,1.163064941679977,267.34756959967876,None,None,None,,,,,,,12_MZ,42,F,12,2021_Nov_04_0935,Partial repeat,2021.2.3,120.09713935769038,
3,3,0,1,1,3,2,2,3,0,1,0,0,0,1,0,0,35,35,35,,,,,,,,,,,,,,,,,,,,,,,,,,,,,,,,12_MZ,42,F,12,2021_Nov_04_0935,Partial repeat,2021.2.3,120.09713935769038,
3,3,0,1,1,3,3,2,2,0,0,1,1,1,1,0,0,36,36,36,0,0,0,0,,,,,,,268.529880251927,None,0.8098078857144986,269.0460932904774,None,"[87. 93. 87. 87. 87. 87. 87. 87. 93. 93. 87. 93. 93. 87. 93. 87. 93. 87.
 93. 87. 87. 87. 93. 93. 87. 93. 93. 93. 93. 87. 93. 87. 87. 93.]",269.9369999672872,None,s,1,0.686078713766733,269.9369999672872,None,None,None,,,,,,,12_MZ,42,F,12,2021_Nov_04_0935,Partial repeat,2021.2.3,120.09713935769038,
3,3,0,1,1,3,3,2,2,0,0,1,1,1,1,0,0,36,36,36,1,0,1,0,,,,,,,,,0.7984310133762975,270.6863606245706,None,"[93. 93. 93. 87. 93. 93. 87. 87. 93. 93. 93. 87. 93. 87. 93. 87. 87. 87.
 87. 87. 93. 93. 93. 93. 87. 93. 87. 93. 93. 87. 87. 87. 93. 93.]",271.56062867577964,None,s,1,0.5665153718533702,271.56062867577964,None,None,None,,,,,,,12_MZ,42,F,12,2021_Nov_04_0935,Partial repeat,2021.2.3,120.09713935769038,
3,3,0,1,1,3,3,2,2,0,0,1,1,1,1,0,0,36,36,36,,,,,,,,,,,,,,,,,,,,,,,,,,,,,,,,12_MZ,42,F,12,2021_Nov_04_0935,Partial repeat,2021.2.3,120.09713935769038,
3,3,0,1,1,2,2,3,2,1,1,1,0,1,1,0,0,37,37,37,0,0,0,0,,,,,,,272.14346292517814,None,0.7105836547537313,272.55143317321165,None,"[93. 93. 93. 87. 87. 87. 87. 93. 87. 87. 87. 87. 93. 87. 87. 87. 93. 93.
 87. 93. 87. 87. 93. 87. 87. 87. 93. 87. 87. 93. 93. 87. 93. 93.]",273.3424458779633,None,l,1,0.7369236980935057,273.3424458779633,None,None,None,,,,,,,12_MZ,42,F,12,2021_Nov_04_0935,Partial repeat,2021.2.3,120.09713935769038,
3,3,0,1,1,2,2,3,2,1,1,1,0,1,1,0,0,37,37,37,1,0,1,0,,,,,,,,,0.7860376645382123,274.14174101344236,None,"[93. 87. 93. 87. 93. 93. 93. 93. 93. 87. 87. 93. 93. 93. 87. 93. 93. 87.
 87. 87. 87. 93. 87. 87. 93. 93. 87. 93. 87. 93. 93. 87. 93. 93.]",275.00768878970996,None,l,1,0.6065632095054525,275.00768878970996,None,None,None,,,,,,,12_MZ,42,F,12,2021_Nov_04_0935,Partial repeat,2021.2.3,120.09713935769038,
3,3,0,1,1,2,2,3,2,1,1,1,0,1,1,0,0,37,37,37,,,,,,,,,,,,,,,,,,,,,,,,,,,,,,,,12_MZ,42,F,12,2021_Nov_04_0935,Partial repeat,2021.2.3,120.09713935769038,
3,3,0,1,1,2,3,2,2,1,0,0,1,0,1,0,0,38,38,38,0,0,0,0,,,,,,,275.6404812501163,None,0.7260068161196761,276.0817646692833,None,"[93. 93. 87. 93. 87. 93. 93. 87. 87. 87. 93. 93. 93. 87. 87. 87. 93. 87.
 87. 87. 93. 87. 87. 93. 87. 87. 93. 87. 93. 87. 93. 93. 93. 87.]",276.8894188860588,None,l,1,0.6927983067427022,276.8894188860588,None,None,None,,,,,,,12_MZ,42,F,12,2021_Nov_04_0935,Partial repeat,2021.2.3,120.09713935769038,
3,3,0,1,1,2,3,2,2,1,0,0,1,0,1,0,0,38,38,38,1,0,1,0,,,,,,,,,0.8374530763894629,277.63877793977383,None,"[87. 93. 87. 93. 93. 87. 87. 87. 87. 93. 93. 87. 87. 93. 93. 93. 87. 87.
 93. 87. 93. 87. 87. 87. 93. 93. 93. 93. 87. 93. 93. 93. 87. 93.]",278.5546553835319,None,s,1,0.6765730810725472,278.5546553835319,None,None,None,,,,,,,12_MZ,42,F,12,2021_Nov_04_0935,Partial repeat,2021.2.3,120.09713935769038,
3,3,0,1,1,2,3,2,2,1,0,0,1,0,1,0,0,38,38,38,,,,,,,,,,,,,,,,,,,,,,,,,,,,,,,,12_MZ,42,F,12,2021_Nov_04_0935,Partial repeat,2021.2.3,120.09713935769038,
3,3,0,1,1,3,3,2,2,0,1,1,1,0,1,0,0,39,39,39,0,0,0,0,,,,,,,279.26238067045836,None,0.949985755172839,279.70367210746736,None,"[93. 87. 87. 87. 93. 87. 93. 93. 93. 87. 87. 87. 87. 93. 87. 87. 87. 87.
 93. 93. 87. 87. 87. 87. 87. 93. 87. 87. 87. 93. 93. 87. 93. 93.]",280.72780068029783,None,s,1,0.8544482631576784,280.72780068029783,None,None,None,,,,,,,12_MZ,42,F,12,2021_Nov_04_0935,Partial repeat,2021.2.3,120.09713935769038,
3,3,0,1,1,3,3,2,2,0,1,1,1,0,1,0,0,39,39,39,1,0,1,0,,,,,,,,,0.9719542521861912,281.64368229333365,None,"[93. 93. 93. 87. 87. 93. 87. 87. 93. 87. 87. 93. 93. 87. 93. 87. 87. 87.
 87. 87. 87. 87. 87. 93. 93. 93. 87. 93. 93. 87. 87. 93. 93. 93.]",282.6927716909885,None,l,1,0.921512058881035,282.6927716909885,None,None,None,,,,,,,12_MZ,42,F,12,2021_Nov_04_0935,Partial repeat,2021.2.3,120.09713935769038,
3,3,0,1,1,3,3,2,2,0,1,1,1,0,1,0,0,39,39,39,,,,,,,,,,,,,,,,,,,,,,,,,,,,,,,,12_MZ,42,F,12,2021_Nov_04_0935,Partial repeat,2021.2.3,120.09713935769038,
3,3,0,1,1,2,2,2,2,1,1,1,1,1,1,0,0,40,40,40,0,0,0,0,,,,,,,283.63366351875504,None,0.9576197069499258,284.00831578495,None,"[87. 93. 87. 93. 87. 87. 87. 87. 87. 93. 87. 93. 87. 93. 87. 87. 93. 93.
 87. 87. 87. 93. 93. 93. 93. 87. 93. 93. 93. 93. 93. 93. 93. 93.]",285.0407726505638,None,l,1,0.7345789603957655,285.0407726505638,None,None,None,,,,,,,12_MZ,42,F,12,2021_Nov_04_0935,Partial repeat,2021.2.3,120.09713935769038,
3,3,0,1,1,2,2,2,2,1,1,1,1,1,1,0,0,40,40,40,1,0,1,0,,,,,,,,,0.9769304834988009,285.8317577739391,None,"[87. 87. 93. 87. 87. 93. 87. 93. 87. 87. 87. 87. 93. 93. 87. 87. 87. 87.
 93. 87. 87. 93. 93. 93. 93. 93. 87. 93. 93. 87. 87. 93. 87. 87.]",286.88920208361253,None,l,1,0.8052087715016114,286.88920208361253,None,None,None,,,,,,,12_MZ,42,F,12,2021_Nov_04_0935,Partial repeat,2021.2.3,120.09713935769038,
3,3,0,1,1,2,2,2,2,1,1,1,1,1,1,0,0,40,40,40,,,,,,,,,,,,,,,,,,,,,,,,,,,,,,,,12_MZ,42,F,12,2021_Nov_04_0935,Partial repeat,2021.2.3,120.09713935769038,
3,3,0,1,1,2,2,2,3,1,1,1,0,1,1,0,0,41,41,41,0,0,0,0,,,,,,,287.7134984538394,None,0.8635415974752967,288.113160934765,None,"[87. 93. 93. 87. 93. 93. 87. 93. 87. 87. 87. 93. 87. 87. 87. 87. 93. 87.
 87. 87. 93. 87. 87. 87. 93. 93. 87. 87. 93. 93. 93. 93. 93. 87.]",289.0540627046554,None,l,1,0.6083470189810214,289.0540627046554,None,None,None,,,,,,,12_MZ,42,F,12,2021_Nov_04_0935,Partial repeat,2021.2.3,120.09713935769038,
3,3,0,1,1,2,2,2,3,1,1,1,0,1,1,0,0,41,41,41,1,0,1,0,,,,,,,,,0.7298347618266198,289.72843056196086,None,"[87. 87. 93. 93. 93. 87. 87. 93. 93. 87. 93. 93. 87. 93. 87. 93. 93. 93.
 93. 93. 87. 93. 93. 87. 93. 87. 93. 93. 87. 93. 93. 93. 93. 87.]",290.5360751573261,None,l,1,1.029430607869699,290.5360751573261,None,None,None,,,,,,,12_MZ,42,F,12,2021_Nov_04_0935,Partial repeat,2021.2.3,120.09713935769038,
3,3,0,1,1,2,2,2,3,1,1,1,0,1,1,0,0,41,41,41,,,,,,,,,,,,,,,,,,,,,,,,,,,,,,,,12_MZ,42,F,12,2021_Nov_04_0935,Partial repeat,2021.2.3,120.09713935769038,
3,3,0,1,1,3,3,3,3,0,0,1,1,1,1,0,0,42,42,42,0,0,0,0,,,,,,,291.58519598492137,None,0.9083167699152253,292.0181735612624,None,"[93. 87. 87. 87. 87. 93. 93. 87. 87. 87. 93. 87. 93. 87. 87. 93. 87. 93.
 93. 87. 93. 93. 93. 93. 93. 87. 87. 87. 93. 87. 87. 87. 87. 93.]",293.0006545766163,None,s,1,0.5171100712259431,293.0006545766163,None,None,None,,,,,,,12_MZ,42,F,12,2021_Nov_04_0935,Partial repeat,2021.2.3,120.09713935769038,
3,3,0,1,1,3,3,3,3,0,0,1,1,1,1,0,0,42,42,42,1,0,1,0,,,,,,,,,0.7115826311008001,293.5834994095661,None,"[87. 87. 93. 87. 87. 87. 87. 87. 87. 87. 87. 87. 93. 93. 87. 87. 87. 93.
 93. 93. 87. 93. 87. 87. 87. 93. 93. 93. 87. 87. 87. 93. 93. 93.]",294.37446400726606,None,s,1,0.5988561391159237,294.37446400726606,None,None,None,,,,,,,12_MZ,42,F,12,2021_Nov_04_0935,Partial repeat,2021.2.3,120.09713935769038,
3,3,0,1,1,3,3,3,3,0,0,1,1,1,1,0,0,42,42,42,,,,,,,,,,,,,,,,,,,,,,,,,,,,,,,,12_MZ,42,F,12,2021_Nov_04_0935,Partial repeat,2021.2.3,120.09713935769038,
3,3,0,1,1,2,2,2,2,0,1,1,1,0,1,0,0,43,43,43,0,0,0,0,,,,,,,294.98229403927974,None,0.7036428093538017,295.9231534749648,None,"[87. 87. 87. 87. 87. 87. 87. 87. 93. 87. 87. 93. 87. 87. 93. 87. 93. 93.
 93. 93. 87. 87. 87. 87. 87. 87. 93. 93. 87. 87. 93. 93. 87. 87.]",296.70581928553963,None,s,1,0.5557009066401406,296.70581928553963,None,None,None,,,,,,,12_MZ,42,F,12,2021_Nov_04_0935,Partial repeat,2021.2.3,120.09713935769038,
3,3,0,1,1,2,2,2,2,0,1,1,1,0,1,0,0,43,43,43,1,0,1,0,,,,,,,,,0.8773768009552005,297.3136188497541,None,"[87. 87. 93. 87. 93. 87. 93. 93. 87. 87. 87. 93. 93. 93. 93. 87. 93. 93.
 87. 93. 93. 87. 87. 87. 87. 87. 93. 87. 87. 93. 93. 87. 87. 87.]",298.27115539668114,None,l,1,1.1824280299731527,298.27115539668114,None,None,None,,,,,,,12_MZ,42,F,12,2021_Nov_04_0935,Partial repeat,2021.2.3,120.09713935769038,
3,3,0,1,1,2,2,2,2,0,1,1,1,0,1,0,0,43,43,43,,,,,,,,,,,,,,,,,,,,,,,,,,,,,,,,12_MZ,42,F,12,2021_Nov_04_0935,Partial repeat,2021.2.3,120.09713935769038,
3,3,0,1,1,3,2,2,2,1,1,0,1,1,1,0,0,44,44,44,0,0,0,0,,,,,,,299.46178824815286,None,0.9106714383809271,299.9114163165008,None,"[87. 87. 93. 87. 93. 87. 93. 87. 87. 93. 87. 87. 93. 87. 93. 93. 87. 87.
 93. 93. 93. 87. 87. 87. 87. 93. 93. 87. 93. 93. 93. 87. 93. 87.]",300.90222273821485,None,l,1,0.7113506308585329,300.90222273821485,None,None,None,,,,,,,12_MZ,42,F,12,2021_Nov_04_0935,Partial repeat,2021.2.3,120.09713935769038,
3,3,0,1,1,3,2,2,2,1,1,0,1,1,1,0,0,44,44,44,1,0,1,0,,,,,,,,,0.8828964526712614,301.6682534510395,None,"[87. 93. 87. 93. 93. 87. 93. 93. 87. 93. 93. 93. 87. 87. 87. 87. 93. 93.
 93. 87. 87. 93. 93. 87. 93. 93. 87. 93. 87. 87. 87. 93. 93. 87.]",302.6257643408725,None,l,1,0.7798778430933453,302.6257643408725,None,None,None,,,,,,,12_MZ,42,F,12,2021_Nov_04_0935,Partial repeat,2021.2.3,120.09713935769038,
3,3,0,1,1,3,2,2,2,1,1,0,1,1,1,0,0,44,44,44,,,,,,,,,,,,,,,,,,,,,,,,,,,,,,,,12_MZ,42,F,12,2021_Nov_04_0935,Partial repeat,2021.2.3,120.09713935769038,
3,3,0,1,1,3,2,2,3,1,0,0,0,0,1,0,0,45,45,45,0,0,0,0,,,,,,,303.4334134262291,None,0.7464309174265592,303.8414170284851,None,"[87. 93. 93. 87. 93. 93. 87. 93. 87. 93. 93. 93. 93. 93. 93. 87. 93. 87.
 93. 87. 87. 93. 93. 87. 87. 93. 93. 93. 87. 93. 87. 87. 87. 93.]",304.665680365203,None,l,1,0.5485371252207187,304.665680365203,None,None,None,,,,,,,12_MZ,42,F,12,2021_Nov_04_0935,Partial repeat,2021.2.3,120.09713935769038,
3,3,0,1,1,3,2,2,3,1,0,0,0,0,1,0,0,45,45,45,1,0,1,0,,,,,,,,,0.9267226201282661,305.27349981366535,None,"[93. 93. 87. 93. 87. 93. 93. 93. 87. 87. 93. 93. 93. 87. 87. 87. 93. 87.
 87. 93. 87. 87. 87. 87. 93. 87. 87. 87. 93. 87. 87. 93. 93. 87.]",306.28097404592484,None,s,1,0.9477393820186535,306.28097404592484,None,None,None,,,,,,,12_MZ,42,F,12,2021_Nov_04_0935,Partial repeat,2021.2.3,120.09713935769038,
3,3,0,1,1,3,2,2,3,1,0,0,0,0,1,0,0,45,45,45,,,,,,,,,,,,,,,,,,,,,,,,,,,,,,,,12_MZ,42,F,12,2021_Nov_04_0935,Partial repeat,2021.2.3,120.09713935769038,
3,3,0,1,1,2,3,3,2,1,0,0,0,0,1,0,0,46,46,46,0,0,0,0,,,,,,,307.2551392763288,None,0.8029025904333258,307.7130828089131,None,"[93. 93. 93. 87. 87. 93. 93. 93. 87. 93. 93. 87. 93. 93. 93. 87. 93. 87.
 93. 93. 87. 93. 93. 87. 87. 87. 87. 87. 87. 87. 93. 87. 87. 93.]",308.60399622071,None,l,1,0.6247008508360068,308.60399622071,None,None,None,,,,,,,12_MZ,42,F,12,2021_Nov_04_0935,Partial repeat,2021.2.3,120.09713935769038,
3,3,0,1,1,2,3,3,2,1,0,0,0,0,1,0,0,46,46,46,1,0,1,0,,,,,,,,,0.9373026041681638,309.27842020290916,None,"[93. 93. 87. 93. 93. 93. 93. 87. 87. 87. 93. 87. 87. 87. 93. 93. 87. 93.
 87. 87. 93. 93. 87. 93. 93. 87. 93. 93. 87. 93. 93. 93. 87. 93.]",310.2942208036701,None,s,1,0.5344776790163905,310.2942208036701,None,None,None,,,,,,,12_MZ,42,F,12,2021_Nov_04_0935,Partial repeat,2021.2.3,120.09713935769038,
3,3,0,1,1,2,3,3,2,1,0,0,0,0,1,0,0,46,46,46,,,,,,,,,,,,,,,,,,,,,,,,,,,,,,,,12_MZ,42,F,12,2021_Nov_04_0935,Partial repeat,2021.2.3,120.09713935769038,
3,3,0,1,1,2,2,3,2,1,0,1,0,0,1,0,0,47,47,47,0,0,0,0,,,,,,,310.852069533291,None,0.710072934174134,311.2184297473483,None,"[87. 93. 93. 93. 93. 87. 87. 87. 93. 93. 93. 87. 93. 93. 93. 93. 87. 93.
 93. 87. 87. 93. 87. 87. 87. 93. 93. 87. 93. 93. 93. 87. 87. 87.]",312.0094244921339,None,l,1,0.5793589925053766,312.0094244921339,None,None,None,,,,,,,12_MZ,42,F,12,2021_Nov_04_0935,Partial repeat,2021.2.3,120.09713935769038,
3,3,0,1,1,2,2,3,2,1,0,1,0,0,1,0,0,47,47,47,1,0,1,0,,,,,,,,,0.8574495530817549,312.64221342468966,None,"[87. 87. 93. 87. 93. 87. 87. 87. 93. 93. 87. 87. 93. 87. 93. 87. 87. 87.
 87. 93. 87. 93. 87. 93. 87. 93. 93. 87. 87. 93. 87. 87. 93. 93.]",313.5747346254674,None,s,1,0.5340370184230778,313.5747346254674,None,None,None,,,,,,,12_MZ,42,F,12,2021_Nov_04_0935,Partial repeat,2021.2.3,120.09713935769038,
3,3,0,1,1,2,2,3,2,1,0,1,0,0,1,0,0,47,47,47,,,,,,,,,,,,,,,,,,,,,,,,,,,,,,,,12_MZ,42,F,12,2021_Nov_04_0935,Partial repeat,2021.2.3,120.09713935769038,
3,3,0,1,1,3,2,2,2,0,0,0,1,1,1,0,0,48,48,48,0,0,0,0,,,,,,,314.1242614765787,None,0.7794031820400649,314.5489184572647,None,"[87. 93. 87. 93. 93. 87. 87. 93. 93. 87. 87. 93. 87. 93. 87. 87. 87. 93.
 93. 87. 87. 93. 87. 93. 93. 87. 93. 87. 93. 93. 93. 87. 87. 87.]",315.4065347336119,None,s,1,0.6062649457851421,315.4065347336119,None,None,None,,,,,,,12_MZ,42,F,12,2021_Nov_04_0935,Partial repeat,2021.2.3,120.09713935769038,
3,3,0,1,1,3,2,2,2,0,0,0,1,1,1,0,0,48,48,48,1,0,1,0,,,,,,,,,0.972926823479743,316.07261214234825,None,"[93. 93. 87. 93. 87. 87. 87. 87. 93. 87. 87. 93. 87. 93. 87. 93. 87. 87.
 93. 93. 93. 93. 87. 87. 87. 87. 87. 93. 93. 87. 87. 87. 87. 87.]",317.1217166135458,None,s,1,0.6839270457028306,317.1217166135458,None,None,None,,,,,,,12_MZ,42,F,12,2021_Nov_04_0935,Partial repeat,2021.2.3,120.09713935769038,
3,3,0,1,1,3,2,2,2,0,0,0,1,1,1,0,0,48,48,48,,,,,,,,,,,,,,,,,,,,,,,,,,,,,,,,12_MZ,42,F,12,2021_Nov_04_0935,Partial repeat,2021.2.3,120.09713935769038,
3,3,0,1,1,2,3,2,2,0,1,0,1,0,1,0,0,49,49,49,0,0,0,0,,,,,,,317.83776570326415,None,0.9939424245676719,318.2457834169221,None,"[87. 93. 87. 87. 87. 87. 93. 93. 87. 87. 93. 93. 93. 87. 93. 87. 93. 87.
 93. 87. 87. 93. 93. 87. 93. 87. 87. 87. 87. 93. 87. 87. 93. 93.]",319.31982562155906,None,s,1,0.8221456608227982,319.31982562155906,None,None,None,,,,,,,12_MZ,42,F,12,2021_Nov_04_0935,Partial repeat,2021.2.3,120.09713935769038,
3,3,0,1,1,2,3,2,2,0,1,0,1,0,1,0,0,49,49,49,1,0,1,0,,,,,,,,,0.9272729693691858,320.1940782785117,None,"[87. 93. 87. 93. 87. 87. 87. 87. 93. 87. 93. 93. 87. 87. 93. 93. 93. 93.
 87. 87. 93. 93. 93. 93. 87. 87. 93. 93. 93. 87. 87. 87. 93. 87.]",321.20155315219847,None,l,1,0.6033583177238597,321.20155315219847,None,None,None,,,,,,,12_MZ,42,F,12,2021_Nov_04_0935,Partial repeat,2021.2.3,120.09713935769038,
3,3,0,1,1,2,3,2,2,0,1,0,1,0,1,0,0,49,49,49,,,,,,,,,,,,,,,,,,,,,,,,,,,,,,,,12_MZ,42,F,12,2021_Nov_04_0935,Partial repeat,2021.2.3,120.09713935769038,
3,3,0,1,1,2,3,2,3,1,1,0,0,1,1,0,0,50,50,50,0,0,0,0,,,,,,,321.8177089112861,None,0.820216145143147,322.5753901642246,None,"[87. 87. 87. 93. 87. 87. 87. 87. 87. 93. 93. 93. 93. 87. 93. 93. 93. 87.
 93. 93. 93. 93. 93. 87. 87. 93. 87. 87. 93. 87. 87. 87. 87. 93.]",323.47464886663,None,l,1,0.6653259731081107,323.47464886663,None,None,None,,,,,,,12_MZ,42,F,12,2021_Nov_04_0935,Partial repeat,2021.2.3,120.09713935769038,
3,3,0,1,1,2,3,2,3,1,1,0,0,1,1,0,0,50,50,50,1,0,1,0,,,,,,,,,0.8257737048590692,324.1989906499135,None,"[87. 87. 93. 93. 87. 87. 87. 93. 93. 93. 87. 87. 87. 87. 93. 87. 93. 87.
 93. 93. 93. 87. 87. 93. 93. 93. 87. 93. 87. 93. 93. 93. 93. 87.]",325.1065648165551,None,l,1,0.5213787702766695,325.1065648165551,None,None,None,,,,,,,12_MZ,42,F,12,2021_Nov_04_0935,Partial repeat,2021.2.3,120.09713935769038,
3,3,0,1,1,2,3,2,3,1,1,0,0,1,1,0,0,50,50,50,,,,,,,,,,,,,,,,,,,,,,,,,,,,,,,,12_MZ,42,F,12,2021_Nov_04_0935,Partial repeat,2021.2.3,120.09713935769038,
3,3,0,1,1,2,2,3,3,1,1,1,1,1,1,0,0,51,51,51,0,0,0,0,,,,,,,325.66441931902216,None,0.9853383193142995,326.0307631766817,None,"[87. 93. 93. 87. 87. 93. 93. 93. 93. 87. 93. 87. 93. 87. 87. 87. 93. 93.
 87. 87. 87. 87. 93. 93. 93. 87. 93. 93. 87. 87. 93. 93. 93. 87.]",327.09653994841653,None,l,1,0.6116911004987742,327.09653994841653,None,None,None,,,,,,,12_MZ,42,F,12,2021_Nov_04_0935,Partial repeat,2021.2.3,120.09713935769038,
3,3,0,1,1,2,2,3,3,1,1,1,1,1,1,0,0,51,51,51,1,0,1,0,,,,,,,,,0.7136836997240815,327.7626343549774,None,"[87. 93. 93. 93. 93. 93. 93. 87. 93. 93. 87. 87. 87. 87. 93. 93. 87. 87.
 93. 93. 87. 87. 93. 87. 87. 93. 87. 93. 87. 87. 93. 87. 87. 93.]",328.5536278169085,None,l,1,0.6104329407410205,328.5536278169085,None,None,None,,,,,,,12_MZ,42,F,12,2021_Nov_04_0935,Partial repeat,2021.2.3,120.09713935769038,
3,3,0,1,1,2,2,3,3,1,1,1,1,1,1,0,0,51,51,51,,,,,,,,,,,,,,,,,,,,,,,,,,,,,,,,12_MZ,42,F,12,2021_Nov_04_0935,Partial repeat,2021.2.3,120.09713935769038,
3,3,0,1,1,3,3,3,2,1,1,1,0,1,1,0,0,52,52,52,0,0,0,0,,,,,,,329.18641033519077,None,0.8822892710746094,329.55278241565395,None,"[87. 93. 87. 87. 87. 87. 87. 93. 93. 93. 93. 93. 87. 93. 93. 93. 93. 87.
 93. 93. 93. 93. 87. 87. 87. 93. 87. 93. 87. 87. 93. 93. 93. 87.]",330.510288174068,None,l,1,1.0217639474035423,330.510288174068,None,None,None,,,,,,,12_MZ,42,F,12,2021_Nov_04_0935,Partial repeat,2021.2.3,120.09713935769038,
3,3,0,1,1,3,3,3,2,1,1,1,0,1,1,0,0,52,52,52,1,0,1,0,,,,,,,,,0.8379178898138553,331.5926884978604,None,"[87. 87. 87. 87. 93. 87. 93. 93. 93. 87. 87. 87. 87. 93. 87. 87. 93. 87.
 87. 87. 87. 87. 87. 87. 93. 93. 87. 93. 93. 93. 93. 93. 87. 87.]",332.50857684588357,None,l,1,0.8795001706664607,332.50857684588357,None,None,None,,,,,,,12_MZ,42,F,12,2021_Nov_04_0935,Partial repeat,2021.2.3,120.09713935769038,
3,3,0,1,1,3,3,3,2,1,1,1,0,1,1,0,0,52,52,52,,,,,,,,,,,,,,,,,,,,,,,,,,,,,,,,12_MZ,42,F,12,2021_Nov_04_0935,Partial repeat,2021.2.3,120.09713935769038,
3,3,0,1,1,2,3,2,2,0,0,0,1,1,1,0,0,53,53,53,0,0,0,0,,,,,,,333.3994646005864,None,0.8593329883797645,333.82410714915693,None,"[87. 93. 87. 93. 93. 93. 93. 87. 93. 93. 93. 87. 87. 93. 93. 87. 93. 93.
 87. 93. 93. 93. 87. 87. 87. 93. 87. 87. 93. 87. 87. 93. 93. 93.]",334.764975564825,None,s,1,0.6072007882967227,334.764975564825,None,None,None,,,,,,,12_MZ,42,F,12,2021_Nov_04_0935,Partial repeat,2021.2.3,120.09713935769038,
3,3,0,1,1,2,3,2,2,0,0,0,1,1,1,0,0,53,53,53,1,0,1,0,,,,,,,,,0.7633374507773003,335.4227503378719,None,"[87. 93. 87. 87. 87. 93. 93. 87. 93. 93. 87. 87. 93. 87. 87. 87. 87. 93.
 93. 93. 93. 93. 87. 93. 93. 93. 93. 87. 93. 93. 93. 87. 87. 93.]",336.26371067007983,None,s,1,0.6115233672453542,336.26371067007983,None,None,None,,,,,,,12_MZ,42,F,12,2021_Nov_04_0935,Partial repeat,2021.2.3,120.09713935769038,
3,3,0,1,1,2,3,2,2,0,0,0,1,1,1,0,0,53,53,53,,,,,,,,,,,,,,,,,,,,,,,,,,,,,,,,12_MZ,42,F,12,2021_Nov_04_0935,Partial repeat,2021.2.3,120.09713935769038,
3,3,0,1,1,2,2,3,2,0,1,1,0,0,1,0,0,54,54,54,0,0,0,0,,,,,,,336.8964928676486,None,0.7899402278616928,337.31280295415775,None,"[93. 87. 87. 93. 93. 87. 87. 93. 87. 87. 93. 87. 87. 93. 87. 93. 93. 93.
 93. 93. 87. 93. 93. 93. 87. 93. 93. 87. 93. 87. 87. 87. 93. 93.]",338.1870572146787,None,s,1,0.5761409514632305,338.1870572146787,None,None,None,,,,,,,12_MZ,42,F,12,2021_Nov_04_0935,Partial repeat,2021.2.3,120.09713935769038,
3,3,0,1,1,2,2,3,2,0,1,1,0,0,1,0,0,54,54,54,1,0,1,0,,,,,,,,,0.8280727339880853,338.8281635357529,None,"[93. 87. 87. 93. 93. 93. 87. 93. 93. 93. 93. 87. 93. 93. 93. 93. 93. 93.
 87. 87. 87. 87. 87. 87. 87. 87. 93. 87. 87. 93. 93. 87. 87. 87.]",339.7440637501819,None,l,1,0.8591387006945297,339.7440637501819,None,None,None,,,,,,,12_MZ,42,F,12,2021_Nov_04_0935,Partial repeat,2021.2.3,120.09713935769038,
3,3,0,1,1,2,2,3,2,0,1,1,0,0,1,0,0,54,54,54,,,,,,,,,,,,,,,,,,,,,,,,,,,,,,,,12_MZ,42,F,12,2021_Nov_04_0935,Partial repeat,2021.2.3,120.09713935769038,
3,3,0,1,1,2,2,3,3,0,1,1,1,0,1,0,0,55,55,55,0,0,0,0,,,,,,,340.6349816519704,None,0.7273207132502789,341.00964546385774,None,"[93. 87. 93. 87. 93. 93. 87. 93. 93. 93. 93. 87. 93. 87. 93. 87. 93. 87.
 87. 93. 93. 87. 93. 87. 93. 87. 93. 93. 93. 93. 87. 93. 93. 87.]",341.8172769099623,None,s,1,0.5145597560604074,341.8172769099623,None,None,None,,,,,,,12_MZ,42,F,12,2021_Nov_04_0935,Partial repeat,2021.2.3,120.09713935769038,
3,3,0,1,1,2,2,3,3,0,1,1,1,0,1,0,0,55,55,55,1,0,1,0,,,,,,,,,0.9326292966606178,342.3834597052129,None,"[87. 87. 87. 87. 93. 87. 87. 87. 93. 93. 87. 87. 93. 93. 87. 87. 87. 87.
 87. 87. 93. 93. 87. 93. 93. 87. 87. 93. 87. 93. 93. 93. 93. 93.]",343.39926511667875,None,l,1,0.6279958631610043,343.39926511667875,None,None,None,,,,,,,12_MZ,42,F,12,2021_Nov_04_0935,Partial repeat,2021.2.3,120.09713935769038,
3,3,0,1,1,2,2,3,3,0,1,1,1,0,1,0,0,55,55,55,,,,,,,,,,,,,,,,,,,,,,,,,,,,,,,,12_MZ,42,F,12,2021_Nov_04_0935,Partial repeat,2021.2.3,120.09713935769038,
3,3,0,1,1,3,2,2,2,0,1,0,1,0,1,0,0,56,56,56,0,0,0,0,,,,,,,344.05704886970886,None,0.9903666337058973,344.4483753607227,None,"[93. 93. 87. 93. 87. 87. 93. 87. 87. 93. 93. 93. 87. 87. 87. 93. 93. 93.
 87. 93. 93. 93. 93. 93. 93. 93. 93. 93. 87. 87. 87. 93. 93. 87.]",345.5141271167905,None,s,1,0.6092758057918672,345.5141271167905,None,None,None,,,,,,,12_MZ,42,F,12,2021_Nov_04_0935,Partial repeat,2021.2.3,120.09713935769038,
3,3,0,1,1,3,2,2,2,0,1,0,1,0,1,0,0,56,56,56,1,0,1,0,,,,,,,,,0.8623328270177865,346.1885459675708,None,"[93. 93. 87. 87. 87. 93. 93. 87. 87. 87. 93. 87. 87. 93. 87. 87. 87. 93.
 87. 93. 93. 93. 87. 87. 87. 93. 93. 87. 87. 87. 87. 87. 87. 87.]",347.1377317717571,None,l,1,0.7296078983908956,347.1377317717571,None,None,None,,,,,,,12_MZ,42,F,12,2021_Nov_04_0935,Partial repeat,2021.2.3,120.09713935769038,
3,3,0,1,1,3,2,2,2,0,1,0,1,0,1,0,0,56,56,56,,,,,,,,,,,,,,,,,,,,,,,,,,,,,,,,12_MZ,42,F,12,2021_Nov_04_0935,Partial repeat,2021.2.3,120.09713935769038,
3,3,0,1,1,2,2,3,3,1,0,1,1,0,1,0,0,57,57,57,0,0,0,0,,,,,,,347.8787788890862,None,0.9450759554804027,348.3200760989415,None,"[93. 87. 93. 87. 87. 87. 93. 87. 93. 93. 87. 87. 87. 93. 87. 87. 87. 93.
 93. 93. 93. 93. 93. 93. 87. 87. 87. 93. 87. 87. 87. 87. 93. 93.]",349.3525217395767,None,l,1,0.5142890737165544,349.3525217395767,None,None,None,,,,,,,12_MZ,42,F,12,2021_Nov_04_0935,Partial repeat,2021.2.3,120.09713935769038,
3,3,0,1,1,2,2,3,3,1,0,1,1,0,1,0,0,57,57,57,1,0,1,0,,,,,,,,,0.9226867171954485,349.9270286583329,None,"[93. 93. 93. 87. 93. 87. 87. 87. 93. 93. 93. 87. 87. 87. 87. 87. 93. 93.
 87. 93. 87. 93. 87. 87. 87. 93. 93. 93. 87. 87. 87. 93. 87. 93.]",350.92618453993293,None,s,1,0.5731798020765382,350.92618453993293,None,None,None,,,,,,,12_MZ,42,F,12,2021_Nov_04_0935,Partial repeat,2021.2.3,120.09713935769038,
3,3,0,1,1,2,2,3,3,1,0,1,1,0,1,0,0,57,57,57,,,,,,,,,,,,,,,,,,,,,,,,,,,,,,,,12_MZ,42,F,12,2021_Nov_04_0935,Partial repeat,2021.2.3,120.09713935769038,
3,3,0,1,1,2,3,3,3,0,1,0,1,0,1,0,0,58,58,58,0,0,0,0,,,,,,,351.5173275185806,None,0.9513972084238145,351.9086745352698,None,"[87. 93. 87. 87. 93. 87. 93. 93. 87. 93. 93. 87. 87. 93. 93. 87. 93. 87.
 87. 87. 93. 93. 87. 87. 93. 93. 93. 93. 87. 87. 93. 93. 87. 93.]",352.9494507136841,None,s,1,0.53326506060057,352.9494507136841,None,None,None,,,,,,,12_MZ,42,F,12,2021_Nov_04_0935,Partial repeat,2021.2.3,120.09713935769038,
3,3,0,1,1,2,3,3,3,0,1,0,1,0,1,0,0,58,58,58,1,0,1,0,,,,,,,,,0.9524648684952983,353.5322894530742,None,"[93. 93. 87. 87. 93. 93. 87. 87. 93. 87. 93. 93. 87. 87. 93. 87. 93. 87.
 93. 93. 87. 87. 87. 93. 87. 93. 87. 93. 87. 93. 87. 87. 93. 87.]",354.57306306577914,None,l,1,0.6374456916755662,354.57306306577914,None,None,None,,,,,,,12_MZ,42,F,12,2021_Nov_04_0935,Partial repeat,2021.2.3,120.09713935769038,
3,3,0,1,1,2,3,3,3,0,1,0,1,0,1,0,0,58,58,58,,,,,,,,,,,,,,,,,,,,,,,,,,,,,,,,12_MZ,42,F,12,2021_Nov_04_0935,Partial repeat,2021.2.3,120.09713935769038,
3,3,0,1,1,2,2,2,2,1,0,1,1,0,1,0,0,59,59,59,0,0,0,0,,,,,,,355.22249351035873,None,0.9923083025271766,355.6304906983413,None,"[87. 87. 93. 93. 87. 87. 93. 87. 93. 93. 93. 87. 87. 87. 87. 93. 87. 87.
 87. 93. 93. 93. 93. 93. 87. 93. 93. 87. 87. 93. 93. 93. 93. 93.]",356.7129028885398,None,l,1,0.5775633166238094,356.7129028885398,None,None,None,,,,,,,12_MZ,42,F,12,2021_Nov_04_0935,Partial repeat,2021.2.3,120.09713935769038,
3,3,0,1,1,2,2,2,2,1,0,1,1,0,1,0,0,59,59,59,1,0,1,0,,,,,,,,,0.7233204354497598,357.3540076060457,None,"[93. 87. 93. 87. 93. 93. 93. 87. 87. 93. 87. 93. 93. 87. 87. 87. 87. 93.
 87. 93. 87. 87. 93. 93. 87. 87. 87. 87. 93. 87. 87. 87. 87. 93.]",358.1616560499748,None,s,1,0.6173872961289817,358.1616560499748,None,None,None,,,,,,,12_MZ,42,F,12,2021_Nov_04_0935,Partial repeat,2021.2.3,120.09713935769038,
3,3,0,1,1,2,2,2,2,1,0,1,1,0,1,0,0,59,59,59,,,,,,,,,,,,,,,,,,,,,,,,,,,,,,,,12_MZ,42,F,12,2021_Nov_04_0935,Partial repeat,2021.2.3,120.09713935769038,
3,3,0,1,1,3,3,2,3,1,1,1,0,1,1,0,0,60,60,60,0,0,0,0,,,,,,,358.8027838588654,None,0.9459432764684291,359.2357537380782,None,"[87. 93. 87. 93. 93. 87. 87. 87. 87. 93. 87. 93. 87. 93. 87. 87. 93. 87.
 93. 87. 87. 87. 93. 87. 87. 87. 87. 93. 93. 87. 87. 87. 93. 87.]",360.26821541439733,None,l,1,0.5427453569145655,360.26821541439733,None,None,None,,,,,,,12_MZ,42,F,12,2021_Nov_04_0935,Partial repeat,2021.2.3,120.09713935769038,
3,3,0,1,1,3,3,2,3,1,1,1,0,1,1,0,0,60,60,60,1,0,1,0,,,,,,,,,0.9159388752330988,360.8760371078555,None,"[87. 87. 87. 93. 93. 87. 93. 87. 87. 87. 87. 87. 93. 87. 93. 87. 87. 87.
 93. 93. 93. 93. 93. 93. 87. 87. 87. 93. 93. 87. 87. 87. 87. 93.]",361.8751455238313,None,l,1,0.5834051162637479,361.8751455238313,None,None,None,,,,,,,12_MZ,42,F,12,2021_Nov_04_0935,Partial repeat,2021.2.3,120.09713935769038,
3,3,0,1,1,3,3,2,3,1,1,1,0,1,1,0,0,60,60,60,,,,,,,,,,,,,,,,,,,,,,,,,,,,,,,,12_MZ,42,F,12,2021_Nov_04_0935,Partial repeat,2021.2.3,120.09713935769038,
3,3,0,1,1,3,2,3,3,0,0,0,1,1,1,0,0,61,61,61,0,0,0,0,,,,,,,362.49131250789753,None,0.9690077151352996,362.93259753063296,None,"[93. 93. 93. 93. 93. 87. 93. 87. 87. 93. 87. 93. 93. 93. 93. 93. 93. 93.
 87. 87. 93. 93. 93. 87. 93. 93. 87. 87. 87. 93. 87. 93. 93. 93.]",363.99003029461403,None,s,1,0.8685516471362007,363.99003029461403,None,None,None,,,,,,,12_MZ,42,F,12,2021_Nov_04_0935,Partial repeat,2021.2.3,120.09713935769038,
3,3,0,1,1,3,2,3,3,0,0,0,1,1,1,0,0,61,61,61,1,0,1,0,,,,,,,,,0.8700018611681027,364.9225646446524,None,"[93. 93. 87. 93. 87. 93. 93. 87. 87. 87. 93. 93. 87. 93. 87. 93. 93. 87.
 87. 93. 93. 93. 93. 93. 87. 93. 87. 87. 93. 93. 87. 87. 87. 93.]",365.87173377172746,None,s,1,0.6820710756499011,365.87173377172746,None,None,None,,,,,,,12_MZ,42,F,12,2021_Nov_04_0935,Partial repeat,2021.2.3,120.09713935769038,
3,3,0,1,1,3,2,3,3,0,0,0,1,1,1,0,0,61,61,61,,,,,,,,,,,,,,,,,,,,,,,,,,,,,,,,12_MZ,42,F,12,2021_Nov_04_0935,Partial repeat,2021.2.3,120.09713935769038,
3,3,0,1,1,2,3,2,3,1,0,0,0,0,1,0,0,62,62,62,0,0,0,0,,,,,,,366.5711461601271,None,0.9597759228135105,366.9624851589746,None,"[87. 93. 93. 87. 87. 87. 93. 93. 93. 93. 87. 87. 87. 87. 87. 93. 87. 87.
 93. 87. 93. 93. 87. 87. 93. 93. 93. 93. 93. 87. 93. 93. 87. 87.]",368.0115751980567,None,l,1,0.5901619120263604,368.0115751980567,None,None,None,,,,,,,12_MZ,42,F,12,2021_Nov_04_0935,Partial repeat,2021.2.3,120.09713935769038,
3,3,0,1,1,2,3,2,3,1,0,0,0,0,1,0,0,62,62,62,1,0,1,0,,,,,,,,,0.8318943905532941,368.66101430190577,None,"[87. 87. 93. 87. 87. 93. 87. 87. 87. 93. 87. 93. 87. 87. 87. 93. 87. 93.
 87. 93. 87. 93. 87. 93. 87. 87. 87. 87. 87. 93. 87. 93. 93. 93.]",369.5685794885643,None,s,1,0.6971263378238746,369.5685794885643,None,None,None,,,,,,,12_MZ,42,F,12,2021_Nov_04_0935,Partial repeat,2021.2.3,120.09713935769038,
3,3,0,1,1,2,3,2,3,1,0,0,0,0,1,0,0,62,62,62,,,,,,,,,,,,,,,,,,,,,,,,,,,,,,,,12_MZ,42,F,12,2021_Nov_04_0935,Partial repeat,2021.2.3,120.09713935769038,
3,3,0,1,1,3,2,3,3,0,1,0,1,0,1,0,0,63,63,63,0,0,0,0,,,,,,,370.28462857828265,None,0.7524043076754184,370.65930842585396,None,"[87. 93. 93. 87. 87. 87. 87. 87. 93. 93. 93. 87. 87. 93. 93. 87. 87. 87.
 93. 87. 93. 93. 93. 93. 87. 87. 87. 87. 93. 87. 93. 87. 87. 87.]",371.5002568916558,None,s,1,0.5894419098196977,371.5002568916558,None,None,None,,,,,,,12_MZ,42,F,12,2021_Nov_04_0935,Partial repeat,2021.2.3,120.09713935769038,
3,3,0,1,1,3,2,3,3,0,1,0,1,0,1,0,0,63,63,63,1,0,1,0,,,,,,,,,0.714206462203958,372.1497264633043,None,"[87. 87. 87. 93. 93. 87. 87. 87. 87. 87. 93. 93. 93. 93. 93. 87. 93. 93.
 87. 93. 87. 93. 93. 87. 87. 93. 87. 87. 87. 87. 87. 93. 87. 87.]",372.9490196745013,None,l,1,0.6287072060983974,372.9490196745013,None,None,None,,,,,,,12_MZ,42,F,12,2021_Nov_04_0935,Partial repeat,2021.2.3,120.09713935769038,
3,3,0,1,1,3,2,3,3,0,1,0,1,0,1,0,0,63,63,63,,,,,,,,,,,,,,,,,,,,,,,,,,,,,,,,12_MZ,42,F,12,2021_Nov_04_0935,Partial repeat,2021.2.3,120.09713935769038,
5,2,0,1,1,2,2,3,2,1,0,1,0,0,0,0,0,64,64,64,0,0,0,0,,,,,,,374.66422272153784,None,0.9608771944719144,382.4992084786435,None,"[87. 87. 93. 87. 93. 87. 87. 87. 87. 93. 93. 87. 87. 93. 87. 87. 93. 93.
 93. 87. 87. 87. 93. 93. 93. 87. 87. 93. 87. 87. 93. 93. 87. 87.]",383.54830429057176,None,l,1,2.1246646101903934,383.54830429057176,None,None,None,,,,,,,12_MZ,42,F,12,2021_Nov_04_0935,Partial repeat,2021.2.3,120.09713935769038,
5,2,0,1,1,2,2,3,2,1,0,1,0,0,0,0,0,64,64,64,1,0,1,0,,,,,,,,,0.9879884678589683,385.7381125871781,None,"[93. 93. 87. 87. 93. 93. 93. 93. 87. 87. 87. 93. 93. 87. 93. 93. 87. 93.
 87. 87. 93. 93. 93. 93. 93. 87. 87. 93. 87. 87. 93. 93. 87. 93.]",386.8038563254039,None,s,1,1.6211152719190522,386.8038563254039,None,None,None,,,,,,,12_MZ,42,F,12,2021_Nov_04_0935,Partial repeat,2021.2.3,120.09713935769038,
5,2,0,1,1,2,2,3,2,1,0,1,0,0,0,0,0,64,64,64,,,,,,,,,,,,,,,,,,,,,,,,,,,,,,,,12_MZ,42,F,12,2021_Nov_04_0935,Partial repeat,2021.2.3,120.09713935769038,
7,7,0,1,1,2,2,3,3,0,0,1,1,1,0,0,0,65,65,65,0,0,0,0,,,,,,,388.4524548387034,None,0.8363440344784853,389.0852469783962,None,"[87. 87. 93. 87. 87. 87. 87. 87. 87. 87. 93. 93. 93. 87. 93. 93. 93. 87.
 93. 87. 93. 87. 93. 87. 87. 87. 87. 93. 93. 87. 93. 87. 93. 93.]",390.00946105349306,None,s,1,1.1515635077691968,390.00946105349306,None,None,None,,,,,,,12_MZ,42,F,12,2021_Nov_04_0935,Partial repeat,2021.2.3,120.09713935769038,
7,7,0,1,1,2,2,3,3,0,0,1,1,1,0,0,0,65,65,65,1,0,1,0,,,,,,,,,0.7229660945474814,391.2250951397126,None,"[93. 93. 87. 87. 87. 93. 87. 87. 93. 87. 87. 87. 87. 87. 87. 87. 93. 93.
 87. 93. 87. 87. 87. 87. 87. 93. 93. 93. 93. 87. 87. 93. 93. 87.]",392.0327278686717,None,s,1,0.7283199122609858,392.0327278686717,None,None,None,,,,,,,12_MZ,42,F,12,2021_Nov_04_0935,Partial repeat,2021.2.3,120.09713935769038,
7,7,0,1,1,2,2,3,3,0,0,1,1,1,0,0,0,65,65,65,,,,,,,,,,,,,,,,,,,,,,,,,,,,,,,,12_MZ,42,F,12,2021_Nov_04_0935,Partial repeat,2021.2.3,120.09713935769038,
7,4,0,1,1,3,3,2,3,0,0,1,0,1,0,0,0,66,66,66,0,0,0,0,,,,,,,392.7904293265718,None,0.9708785379456948,393.45651282886786,None,"[93. 87. 93. 93. 87. 87. 87. 87. 87. 93. 93. 87. 87. 87. 93. 93. 87. 93.
 87. 93. 93. 93. 87. 87. 87. 93. 93. 93. 93. 87. 87. 87. 87. 87.]",394.50562211077056,None,s,1,0.591045157494591,394.50562211077056,None,None,None,,,,,,,12_MZ,42,F,12,2021_Nov_04_0935,Partial repeat,2021.2.3,120.09713935769038,
7,4,0,1,1,3,3,2,3,0,0,1,0,1,0,0,0,66,66,66,1,0,1,0,,,,,,,,,0.9767332101611873,395.14674318467394,None,"[93. 87. 93. 93. 93. 87. 87. 87. 93. 87. 87. 87. 87. 87. 93. 93. 93. 87.
 87. 87. 87. 87. 87. 87. 93. 87. 87. 93. 87. 93. 93. 93. 87. 93.]",396.2124939786007,None,s,1,0.8846270995186387,396.2124939786007,None,None,None,,,,,,,12_MZ,42,F,12,2021_Nov_04_0935,Partial repeat,2021.2.3,120.09713935769038,
7,4,0,1,1,3,3,2,3,0,0,1,0,1,0,0,0,66,66,66,,,,,,,,,,,,,,,,,,,,,,,,,,,,,,,,12_MZ,42,F,12,2021_Nov_04_0935,Partial repeat,2021.2.3,120.09713935769038,
1,3,0,1,1,2,3,3,2,1,1,0,0,1,0,0,0,67,67,67,0,0,0,0,,,,,,,397.111724778916,None,0.8324266075570526,397.88606229670756,None,"[93. 93. 87. 87. 87. 93. 87. 93. 87. 87. 93. 93. 87. 93. 93. 93. 87. 93.
 93. 93. 93. 93. 87. 87. 87. 93. 93. 87. 93. 93. 93. 87. 87. 87.]",398.8019387783246,None,l,1,0.8862976970658565,398.8019387783246,None,None,None,,,,,,,12_MZ,42,F,12,2021_Nov_04_0935,Partial repeat,2021.2.3,120.09713935769038,
1,3,0,1,1,2,3,3,2,1,1,0,0,1,0,0,0,67,67,67,1,0,1,0,,,,,,,,,0.8800014089354173,399.7511239410836,None,"[93. 93. 87. 87. 93. 87. 87. 93. 87. 87. 93. 87. 87. 93. 93. 87. 87. 87.
 87. 87. 87. 87. 93. 93. 93. 93. 93. 93. 93. 87. 87. 93. 93. 93.]",400.7086636951475,None,l,1,0.6595441469257821,400.7086636951475,None,None,None,,,,,,,12_MZ,42,F,12,2021_Nov_04_0935,Partial repeat,2021.2.3,120.09713935769038,
1,3,0,1,1,2,3,3,2,1,1,0,0,1,0,0,0,67,67,67,,,,,,,,,,,,,,,,,,,,,,,,,,,,,,,,12_MZ,42,F,12,2021_Nov_04_0935,Partial repeat,2021.2.3,120.09713935769038,
1,6,0,1,1,3,2,3,2,1,0,0,0,0,0,0,0,68,68,68,0,0,0,0,,,,,,,401.3997272650885,None,0.8919109561360834,401.94925764405014,None,"[93. 87. 93. 87. 87. 87. 87. 93. 93. 87. 87. 87. 93. 93. 93. 93. 87. 87.
 93. 87. 87. 87. 93. 93. 87. 87. 93. 93. 87. 93. 93. 87. 87. 87.]",402.9317437908229,None,l,1,0.8684836558363713,402.9317437908229,None,None,None,,,,,,,12_MZ,42,F,12,2021_Nov_04_0935,Partial repeat,2021.2.3,120.09713935769038,
1,6,0,1,1,3,2,3,2,1,0,0,0,0,0,0,0,68,68,68,1,0,1,0,,,,,,,,,0.9513052182697854,403.86428006514336,None,"[93. 93. 87. 93. 93. 87. 93. 93. 93. 93. 87. 93. 93. 87. 87. 87. 93. 93.
 93. 93. 93. 93. 93. 93. 93. 93. 87. 93. 93. 87. 87. 87. 87. 87.]",404.90507933494257,None,s,1,0.9589810378506627,404.90507933494257,None,None,None,,,,,,,12_MZ,42,F,12,2021_Nov_04_0935,Partial repeat,2021.2.3,120.09713935769038,
1,6,0,1,1,3,2,3,2,1,0,0,0,0,0,0,0,68,68,68,,,,,,,,,,,,,,,,,,,,,,,,,,,,,,,,12_MZ,42,F,12,2021_Nov_04_0935,Partial repeat,2021.2.3,120.09713935769038,
6,1,0,1,1,3,2,3,2,0,1,0,0,0,0,0,0,69,69,69,0,0,0,0,,,,,,,405.89589120878907,None,0.7756291631193745,406.36216367558393,None,"[87. 87. 93. 87. 87. 93. 87. 93. 93. 93. 87. 93. 93. 93. 87. 93. 87. 93.
 87. 87. 93. 87. 93. 87. 93. 93. 87. 93. 93. 87. 87. 87. 93. 87.]",407.219758464115,None,s,1,0.6937633341990477,407.219758464115,None,None,None,,,,,,,12_MZ,42,F,12,2021_Nov_04_0935,Partial repeat,2021.2.3,120.09713935769038,
6,1,0,1,1,3,2,3,2,0,1,0,0,0,0,0,0,69,69,69,1,0,1,0,,,,,,,,,0.7699613366878814,407.96912072496696,None,"[87. 87. 87. 93. 87. 93. 93. 93. 87. 93. 93. 87. 87. 87. 93. 93. 87. 93.
 93. 87. 87. 93. 93. 93. 93. 87. 87. 87. 93. 87. 87. 87. 93. 93.]",408.8183990871206,None,l,1,0.6939031653625989,408.8183990871206,None,None,None,,,,,,,12_MZ,42,F,12,2021_Nov_04_0935,Partial repeat,2021.2.3,120.09713935769038,
6,1,0,1,1,3,2,3,2,0,1,0,0,0,0,0,0,69,69,69,,,,,,,,,,,,,,,,,,,,,,,,,,,,,,,,12_MZ,42,F,12,2021_Nov_04_0935,Partial repeat,2021.2.3,120.09713935769038,
5,5,0,1,1,2,2,2,2,1,1,1,1,1,0,0,0,70,70,70,0,0,0,0,,,,,,,409.53444593184315,None,0.7322867295490925,410.07565411158146,None,"[93. 93. 93. 87. 87. 87. 93. 93. 87. 93. 87. 87. 87. 93. 93. 87. 93. 87.
 93. 87. 93. 93. 93. 93. 93. 93. 87. 87. 87. 87. 87. 87. 93. 93.]",410.88328972696365,None,l,1,0.661049576929372,410.88328972696365,None,None,None,,,,,,,12_MZ,42,F,12,2021_Nov_04_0935,Partial repeat,2021.2.3,120.09713935769038,
5,5,0,1,1,2,2,2,2,1,1,1,1,1,0,0,0,70,70,70,1,0,1,0,,,,,,,,,0.7364231258065448,411.599354852366,None,"[87. 87. 93. 93. 87. 93. 93. 87. 93. 93. 87. 93. 93. 87. 87. 87. 93. 87.
 93. 87. 93. 93. 87. 93. 93. 87. 87. 93. 87. 87. 87. 93. 93. 87.]",412.4153049698433,None,l,1,0.6023297889594232,412.4153049698433,None,None,None,,,,,,,12_MZ,42,F,12,2021_Nov_04_0935,Partial repeat,2021.2.3,120.09713935769038,
5,5,0,1,1,2,2,2,2,1,1,1,1,1,0,0,0,70,70,70,,,,,,,,,,,,,,,,,,,,,,,,,,,,,,,,12_MZ,42,F,12,2021_Nov_04_0935,Partial repeat,2021.2.3,120.09713935769038,
7,8,0,1,1,3,2,2,3,0,1,0,0,0,0,0,0,71,71,71,0,0,0,0,,,,,,,413.03978196601327,None,0.9958067466555816,413.5976454484636,None,"[87. 93. 93. 87. 93. 93. 93. 93. 93. 93. 93. 93. 93. 87. 93. 87. 87. 87.
 93. 87. 87. 93. 87. 93. 93. 93. 87. 93. 93. 93. 87. 87. 93. 87.]",414.6717312701609,None,s,1,0.6317616831647683,414.6717312701609,None,None,None,,,,,,,12_MZ,42,F,12,2021_Nov_04_0935,Partial repeat,2021.2.3,120.09713935769038,
7,8,0,1,1,3,2,2,3,0,1,0,0,0,0,0,0,71,71,71,1,0,1,0,,,,,,,,,0.9022743345651667,415.3544594916176,None,"[93. 87. 87. 87. 93. 93. 87. 93. 93. 87. 93. 93. 93. 93. 93. 93. 87. 87.
 87. 93. 93. 87. 87. 93. 87. 93. 87. 87. 87. 93. 87. 87. 87. 87.]",416.3369696919161,None,l,1,0.7104840625013367,416.3369696919161,None,None,None,,,,,,,12_MZ,42,F,12,2021_Nov_04_0935,Partial repeat,2021.2.3,120.09713935769038,
7,8,0,1,1,3,2,2,3,0,1,0,0,0,0,0,0,71,71,71,,,,,,,,,,,,,,,,,,,,,,,,,,,,,,,,12_MZ,42,F,12,2021_Nov_04_0935,Partial repeat,2021.2.3,120.09713935769038,
2,8,0,1,1,3,2,2,3,1,1,0,0,1,0,0,0,72,72,72,0,0,0,0,,,,,,,417.0779994907067,None,0.8267014671417847,417.71079227182656,None,"[93. 93. 87. 87. 93. 87. 93. 87. 93. 87. 93. 87. 93. 93. 87. 87. 93. 93.
 93. 87. 93. 93. 87. 93. 93. 87. 93. 87. 87. 87. 93. 87. 93. 87.]",418.6266790162814,None,l,1,0.8226462948737208,418.6266790162814,None,None,None,,,,,,,12_MZ,42,F,12,2021_Nov_04_0935,Partial repeat,2021.2.3,120.09713935769038,
2,8,0,1,1,3,2,2,3,1,1,0,0,1,0,0,0,72,72,72,1,0,1,0,,,,,,,,,0.7672668774812185,419.50093135252007,None,"[87. 87. 93. 87. 87. 93. 93. 93. 93. 93. 93. 93. 93. 93. 93. 87. 93. 87.
 87. 93. 87. 87. 87. 93. 93. 93. 87. 93. 93. 87. 87. 87. 87. 93.]",420.35021420466535,None,l,1,1.4973098501900495,420.35021420466535,None,None,None,,,,,,,12_MZ,42,F,12,2021_Nov_04_0935,Partial repeat,2021.2.3,120.09713935769038,
2,8,0,1,1,3,2,2,3,1,1,0,0,1,0,0,0,72,72,72,,,,,,,,,,,,,,,,,,,,,,,,,,,,,,,,12_MZ,42,F,12,2021_Nov_04_0935,Partial repeat,2021.2.3,120.09713935769038,
6,5,0,1,1,2,2,3,3,1,0,1,1,0,0,0,0,73,73,73,0,0,0,0,,,,,,,421.8739033997575,None,0.7101529802481759,422.86472425358704,None,"[87. 93. 93. 93. 87. 87. 93. 87. 93. 87. 93. 93. 93. 87. 87. 93. 87. 87.
 93. 87. 93. 87. 87. 93. 87. 93. 87. 93. 87. 93. 93. 93. 87. 93.]",423.6640357454636,None,l,1,0.6475122525921506,423.6640357454636,None,None,None,,,,,,,12_MZ,42,F,12,2021_Nov_04_0935,Partial repeat,2021.2.3,120.09713935769038,
6,5,0,1,1,2,2,3,3,1,0,1,1,0,0,0,0,73,73,73,1,0,1,0,,,,,,,,,0.8480015762345035,424.36345198242736,None,"[93. 93. 93. 87. 93. 93. 87. 87. 93. 87. 93. 87. 87. 93. 93. 93. 93. 93.
 87. 87. 87. 87. 93. 93. 87. 93. 93. 87. 93. 93. 93. 87. 93. 93.]",425.28766156753306,None,s,1,0.8000965954786352,425.28766156753306,None,None,None,,,,,,,12_MZ,42,F,12,2021_Nov_04_0935,Partial repeat,2021.2.3,120.09713935769038,
6,5,0,1,1,2,2,3,3,1,0,1,1,0,0,0,0,73,73,73,,,,,,,,,,,,,,,,,,,,,,,,,,,,,,,,12_MZ,42,F,12,2021_Nov_04_0935,Partial repeat,2021.2.3,120.09713935769038,
4,3,0,1,1,2,3,2,2,0,1,0,1,0,0,0,0,74,74,74,0,0,0,0,,,,,,,426.1036222685617,None,0.8305752070323016,426.5865301538207,None,"[87. 93. 93. 93. 93. 87. 87. 93. 87. 87. 87. 93. 93. 87. 93. 87. 93. 87.
 87. 93. 93. 93. 93. 87. 87. 87. 87. 93. 87. 87. 93. 93. 87. 87.]",427.49410271689396,None,s,1,1.8895628830191527,427.49410271689396,None,None,None,,,,,,,12_MZ,42,F,12,2021_Nov_04_0935,Partial repeat,2021.2.3,120.09713935769038,
4,3,0,1,1,2,3,2,2,0,1,0,1,0,0,0,0,74,74,74,1,0,1,0,,,,,,,,,0.7807732667506667,429.44240495489805,None,"[93. 87. 87. 87. 93. 93. 87. 87. 87. 93. 93. 87. 93. 93. 87. 87. 93. 87.
 87. 93. 87. 87. 93. 93. 87. 93. 87. 87. 87. 93. 87. 87. 87. 93.]",430.30836010758014,None,l,1,0.6264182725803948,430.30836010758014,None,None,None,,,,,,,12_MZ,42,F,12,2021_Nov_04_0935,Partial repeat,2021.2.3,120.09713935769038,
4,3,0,1,1,2,3,2,2,0,1,0,1,0,0,0,0,74,74,74,,,,,,,,,,,,,,,,,,,,,,,,,,,,,,,,12_MZ,42,F,12,2021_Nov_04_0935,Partial repeat,2021.2.3,120.09713935769038,
3,6,0,1,1,3,2,2,2,0,1,0,1,0,0,0,0,75,75,75,0,0,0,0,,,,,,,430.9661666312812,None,0.8444617863199311,431.4240659053779,None,"[87. 93. 87. 93. 87. 87. 87. 93. 87. 87. 93. 87. 93. 93. 87. 87. 93. 93.
 87. 93. 93. 87. 93. 93. 93. 93. 87. 87. 87. 87. 87. 87. 87. 87.]",432.34829056402634,None,s,1,0.5703725952555487,432.34829056402634,None,None,None,,,,,,,12_MZ,42,F,12,2021_Nov_04_0935,Partial repeat,2021.2.3,120.09713935769038,
3,6,0,1,1,3,2,2,2,0,1,0,1,0,0,0,0,75,75,75,1,0,1,0,,,,,,,,,0.8457268238365709,432.97275954235454,None,"[93. 87. 93. 87. 93. 87. 93. 87. 93. 93. 93. 93. 87. 93. 87. 93. 93. 93.
 87. 93. 87. 87. 93. 87. 87. 87. 87. 87. 93. 87. 93. 87. 87. 87.]",433.8969566196266,None,l,1,0.7335914829820922,433.8969566196266,None,None,None,,,,,,,12_MZ,42,F,12,2021_Nov_04_0935,Partial repeat,2021.2.3,120.09713935769038,
3,6,0,1,1,3,2,2,2,0,1,0,1,0,0,0,0,75,75,75,,,,,,,,,,,,,,,,,,,,,,,,,,,,,,,,12_MZ,42,F,12,2021_Nov_04_0935,Partial repeat,2021.2.3,120.09713935769038,
1,5,0,1,1,3,3,3,3,1,0,1,1,0,0,0,0,76,76,76,0,0,0,0,,,,,,,434.64632465332454,None,0.9960438394085422,435.80366485933826,None,"[87. 87. 87. 87. 93. 93. 87. 87. 87. 93. 93. 93. 87. 93. 87. 93. 87. 93.
 93. 93. 87. 87. 93. 87. 87. 93. 93. 93. 87. 93. 87. 93. 93. 87.]",436.88607833239155,None,l,1,1.4406926610915889,436.88607833239155,None,None,None,,,,,,,12_MZ,42,F,12,2021_Nov_04_0935,Partial repeat,2021.2.3,120.09713935769038,
1,5,0,1,1,3,3,3,3,1,0,1,1,0,0,0,0,76,76,76,1,0,1,0,,,,,,,,,0.788425781500875,438.3847986848174,None,"[93. 93. 87. 93. 93. 87. 87. 87. 87. 87. 93. 87. 87. 93. 93. 87. 93. 93.
 93. 93. 87. 87. 87. 87. 87. 93. 87. 87. 87. 93. 93. 87. 93. 93.]",439.25071310686246,None,s,1,0.6925638650443489,439.25071310686246,None,None,None,,,,,,,12_MZ,42,F,12,2021_Nov_04_0935,Partial repeat,2021.2.3,120.09713935769038,
1,5,0,1,1,3,3,3,3,1,0,1,1,0,0,0,0,76,76,76,,,,,,,,,,,,,,,,,,,,,,,,,,,,,,,,12_MZ,42,F,12,2021_Nov_04_0935,Partial repeat,2021.2.3,120.09713935769038,
1,4,0,1,1,3,2,2,2,1,1,0,1,1,0,0,0,77,77,77,0,0,0,0,,,,,,,439.95845122233607,None,0.725943276818273,440.5579401330193,None,"[87. 93. 93. 87. 87. 93. 93. 87. 87. 87. 93. 87. 87. 87. 93. 87. 87. 93.
 87. 87. 93. 93. 87. 87. 93. 87. 87. 93. 93. 93. 93. 87. 87. 87.]",441.3655792762519,None,l,1,0.5612476496964973,441.3655792762519,None,None,None,,,,,,,12_MZ,42,F,12,2021_Nov_04_0935,Partial repeat,2021.2.3,120.09713935769038,
1,4,0,1,1,3,2,2,2,1,1,0,1,1,0,0,0,77,77,77,1,0,1,0,,,,,,,,,0.94442321840875,441.9900376710285,None,"[93. 87. 93. 87. 93. 93. 93. 93. 87. 87. 93. 87. 93. 87. 93. 93. 93. 87.
 87. 93. 87. 93. 87. 87. 93. 93. 87. 87. 87. 93. 87. 93. 93. 87.]",443.01418516596607,None,l,1,0.6721395351914907,443.01418516596607,None,None,None,,,,,,,12_MZ,42,F,12,2021_Nov_04_0935,Partial repeat,2021.2.3,120.09713935769038,
1,4,0,1,1,3,2,2,2,1,1,0,1,1,0,0,0,77,77,77,,,,,,,,,,,,,,,,,,,,,,,,,,,,,,,,12_MZ,42,F,12,2021_Nov_04_0935,Partial repeat,2021.2.3,120.09713935769038,
3,5,0,1,1,3,2,3,2,1,1,0,0,1,0,0,0,78,78,78,0,0,0,0,,,,,,,443.7052519430439,None,0.7520992517921499,444.2381151528874,None,"[93. 93. 93. 87. 87. 93. 93. 87. 87. 93. 87. 87. 87. 93. 93. 93. 87. 87.
 87. 87. 87. 93. 87. 87. 87. 93. 87. 93. 87. 87. 93. 93. 87. 87.]",445.0707641901371,None,l,1,0.5352214140350497,445.0707641901371,None,None,None,,,,,,,12_MZ,42,F,12,2021_Nov_04_0935,Partial repeat,2021.2.3,120.09713935769038,
3,5,0,1,1,3,2,3,2,1,1,0,0,1,0,0,0,78,78,78,1,0,1,0,,,,,,,,,0.8468127060208274,445.66189915094253,None,"[87. 93. 93. 87. 87. 87. 93. 93. 87. 93. 87. 93. 87. 93. 93. 87. 87. 93.
 93. 87. 87. 93. 87. 93. 87. 93. 93. 87. 87. 87. 93. 93. 87. 93.]",446.58612509244574,None,l,1,0.556316035474083,446.58612509244574,None,None,None,,,,,,,12_MZ,42,F,12,2021_Nov_04_0935,Partial repeat,2021.2.3,120.09713935769038,
3,5,0,1,1,3,2,3,2,1,1,0,0,1,0,0,0,78,78,78,,,,,,,,,,,,,,,,,,,,,,,,,,,,,,,,12_MZ,42,F,12,2021_Nov_04_0935,Partial repeat,2021.2.3,120.09713935769038,
6,7,0,1,1,2,2,2,2,0,0,1,1,1,0,0,0,79,79,79,0,0,0,0,,,,,,,447.16065863043707,None,0.9692803142519575,447.8350550312599,None,"[87. 93. 87. 87. 93. 87. 93. 93. 93. 87. 87. 87. 87. 87. 93. 87. 93. 87.
 93. 87. 87. 93. 93. 87. 93. 87. 87. 87. 93. 93. 87. 87. 93. 93.]",448.8841736138594,None,l,0,0.8177922933612081,448.8841736138594,None,449.73343946817965,None,,,,,,,12_MZ,42,F,12,2021_Nov_04_0935,Partial repeat,2021.2.3,120.09713935769038,
6,7,0,1,1,2,2,2,2,0,0,1,1,1,0,0,0,79,79,79,1,0,1,0,,,,,,,,,0.9850625076194891,450.26631935513467,None,"[93. 93. 93. 93. 93. 87. 93. 87. 87. 87. 87. 87. 93. 87. 93. 93. 87. 93.
 93. 93. 93. 93. 93. 87. 93. 87. 87. 87. 87. 87. 93. 93. 93. 93.]",451.3320800911853,None,l,0,0.5939081684960001,451.3320800911853,None,451.93990210535696,None,,,,,,,12_MZ,42,F,12,2021_Nov_04_0935,Partial repeat,2021.2.3,120.09713935769038,
6,7,0,1,1,2,2,2,2,0,0,1,1,1,0,0,0,79,79,79,,,,,,,,,,,,,,,,,,,,,,,,,,,,,,,,12_MZ,42,F,12,2021_Nov_04_0935,Partial repeat,2021.2.3,120.09713935769038,
5,4,0,1,1,3,2,2,2,0,0,0,1,1,0,0,0,80,80,80,0,0,0,0,,,,,,,452.43945406834916,None,0.7366451010540174,453.2554308050618,None,"[93. 93. 93. 93. 93. 93. 93. 87. 93. 93. 93. 87. 93. 87. 87. 93. 93. 87.
 93. 93. 93. 87. 87. 93. 93. 87. 93. 93. 87. 87. 87. 93. 93. 87.]",454.079720761015,None,s,1,0.8063126679805919,454.079720761015,None,None,None,,,,,,,12_MZ,42,F,12,2021_Nov_04_0935,Partial repeat,2021.2.3,120.09713935769038,
5,4,0,1,1,3,2,2,2,0,0,0,1,1,0,0,0,80,80,80,1,0,1,0,,,,,,,,,0.7477612523711326,454.94565410516714,None,"[87. 93. 87. 93. 93. 93. 93. 93. 87. 93. 87. 87. 93. 93. 93. 87. 93. 87.
 93. 93. 93. 87. 87. 87. 87. 87. 87. 93. 87. 87. 93. 87. 87. 87.]",455.76995592752644,None,s,1,0.9720818708722163,455.76995592752644,None,None,None,,,,,,,12_MZ,42,F,12,2021_Nov_04_0935,Partial repeat,2021.2.3,120.09713935769038,
5,4,0,1,1,3,2,2,2,0,0,0,1,1,0,0,0,80,80,80,,,,,,,,,,,,,,,,,,,,,,,,,,,,,,,,12_MZ,42,F,12,2021_Nov_04_0935,Partial repeat,2021.2.3,120.09713935769038,
3,3,0,1,1,3,3,3,3,0,1,1,1,0,0,0,0,81,81,81,0,0,0,0,,,,,,,456.76076780137316,None,0.9648708038355369,457.3269473894869,None,"[87. 87. 87. 87. 87. 87. 93. 87. 87. 87. 93. 87. 93. 87. 93. 93. 87. 87.
 87. 87. 87. 87. 93. 87. 93. 87. 93. 93. 87. 93. 87. 87. 87. 93.]",458.3677123429226,None,s,1,0.6943723694728305,458.3677123429226,None,None,None,,,,,,,12_MZ,42,F,12,2021_Nov_04_0935,Partial repeat,2021.2.3,120.09713935769038,
3,3,0,1,1,3,3,3,3,0,1,1,1,0,0,0,0,81,81,81,1,0,1,0,,,,,,,,,0.8672449430744885,459.12540995225856,None,"[87. 87. 87. 87. 87. 87. 87. 93. 93. 93. 93. 93. 87. 93. 93. 93. 93. 93.
 87. 87. 93. 87. 93. 87. 87. 87. 87. 87. 93. 93. 93. 93. 93. 87.]",460.0829455370448,None,l,1,0.6903384328343236,460.0829455370448,None,None,None,,,,,,,12_MZ,42,F,12,2021_Nov_04_0935,Partial repeat,2021.2.3,120.09713935769038,
3,3,0,1,1,3,3,3,3,0,1,1,1,0,0,0,0,81,81,81,,,,,,,,,,,,,,,,,,,,,,,,,,,,,,,,12_MZ,42,F,12,2021_Nov_04_0935,Partial repeat,2021.2.3,120.09713935769038,
7,1,0,1,1,2,2,2,3,0,1,1,0,0,0,0,0,82,82,82,0,0,0,0,,,,,,,460.79064003545807,None,0.7832141273813852,461.4068208102125,None,"[93. 93. 93. 87. 93. 87. 87. 87. 87. 87. 93. 93. 93. 87. 93. 87. 93. 93.
 87. 87. 93. 93. 87. 93. 93. 87. 93. 93. 87. 87. 87. 87. 87. 93.]",462.2644005252008,None,s,1,0.8448181935564207,462.2644005252008,None,None,None,,,,,,,12_MZ,42,F,12,2021_Nov_04_0935,Partial repeat,2021.2.3,120.09713935769038,
7,1,0,1,1,2,2,2,3,0,1,1,0,0,0,0,0,82,82,82,1,0,1,0,,,,,,,,,0.9803841397627874,463.1719535247395,None,"[93. 93. 87. 87. 93. 87. 87. 87. 93. 93. 87. 87. 93. 93. 87. 93. 93. 93.
 93. 87. 87. 87. 93. 87. 87. 93. 93. 87. 93. 93. 93. 93. 87. 93.]",464.22938981657114,None,l,1,0.9758383901796606,464.22938981657114,None,None,None,,,,,,,12_MZ,42,F,12,2021_Nov_04_0935,Partial repeat,2021.2.3,120.09713935769038,
7,1,0,1,1,2,2,2,3,0,1,1,0,0,0,0,0,82,82,82,,,,,,,,,,,,,,,,,,,,,,,,,,,,,,,,12_MZ,42,F,12,2021_Nov_04_0935,Partial repeat,2021.2.3,120.09713935769038,
2,7,0,1,1,3,3,2,3,1,1,1,0,1,0,0,0,83,83,83,0,0,0,0,,,,,,,465.22852100321813,None,0.9795993039169072,465.90296615252,None,"[87. 93. 93. 87. 87. 93. 93. 87. 93. 87. 87. 93. 87. 93. 93. 93. 93. 87.
 87. 93. 87. 93. 93. 87. 87. 93. 93. 87. 87. 87. 93. 93. 93. 87.]",466.9603787115392,None,l,1,0.6768880219040057,466.9603787115392,None,None,None,,,,,,,12_MZ,42,F,12,2021_Nov_04_0935,Partial repeat,2021.2.3,120.09713935769038,
2,7,0,1,1,3,3,2,3,1,1,1,0,1,0,0,0,83,83,83,1,0,1,0,,,,,,,,,0.7246644263962178,467.70140145462904,None,"[87. 93. 87. 87. 87. 87. 93. 87. 93. 87. 93. 87. 93. 87. 87. 87. 93. 87.
 87. 93. 93. 87. 87. 93. 87. 93. 87. 93. 93. 87. 93. 93. 87. 93.]",468.50073347218097,None,l,1,0.6405120351480491,468.50073347218097,None,None,None,,,,,,,12_MZ,42,F,12,2021_Nov_04_0935,Partial repeat,2021.2.3,120.09713935769038,
2,7,0,1,1,3,3,2,3,1,1,1,0,1,0,0,0,83,83,83,,,,,,,,,,,,,,,,,,,,,,,,,,,,,,,,12_MZ,42,F,12,2021_Nov_04_0935,Partial repeat,2021.2.3,120.09713935769038,
2,5,0,1,1,3,2,3,3,1,0,0,1,0,0,0,0,84,84,84,0,0,0,0,,,,,,,469.1668272373146,None,0.7887086525411803,469.70802996492046,None,"[93. 87. 87. 93. 87. 93. 93. 93. 87. 87. 87. 93. 93. 87. 87. 93. 93. 87.
 93. 87. 93. 87. 87. 93. 93. 87. 87. 87. 87. 93. 93. 87. 93. 93.]",470.57394887695693,None,l,1,0.6633500561397341,470.57394887695693,None,None,None,,,,,,,12_MZ,42,F,12,2021_Nov_04_0935,Partial repeat,2021.2.3,120.09713935769038,
2,5,0,1,1,3,2,3,3,1,0,0,1,0,0,0,0,84,84,84,1,0,1,0,,,,,,,,,0.844508240763064,471.2983403708605,None,"[87. 87. 87. 93. 87. 93. 93. 87. 93. 87. 87. 93. 93. 87. 87. 87. 87. 87.
 93. 87. 93. 87. 87. 87. 87. 93. 93. 93. 87. 93. 87. 93. 93. 87.]",472.2308849837367,None,s,1,0.7502689149375783,472.2308849837367,None,None,None,,,,,,,12_MZ,42,F,12,2021_Nov_04_0935,Partial repeat,2021.2.3,120.09713935769038,
2,5,0,1,1,3,2,3,3,1,0,0,1,0,0,0,0,84,84,84,,,,,,,,,,,,,,,,,,,,,,,,,,,,,,,,12_MZ,42,F,12,2021_Nov_04_0935,Partial repeat,2021.2.3,120.09713935769038,
2,2,0,1,1,3,2,3,2,0,0,0,0,1,0,0,0,85,85,85,0,0,0,0,,,,,,,472.9968887566123,None,0.9920838552128182,473.68796772080975,None,"[93. 93. 93. 87. 87. 87. 87. 87. 87. 93. 93. 93. 87. 87. 87. 87. 87. 87.
 93. 93. 87. 87. 87. 93. 87. 87. 93. 87. 93. 87. 93. 93. 93. 93.]",474.7620423175284,None,s,1,0.7153781532233552,474.7620423175284,None,None,None,,,,,,,12_MZ,42,F,12,2021_Nov_04_0935,Partial repeat,2021.2.3,120.09713935769038,
2,2,0,1,1,3,2,3,2,0,0,0,0,1,0,0,0,85,85,85,1,0,1,0,,,,,,,,,0.9104348902247097,475.53637149676445,None,"[87. 93. 93. 87. 93. 87. 87. 93. 87. 87. 87. 93. 87. 93. 87. 87. 93. 93.
 93. 87. 93. 93. 93. 87. 93. 87. 87. 93. 87. 93. 87. 87. 87. 93.]",476.5272135176966,None,s,1,0.8052764420876883,476.5272135176966,None,None,None,,,,,,,12_MZ,42,F,12,2021_Nov_04_0935,Partial repeat,2021.2.3,120.09713935769038,
2,2,0,1,1,3,2,3,2,0,0,0,0,1,0,0,0,85,85,85,,,,,,,,,,,,,,,,,,,,,,,,,,,,,,,,12_MZ,42,F,12,2021_Nov_04_0935,Partial repeat,2021.2.3,120.09713935769038,
7,3,0,1,1,2,3,2,3,0,0,0,0,1,0,0,0,86,86,86,0,0,0,0,,,,,,,477.3515018700815,None,0.9225139918758389,477.88436732492085,None,"[93. 87. 87. 93. 93. 87. 93. 93. 87. 87. 93. 87. 87. 93. 93. 93. 93. 87.
 93. 93. 87. 93. 93. 93. 87. 93. 87. 87. 93. 93. 93. 87. 93. 93.]",478.8835341107862,None,s,1,0.6568729227039967,478.8835341107862,None,None,None,,,,,,,12_MZ,42,F,12,2021_Nov_04_0935,Partial repeat,2021.2.3,120.09713935769038,
7,3,0,1,1,2,3,2,3,0,0,0,0,1,0,0,0,86,86,86,1,0,1,0,,,,,,,,,0.999304813074181,479.59126324627675,None,"[93. 87. 87. 93. 87. 93. 93. 87. 93. 93. 87. 87. 87. 93. 93. 87. 87. 93.
 87. 93. 93. 87. 93. 87. 93. 93. 93. 93. 93. 93. 93. 93. 93. 87.]",480.66533944656373,None,s,1,0.6511308650178762,480.66533944656373,None,None,None,,,,,,,12_MZ,42,F,12,2021_Nov_04_0935,Partial repeat,2021.2.3,120.09713935769038,
7,3,0,1,1,2,3,2,3,0,0,0,0,1,0,0,0,86,86,86,,,,,,,,,,,,,,,,,,,,,,,,,,,,,,,,12_MZ,42,F,12,2021_Nov_04_0935,Partial repeat,2021.2.3,120.09713935769038,
2,6,0,1,1,2,2,3,2,1,1,1,0,1,0,0,0,87,87,87,0,0,0,0,,,,,,,481.3397496380745,None,0.9822833858134963,481.8976185726573,None,"[93. 93. 87. 87. 93. 93. 87. 93. 87. 93. 87. 87. 87. 93. 87. 93. 93. 87.
 93. 87. 93. 93. 87. 93. 87. 93. 93. 87. 93. 87. 87. 93. 87. 87.]",482.9550494123563,None,l,1,0.6176910119818331,482.9550494123563,None,None,None,,,,,,,12_MZ,42,F,12,2021_Nov_04_0935,Partial repeat,2021.2.3,120.09713935769038,
2,6,0,1,1,2,2,3,2,1,1,1,0,1,0,0,0,87,87,87,1,0,1,0,,,,,,,,,0.9441454343051852,483.63780425304833,None,"[93. 87. 87. 87. 87. 87. 87. 93. 93. 93. 93. 93. 93. 93. 93. 93. 93. 87.
 87. 87. 87. 87. 87. 93. 93. 87. 87. 93. 87. 93. 93. 93. 87. 87.]",484.6702425172688,None,l,1,0.6462768635053635,484.6702425172688,None,None,None,,,,,,,12_MZ,42,F,12,2021_Nov_04_0935,Partial repeat,2021.2.3,120.09713935769038,
2,6,0,1,1,2,2,3,2,1,1,1,0,1,0,0,0,87,87,87,,,,,,,,,,,,,,,,,,,,,,,,,,,,,,,,12_MZ,42,F,12,2021_Nov_04_0935,Partial repeat,2021.2.3,120.09713935769038,
7,6,0,1,1,3,3,3,3,0,0,1,1,1,0,0,0,88,88,88,0,0,0,0,,,,,,,485.3446719516004,None,0.8985586764846001,487.67600542134403,None,"[93. 87. 93. 87. 93. 87. 93. 87. 87. 93. 93. 93. 87. 87. 93. 93. 87. 87.
 87. 87. 87. 87. 87. 87. 87. 93. 87. 87. 87. 87. 87. 93. 87. 87.]",488.65017033103425,None,s,1,0.5864172591250281,488.65017033103425,None,None,None,,,,,,,12_MZ,42,F,12,2021_Nov_04_0935,Partial repeat,2021.2.3,120.09713935769038,
7,6,0,1,1,3,3,3,3,0,0,1,1,1,0,0,0,88,88,88,1,0,1,0,,,,,,,,,0.8669196984106607,489.29965914550337,None,"[87. 87. 87. 87. 87. 87. 93. 87. 93. 93. 93. 93. 93. 87. 87. 87. 87. 93.
 87. 93. 93. 93. 93. 87. 93. 87. 93. 93. 93. 87. 87. 93. 93. 87.]",490.24881608545877,None,s,1,0.9092547028317313,490.24881608545877,None,None,None,,,,,,,12_MZ,42,F,12,2021_Nov_04_0935,Partial repeat,2021.2.3,120.09713935769038,
7,6,0,1,1,3,3,3,3,0,0,1,1,1,0,0,0,88,88,88,,,,,,,,,,,,,,,,,,,,,,,,,,,,,,,,12_MZ,42,F,12,2021_Nov_04_0935,Partial repeat,2021.2.3,120.09713935769038,
6,3,0,1,1,3,2,2,3,1,0,0,0,0,0,0,0,89,89,89,0,0,0,0,,,,,,,491.1813571704844,None,0.7064069014503006,491.83079531219244,None,"[87. 93. 87. 87. 93. 93. 93. 93. 87. 87. 87. 87. 87. 93. 93. 93. 87. 87.
 87. 93. 93. 87. 87. 93. 93. 87. 93. 93. 87. 93. 93. 87. 93. 87.]",492.61345567063483,None,l,1,0.606254682947565,492.61345567063483,None,None,None,,,,,,,12_MZ,42,F,12,2021_Nov_04_0935,Partial repeat,2021.2.3,120.09713935769038,
6,3,0,1,1,3,2,2,3,1,0,0,0,0,0,0,0,89,89,89,1,0,1,0,,,,,,,,,0.9530779653583735,493.2795526429053,None,"[87. 87. 93. 87. 87. 87. 87. 93. 93. 87. 93. 93. 87. 87. 87. 87. 87. 93.
 93. 93. 93. 93. 87. 87. 87. 93. 87. 87. 87. 87. 87. 93. 93. 93.]",494.3120181677883,None,s,1,0.7636567867009489,494.3120181677883,None,None,None,,,,,,,12_MZ,42,F,12,2021_Nov_04_0935,Partial repeat,2021.2.3,120.09713935769038,
6,3,0,1,1,3,2,2,3,1,0,0,0,0,0,0,0,89,89,89,,,,,,,,,,,,,,,,,,,,,,,,,,,,,,,,12_MZ,42,F,12,2021_Nov_04_0935,Partial repeat,2021.2.3,120.09713935769038,
1,7,0,1,1,2,3,3,2,0,0,0,0,1,0,0,0,90,90,90,0,0,0,0,,,,,,,495.0946596041239,None,0.7755249497838874,495.81905398445053,None,"[93. 87. 93. 93. 93. 93. 93. 87. 93. 93. 93. 93. 93. 87. 87. 93. 93. 87.
 87. 93. 93. 87. 87. 93. 93. 93. 87. 93. 93. 93. 87. 93. 93. 93.]",496.6766606393877,None,s,1,0.5910342532297364,496.6766606393877,None,None,None,,,,,,,12_MZ,42,F,12,2021_Nov_04_0935,Partial repeat,2021.2.3,120.09713935769038,
1,7,0,1,1,2,3,3,2,0,0,0,0,1,0,0,0,90,90,90,1,0,1,0,,,,,,,,,0.969094842758459,497.317770809026,None,"[87. 87. 93. 93. 93. 87. 93. 93. 87. 93. 87. 93. 93. 87. 93. 93. 87. 87.
 87. 87. 93. 93. 93. 87. 93. 87. 87. 93. 93. 93. 87. 93. 93. 93.]",498.3668772045056,None,s,1,0.5809045117184723,498.3668772045056,None,None,None,,,,,,,12_MZ,42,F,12,2021_Nov_04_0935,Partial repeat,2021.2.3,120.09713935769038,
1,7,0,1,1,2,3,3,2,0,0,0,0,1,0,0,0,90,90,90,,,,,,,,,,,,,,,,,,,,,,,,,,,,,,,,12_MZ,42,F,12,2021_Nov_04_0935,Partial repeat,2021.2.3,120.09713935769038,
8,2,0,1,1,2,3,3,3,1,0,0,1,0,0,0,0,91,91,91,0,0,0,0,,,,,,,498.9663568144921,None,0.8190135862738799,499.4659235303135,None,"[93. 87. 93. 93. 93. 87. 87. 93. 93. 87. 93. 93. 87. 87. 93. 87. 93. 87.
 93. 87. 87. 87. 93. 87. 93. 93. 87. 87. 93. 87. 93. 87. 87. 87.]",500.3651758184452,None,s,0,0.6311103136854399,500.3651758184452,None,501.00630555161786,None,,,,,,,12_MZ,42,F,12,2021_Nov_04_0935,Partial repeat,2021.2.3,120.09713935769038,
8,2,0,1,1,2,3,3,3,1,0,0,1,0,0,0,0,91,91,91,1,0,1,0,,,,,,,,,0.8102185632288893,501.53916555432477,None,"[93. 93. 93. 87. 93. 93. 87. 93. 87. 93. 87. 93. 87. 93. 93. 87. 93. 87.
 87. 87. 87. 87. 87. 93. 93. 93. 87. 87. 87. 87. 93. 93. 93. 87.]",502.43007896612164,None,s,1,0.6137343673397027,502.43007896612164,None,None,None,,,,,,,12_MZ,42,F,12,2021_Nov_04_0935,Partial repeat,2021.2.3,120.09713935769038,
8,2,0,1,1,2,3,3,3,1,0,0,1,0,0,0,0,91,91,91,,,,,,,,,,,,,,,,,,,,,,,,,,,,,,,,12_MZ,42,F,12,2021_Nov_04_0935,Partial repeat,2021.2.3,120.09713935769038,
5,7,0,1,1,3,2,3,3,0,0,0,1,1,0,0,0,92,92,92,0,0,0,0,,,,,,,503.06284993871157,None,0.8594736490562283,503.6290478075051,None,"[87. 87. 87. 87. 87. 87. 93. 87. 87. 93. 87. 93. 87. 87. 93. 93. 93. 93.
 87. 93. 87. 93. 87. 93. 93. 87. 87. 93. 93. 87. 93. 87. 87. 93.]",504.5699287310066,None,s,1,0.8259034629847974,504.5699287310066,None,None,None,,,,,,,12_MZ,42,F,12,2021_Nov_04_0935,Partial repeat,2021.2.3,120.09713935769038,
5,7,0,1,1,3,2,3,3,0,0,0,1,1,0,0,0,92,92,92,1,0,1,0,,,,,,,,,0.8840386608449566,505.4608180892777,None,"[93. 87. 87. 93. 93. 93. 93. 87. 93. 93. 93. 87. 93. 87. 87. 87. 93. 87.
 87. 93. 87. 87. 93. 93. 87. 87. 87. 87. 87. 87. 87. 93. 87. 87.]",506.4266454054879,None,s,1,0.6323793777082756,506.4266454054879,None,None,None,,,,,,,12_MZ,42,F,12,2021_Nov_04_0935,Partial repeat,2021.2.3,120.09713935769038,
5,7,0,1,1,3,2,3,3,0,0,0,1,1,0,0,0,92,92,92,,,,,,,,,,,,,,,,,,,,,,,,,,,,,,,,12_MZ,42,F,12,2021_Nov_04_0935,Partial repeat,2021.2.3,120.09713935769038,
4,6,0,1,1,3,3,2,3,0,1,1,0,0,0,0,0,93,93,93,0,0,0,0,,,,,,,507.0760867543328,None,0.7595844381192671,507.8504409492356,None,"[93. 87. 93. 87. 87. 93. 87. 93. 93. 87. 87. 93. 93. 87. 87. 87. 87. 93.
 87. 93. 87. 87. 93. 87. 87. 87. 87. 87. 93. 93. 93. 87. 87. 87.]",508.69138973575116,None,s,1,0.6555717873136473,508.69138973575116,None,None,None,,,,,,,12_MZ,42,F,12,2021_Nov_04_0935,Partial repeat,2021.2.3,120.09713935769038,
4,6,0,1,1,3,3,2,3,0,1,1,0,0,0,0,0,93,93,93,1,0,1,0,,,,,,,,,0.7411930376032155,509.39912271980586,None,"[93. 93. 87. 93. 87. 87. 93. 93. 87. 87. 87. 87. 93. 87. 93. 93. 87. 93.
 87. 87. 87. 87. 93. 93. 93. 93. 93. 87. 87. 93. 87. 87. 93. 93.]",510.21508726939885,None,l,1,0.5718254282155613,510.21508726939885,None,None,None,,,,,,,12_MZ,42,F,12,2021_Nov_04_0935,Partial repeat,2021.2.3,120.09713935769038,
4,6,0,1,1,3,3,2,3,0,1,1,0,0,0,0,0,93,93,93,,,,,,,,,,,,,,,,,,,,,,,,,,,,,,,,12_MZ,42,F,12,2021_Nov_04_0935,Partial repeat,2021.2.3,120.09713935769038,
5,1,0,1,1,2,2,3,2,0,0,1,0,1,0,0,0,94,94,94,0,0,0,0,,,,,,,510.7979115766733,None,0.7055064563952593,511.88031959759417,None,"[87. 87. 93. 93. 87. 93. 87. 87. 87. 93. 93. 87. 87. 93. 87. 87. 93. 87.
 93. 93. 87. 93. 87. 93. 87. 93. 87. 93. 87. 87. 87. 93. 93. 87.]",512.6629963124341,None,s,1,0.6679699366675322,512.6629963124341,None,None,None,,,,,,,12_MZ,42,F,12,2021_Nov_04_0935,Partial repeat,2021.2.3,120.09713935769038,
5,1,0,1,1,2,2,3,2,0,0,1,0,1,0,0,0,94,94,94,1,0,1,0,,,,,,,,,0.7462475215744525,513.3873810713504,None,"[93. 93. 93. 93. 87. 87. 87. 87. 87. 87. 93. 93. 87. 87. 93. 87. 93. 87.
 87. 87. 93. 87. 87. 93. 93. 87. 93. 87. 87. 93. 87. 93. 87. 87.]",514.2116921944063,None,s,1,0.6553578712903345,514.2116921944063,None,None,None,,,,,,,12_MZ,42,F,12,2021_Nov_04_0935,Partial repeat,2021.2.3,120.09713935769038,
5,1,0,1,1,2,2,3,2,0,0,1,0,1,0,0,0,94,94,94,,,,,,,,,,,,,,,,,,,,,,,,,,,,,,,,12_MZ,42,F,12,2021_Nov_04_0935,Partial repeat,2021.2.3,120.09713935769038,
1,1,0,1,1,2,2,2,2,1,0,1,1,0,0,0,0,95,95,95,0,0,0,0,,,,,,,514.8861030273448,None,0.7189376669654406,515.3357679777656,None,"[93. 87. 93. 93. 93. 87. 87. 87. 87. 87. 87. 93. 87. 93. 93. 93. 87. 93.
 87. 93. 93. 87. 93. 87. 93. 93. 93. 93. 87. 93. 93. 87. 87. 93.]",516.1350166097615,None,l,1,0.588002867547857,516.1350166097615,None,None,None,,,,,,,12_MZ,42,F,12,2021_Nov_04_0935,Partial repeat,2021.2.3,120.09713935769038,
1,1,0,1,1,2,2,2,2,1,0,1,1,0,0,0,0,95,95,95,1,0,1,0,,,,,,,,,0.7337176321041159,516.7761543607759,None,"[87. 93. 87. 87. 87. 93. 93. 93. 87. 87. 87. 93. 93. 93. 93. 87. 93. 93.
 93. 87. 93. 87. 93. 93. 87. 93. 87. 93. 87. 87. 87. 93. 93. 87.]",517.5921185896551,None,s,1,0.6029147707074571,517.5921185896551,None,None,None,,,,,,,12_MZ,42,F,12,2021_Nov_04_0935,Partial repeat,2021.2.3,120.09713935769038,
1,1,0,1,1,2,2,2,2,1,0,1,1,0,0,0,0,95,95,95,,,,,,,,,,,,,,,,,,,,,,,,,,,,,,,,12_MZ,42,F,12,2021_Nov_04_0935,Partial repeat,2021.2.3,120.09713935769038,
4,1,0,1,1,2,3,3,3,0,1,0,1,0,0,0,0,96,96,96,0,0,0,0,,,,,,,518.2165843608465,None,0.7317591968479817,518.9992514542761,None,"[93. 93. 87. 87. 93. 87. 93. 93. 93. 93. 93. 93. 93. 93. 93. 93. 93. 87.
 87. 87. 87. 87. 93. 87. 93. 93. 93. 93. 93. 93. 93. 87. 93. 87.]",519.8068970117823,None,s,1,0.6761898282277343,519.8068970117823,None,None,None,,,,,,,12_MZ,42,F,12,2021_Nov_04_0935,Partial repeat,2021.2.3,120.09713935769038,
4,1,0,1,1,2,3,3,3,0,1,0,1,0,0,0,0,96,96,96,1,0,1,0,,,,,,,,,0.8309269407732549,520.5562522169333,None,"[87. 93. 93. 93. 93. 93. 93. 87. 87. 93. 93. 87. 87. 93. 87. 93. 93. 87.
 87. 87. 87. 93. 93. 87. 93. 93. 93. 93. 87. 87. 87. 87. 87. 93.]",521.4638327978483,None,l,1,0.779278429229862,521.4638327978483,None,None,None,,,,,,,12_MZ,42,F,12,2021_Nov_04_0935,Partial repeat,2021.2.3,120.09713935769038,
4,1,0,1,1,2,3,3,3,0,1,0,1,0,0,0,0,96,96,96,,,,,,,,,,,,,,,,,,,,,,,,,,,,,,,,12_MZ,42,F,12,2021_Nov_04_0935,Partial repeat,2021.2.3,120.09713935769038,
8,3,0,1,1,3,3,3,2,0,0,1,0,1,0,0,0,97,97,97,0,0,0,0,,,,,,,522.2631093319343,None,0.8380437369434118,522.8376358142247,None,"[87. 93. 87. 87. 87. 87. 93. 87. 87. 93. 93. 87. 87. 87. 93. 87. 93. 93.
 87. 87. 87. 93. 87. 87. 93. 87. 93. 87. 87. 93. 93. 87. 93. 93.]",523.753520955111,None,s,1,0.6006870935020743,523.753520955111,None,None,None,,,,,,,12_MZ,42,F,12,2021_Nov_04_0935,Partial repeat,2021.2.3,120.09713935769038,
8,3,0,1,1,3,3,3,2,0,0,1,0,1,0,0,0,97,97,97,1,0,1,0,,,,,,,,,0.8300280134618315,524.4196147202448,None,"[93. 87. 93. 93. 93. 87. 87. 87. 93. 87. 87. 93. 87. 93. 93. 93. 93. 87.
 87. 93. 87. 87. 93. 93. 87. 87. 93. 87. 93. 87. 93. 93. 87. 87.]",525.3271648333604,None,s,1,0.6910318158058999,525.3271648333604,None,None,None,,,,,,,12_MZ,42,F,12,2021_Nov_04_0935,Partial repeat,2021.2.3,120.09713935769038,
8,3,0,1,1,3,3,3,2,0,0,1,0,1,0,0,0,97,97,97,,,,,,,,,,,,,,,,,,,,,,,,,,,,,,,,12_MZ,42,F,12,2021_Nov_04_0935,Partial repeat,2021.2.3,120.09713935769038,
2,4,0,1,1,3,3,2,3,1,0,1,0,0,0,0,0,98,98,98,0,0,0,0,,,,,,,526.0349042316888,None,0.9629783152956769,526.5344805689205,None,"[93. 93. 87. 93. 87. 93. 87. 87. 87. 87. 87. 93. 87. 93. 87. 93. 93. 87.
 93. 87. 93. 93. 93. 87. 93. 93. 93. 93. 93. 87. 87. 93. 93. 87.]",527.5752528987706,None,l,1,0.8597227203015336,527.5752528987706,None,None,None,,,,,,,12_MZ,42,F,12,2021_Nov_04_0935,Partial repeat,2021.2.3,120.09713935769038,
2,4,0,1,1,3,3,2,3,1,0,1,0,0,0,0,0,98,98,98,1,0,1,0,,,,,,,,,0.9296771501197785,528.4911386810842,None,"[93. 93. 87. 93. 87. 93. 93. 93. 93. 93. 87. 87. 87. 93. 87. 87. 87. 87.
 93. 93. 87. 87. 87. 87. 87. 93. 87. 93. 93. 87. 87. 87. 93. 87.]",529.4986090647798,None,s,1,0.6636406227316911,529.4986090647798,None,None,None,,,,,,,12_MZ,42,F,12,2021_Nov_04_0935,Partial repeat,2021.2.3,120.09713935769038,
2,4,0,1,1,3,3,2,3,1,0,1,0,0,0,0,0,98,98,98,,,,,,,,,,,,,,,,,,,,,,,,,,,,,,,,12_MZ,42,F,12,2021_Nov_04_0935,Partial repeat,2021.2.3,120.09713935769038,
2,3,0,1,1,2,2,3,3,0,1,1,1,0,0,0,0,99,99,99,0,0,0,0,,,,,,,530.1813626226168,None,0.7961126818663375,530.6975884897143,None,"[87. 87. 93. 87. 93. 93. 87. 93. 93. 87. 87. 87. 87. 93. 87. 87. 87. 87.
 93. 93. 87. 87. 87. 87. 93. 87. 87. 93. 87. 93. 87. 93. 87. 93.]",531.5718398638122,None,s,1,0.5904495921952275,531.5718398638122,None,None,None,,,,,,,12_MZ,42,F,12,2021_Nov_04_0935,Partial repeat,2021.2.3,120.09713935769038,
2,3,0,1,1,2,2,3,3,0,1,1,1,0,0,0,0,99,99,99,1,0,1,0,,,,,,,,,0.7687717718414655,532.2212699876783,None,"[93. 87. 93. 93. 93. 87. 87. 87. 87. 93. 93. 87. 93. 93. 87. 87. 87. 87.
 87. 87. 93. 87. 93. 87. 93. 87. 87. 87. 93. 93. 87. 93. 93. 93.]",533.0705634233749,None,l,1,0.7077284905822125,533.0705634233749,None,None,None,,,,,,,12_MZ,42,F,12,2021_Nov_04_0935,Partial repeat,2021.2.3,120.09713935769038,
2,3,0,1,1,2,2,3,3,0,1,1,1,0,0,0,0,99,99,99,,,,,,,,,,,,,,,,,,,,,,,,,,,,,,,,12_MZ,42,F,12,2021_Nov_04_0935,Partial repeat,2021.2.3,120.09713935769038,
4,2,0,1,1,3,3,2,2,0,0,1,1,1,0,0,0,100,100,100,0,0,0,0,,,,,,,533.7949343916029,None,0.8185441410575762,534.2445672706561,None,"[93. 93. 93. 87. 87. 93. 87. 93. 87. 93. 93. 87. 87. 87. 93. 87. 93. 87.
 87. 93. 87. 87. 87. 93. 93. 93. 87. 93. 87. 93. 93. 93. 87. 87.]",535.1437846009968,None,s,1,0.5705252549660145,535.1437846009968,None,None,None,,,,,,,12_MZ,42,F,12,2021_Nov_04_0935,Partial repeat,2021.2.3,120.09713935769038,
4,2,0,1,1,3,3,2,2,0,0,1,1,1,0,0,0,100,100,100,1,0,1,0,,,,,,,,,0.7614794471691164,535.7682343365044,None,"[87. 93. 87. 87. 87. 93. 93. 87. 93. 87. 87. 87. 87. 93. 87. 87. 93. 93.
 87. 87. 87. 87. 93. 93. 87. 87. 93. 93. 93. 93. 93. 87. 93. 87.]",536.6092030072681,None,s,1,0.6731510661311404,536.6092030072681,None,None,None,,,,,,,12_MZ,42,F,12,2021_Nov_04_0935,Partial repeat,2021.2.3,120.09713935769038,
4,2,0,1,1,3,3,2,2,0,0,1,1,1,0,0,0,100,100,100,,,,,,,,,,,,,,,,,,,,,,,,,,,,,,,,12_MZ,42,F,12,2021_Nov_04_0935,Partial repeat,2021.2.3,120.09713935769038,
4,5,0,1,1,2,3,2,3,1,0,0,0,0,0,0,0,101,101,101,0,0,0,0,,,,,,,537.2919177587502,None,0.8646150678804619,537.7665396854312,None,"[93. 87. 87. 93. 87. 93. 93. 87. 87. 87. 87. 87. 87. 93. 87. 87. 93. 93.
