prime_tar_pos,probe_tar_pos,dimension,tar_color,tar_shape,prime_dist_color,probe_dist_color,prime_dist_shape,probe_dist_shape,prime_tar_ori,probe_tar_ori,col_rep,shape_rep,resp_rep,pos_fixed,sparse,MainLoop.thisRepN,MainLoop.thisTrialN,MainLoop.thisN,MainLoop.thisIndex,PrimeProbe.thisRepN,PrimeProbe.thisTrialN,PrimeProbe.thisN,PrimeProbe.thisIndex,Instruction.started,Instruction.stopped,instruction_key.keys,instruction_key.rt,instruction_key.started,instruction_key.stopped,PairStartText.started,PairStartText.stopped,fixdur,FixCross.started,FixCross.stopped,dist_ori,SearchFixCross.started,SearchFixCross.stopped,key_resp.keys,key_resp.corr,key_resp.rt,key_resp.started,key_resp.stopped,feedback_text.started,feedback_text.stopped,participant,age,gender,group,date,expName,psychopyVersion,frameRate,
,,,,,,,,,,,,,,,,,,,,,,,,25.80803675086827,None,space,4.607909672333335,25.80803675086827,None,,,,,,,,,,,,,,,,13_NF,24,F,13,2021_Nov_02_1555,Partial repeat,2021.2.3,120.10199561463384,
8,1,0,1,1,2,2,3,3,1,0,1,1,0,0,0,0,0,0,0,0,0,0,0,,,,,,,75.65769628450471,None,0.8478667979086091,97.92893373990955,None,"[87. 93. 93. 93. 87. 93. 93. 87. 87. 87. 93. 87. 93. 87. 93. 93. 93. 87.
 93. 87. 87. 93. 87. 87. 93. 93. 93. 87. 93. 93. 93. 93. 93. 93.]",98.86145526921064,None,l,1,0.6229869186863652,98.86145526921064,None,None,None,13_NF,24,F,13,2021_Nov_02_1555,Partial repeat,2021.2.3,120.10199561463384,
8,1,0,1,1,2,2,3,3,1,0,1,1,0,0,0,0,0,0,0,1,0,1,0,,,,,,,,,0.8270909377562592,99.55251603873694,None,"[93. 87. 87. 87. 93. 93. 93. 87. 87. 87. 87. 93. 93. 87. 93. 93. 87. 87.
 93. 87. 87. 87. 87. 93. 93. 93. 93. 93. 93. 93. 93. 93. 87. 93.]",100.46839846110197,None,s,1,0.5842415513507149,100.46839846110197,None,None,None,13_NF,24,F,13,2021_Nov_02_1555,Partial repeat,2021.2.3,120.10199561463384,
8,1,0,1,1,2,2,3,3,1,0,1,1,0,0,0,0,0,0,0,,,,,,,,,,,,,,,,,,,,,,,,,,13_NF,24,F,13,2021_Nov_02_1555,Partial repeat,2021.2.3,120.10199561463384,
3,1,0,1,1,2,3,2,2,1,1,0,1,1,0,0,0,1,1,1,0,0,0,0,,,,,,,101.07619474316925,None,0.7320552804649069,103.38253621784679,None,"[87. 93. 93. 87. 87. 93. 87. 93. 93. 87. 93. 93. 93. 93. 93. 87. 87. 93.
 93. 87. 87. 93. 87. 93. 87. 93. 87. 93. 87. 93. 93. 93. 93. 93.]",104.19850542449967,None,l,1,0.629029747660752,104.19850542449967,None,None,None,13_NF,24,F,13,2021_Nov_02_1555,Partial repeat,2021.2.3,120.10199561463384,
3,1,0,1,1,2,3,2,2,1,1,0,1,1,0,0,0,1,1,1,1,0,1,0,,,,,,,,,0.9068119478335596,104.89788093683455,None,"[93. 93. 93. 93. 87. 87. 87. 93. 93. 87. 87. 87. 87. 87. 93. 87. 93. 87.
 87. 93. 93. 87. 87. 93. 87. 87. 87. 93. 93. 87. 93. 93. 93. 93.]",105.8803755905883,None,l,1,0.5951120368681586,105.8803755905883,None,None,None,13_NF,24,F,13,2021_Nov_02_1555,Partial repeat,2021.2.3,120.10199561463384,
3,1,0,1,1,2,3,2,2,1,1,0,1,1,0,0,0,1,1,1,,,,,,,,,,,,,,,,,,,,,,,,,,13_NF,24,F,13,2021_Nov_02_1555,Partial repeat,2021.2.3,120.10199561463384,
5,2,0,1,1,3,3,3,2,1,0,1,0,0,0,0,0,2,2,2,0,0,0,0,,,,,,,106.48819400168577,None,0.9384489417399735,108.22002382238315,None,"[87. 93. 93. 93. 87. 87. 87. 93. 87. 93. 87. 87. 93. 93. 93. 93. 87. 87.
 87. 87. 93. 93. 93. 93. 87. 87. 87. 87. 87. 87. 93. 93. 87. 87.]",109.2441377310879,None,l,1,0.5753835247978714,109.2441377310879,None,None,None,13_NF,24,F,13,2021_Nov_02_1555,Partial repeat,2021.2.3,120.10199561463384,
5,2,0,1,1,3,3,3,2,1,0,1,0,0,0,0,0,2,2,2,1,0,1,0,,,,,,,,,0.949323402102834,109.88524975016662,None,"[87. 93. 93. 87. 93. 93. 93. 93. 87. 87. 87. 87. 87. 93. 87. 93. 87. 93.
 87. 93. 87. 87. 93. 93. 93. 87. 93. 87. 93. 87. 93. 87. 87. 87.]",110.90937007308457,None,s,1,0.526180747188846,110.90937007308457,None,None,None,13_NF,24,F,13,2021_Nov_02_1555,Partial repeat,2021.2.3,120.10199561463384,
5,2,0,1,1,3,3,3,2,1,0,1,0,0,0,0,0,2,2,2,,,,,,,,,,,,,,,,,,,,,,,,,,13_NF,24,F,13,2021_Nov_02_1555,Partial repeat,2021.2.3,120.10199561463384,
8,5,0,1,1,3,3,2,3,0,0,1,0,1,0,0,0,3,3,3,0,0,0,0,,,,,,,111.4588868263636,None,0.9287944046822441,112.68282941147118,None,"[87. 87. 87. 93. 93. 87. 93. 93. 93. 87. 87. 93. 93. 93. 93. 93. 93. 87.
 87. 93. 93. 93. 93. 87. 93. 93. 93. 93. 87. 87. 87. 87. 93. 87.]",113.69861382467934,None,s,1,0.6649063587519777,113.69861382467934,None,None,None,13_NF,24,F,13,2021_Nov_02_1555,Partial repeat,2021.2.3,120.10199561463384,
8,5,0,1,1,3,3,2,3,0,0,1,0,1,0,0,0,3,3,3,1,0,1,0,,,,,,,,,0.9284687304247782,114.4229912933497,None,"[93. 93. 87. 93. 87. 93. 87. 87. 87. 87. 87. 87. 87. 87. 87. 93. 87. 87.
 87. 93. 93. 87. 87. 93. 93. 93. 87. 87. 93. 87. 93. 93. 93. 87.]",115.44711867189835,None,s,1,0.9798204275557509,115.44711867189835,None,None,None,13_NF,24,F,13,2021_Nov_02_1555,Partial repeat,2021.2.3,120.10199561463384,
8,5,0,1,1,3,3,2,3,0,0,1,0,1,0,0,0,3,3,3,,,,,,,,,,,,,,,,,,,,,,,,,,13_NF,24,F,13,2021_Nov_02_1555,Partial repeat,2021.2.3,120.10199561463384,
2,1,0,1,1,3,3,3,2,1,1,1,0,1,0,0,0,4,4,4,0,0,0,0,,,,,,,116.44623992487686,None,0.840184745770503,117.43704643504498,None,"[93. 87. 93. 87. 87. 93. 93. 87. 93. 93. 87. 87. 87. 93. 87. 87. 87. 93.
 87. 87. 87. 87. 87. 93. 87. 87. 93. 93. 93. 93. 93. 93. 87. 93.]",118.36126091859296,None,l,1,0.6105016553374298,118.36126091859296,None,None,None,13_NF,24,F,13,2021_Nov_02_1555,Partial repeat,2021.2.3,120.10199561463384,
2,1,0,1,1,3,3,3,2,1,1,1,0,1,0,0,0,4,4,4,1,0,1,0,,,,,,,,,0.7968387697469679,119.04399155119972,None,"[93. 87. 93. 93. 87. 87. 87. 87. 87. 87. 93. 87. 93. 87. 93. 87. 87. 93.
 93. 87. 87. 87. 87. 93. 87. 93. 93. 93. 87. 87. 87. 93. 93. 93.]",119.92656561289732,None,l,1,0.6440601702688582,119.92656561289732,None,None,None,13_NF,24,F,13,2021_Nov_02_1555,Partial repeat,2021.2.3,120.10199561463384,
2,1,0,1,1,3,3,3,2,1,1,1,0,1,0,0,0,4,4,4,,,,,,,,,,,,,,,,,,,,,,,,,,13_NF,24,F,13,2021_Nov_02_1555,Partial repeat,2021.2.3,120.10199561463384,
4,2,0,1,1,3,2,2,2,1,0,0,1,0,0,0,0,5,5,5,0,0,0,0,,,,,,,120.59264751725095,None,0.8772450366871841,121.24209672887991,None,"[87. 87. 87. 87. 87. 87. 93. 87. 93. 87. 87. 93. 93. 93. 93. 87. 93. 93.
 87. 87. 87. 87. 87. 87. 87. 87. 87. 87. 87. 93. 93. 87. 87. 93.]",122.1996073860937,None,l,1,0.6590052838582778,122.1996073860937,None,None,None,13_NF,24,F,13,2021_Nov_02_1555,Partial repeat,2021.2.3,120.10199561463384,
4,2,0,1,1,3,2,2,2,1,0,0,1,0,0,0,0,5,5,5,1,0,1,0,,,,,,,,,0.8136909735844743,122.93229029696522,None,"[87. 87. 87. 93. 87. 87. 87. 87. 93. 87. 87. 87. 87. 93. 87. 93. 93. 93.
 93. 87. 93. 93. 87. 93. 93. 93. 87. 87. 87. 93. 93. 93. 93. 93.]",123.82319257131712,None,s,1,0.7001081947546481,123.82319257131712,None,None,None,13_NF,24,F,13,2021_Nov_02_1555,Partial repeat,2021.2.3,120.10199561463384,
4,2,0,1,1,3,2,2,2,1,0,0,1,0,0,0,0,5,5,5,,,,,,,,,,,,,,,,,,,,,,,,,,13_NF,24,F,13,2021_Nov_02_1555,Partial repeat,2021.2.3,120.10199561463384,
4,6,0,1,1,3,2,2,3,1,1,0,0,1,0,0,0,6,6,6,0,0,0,0,,,,,,,124.54756683287997,None,0.7480752582431278,125.77152096356804,None,"[93. 93. 87. 93. 87. 93. 93. 93. 93. 93. 87. 87. 87. 93. 87. 93. 93. 93.
 93. 93. 93. 93. 87. 93. 87. 87. 87. 93. 93. 93. 87. 87. 93. 93.]",126.60411837299762,None,l,1,0.7516553667937842,126.60411837299762,None,None,None,13_NF,24,F,13,2021_Nov_02_1555,Partial repeat,2021.2.3,120.10199561463384,
4,6,0,1,1,3,2,2,3,1,1,0,0,1,0,0,0,6,6,6,1,0,1,0,,,,,,,,,0.8955337342061949,127.4200737890933,None,"[87. 87. 87. 93. 87. 87. 93. 93. 93. 93. 87. 87. 87. 87. 87. 87. 93. 93.
 93. 87. 87. 93. 93. 93. 87. 87. 87. 87. 87. 93. 93. 87. 87. 93.]",128.39423894735046,None,l,1,0.640407597336889,128.39423894735046,None,None,None,13_NF,24,F,13,2021_Nov_02_1555,Partial repeat,2021.2.3,120.10199561463384,
4,6,0,1,1,3,2,2,3,1,1,0,0,1,0,0,0,6,6,6,,,,,,,,,,,,,,,,,,,,,,,,,,13_NF,24,F,13,2021_Nov_02_1555,Partial repeat,2021.2.3,120.10199561463384,
6,1,0,1,1,3,3,2,2,0,0,1,1,1,0,0,0,7,7,7,0,0,0,0,,,,,,,129.05199969468413,None,0.7573565219656496,132.5822757367041,None,"[93. 87. 87. 87. 93. 87. 93. 93. 87. 93. 93. 93. 93. 87. 87. 87. 93. 87.
 93. 93. 87. 93. 93. 93. 93. 87. 87. 93. 87. 87. 93. 87. 87. 87.]",133.42322380852784,None,s,1,0.8114624401296169,133.42322380852784,None,None,None,13_NF,24,F,13,2021_Nov_02_1555,Partial repeat,2021.2.3,120.10199561463384,
6,1,0,1,1,3,3,2,2,0,0,1,1,1,0,0,0,7,7,7,1,0,1,0,,,,,,,,,0.7380563022270281,134.30578568322198,None,"[93. 93. 93. 93. 87. 87. 87. 87. 93. 93. 93. 93. 87. 87. 87. 87. 93. 87.
 87. 87. 93. 87. 87. 87. 87. 93. 87. 93. 87. 93. 87. 93. 93. 87.]",135.13007732973892,None,s,1,0.6716823321385164,135.13007732973892,None,None,None,13_NF,24,F,13,2021_Nov_02_1555,Partial repeat,2021.2.3,120.10199561463384,
6,1,0,1,1,3,3,2,2,0,0,1,1,1,0,0,0,7,7,7,,,,,,,,,,,,,,,,,,,,,,,,,,13_NF,24,F,13,2021_Nov_02_1555,Partial repeat,2021.2.3,120.10199561463384,
2,3,0,1,1,2,3,2,3,0,0,0,0,1,0,0,0,8,8,8,0,0,0,0,,,,,,,135.821143551344,None,0.7079655098571508,136.8202814812721,None,"[93. 93. 93. 93. 87. 87. 93. 87. 87. 93. 87. 87. 87. 93. 87. 87. 87. 87.
 87. 87. 93. 87. 93. 87. 93. 93. 87. 87. 87. 87. 87. 93. 87. 93.]",137.61127887838484,None,l,0,0.3984003467103321,137.61127887838484,None,138.0275705274671,None,13_NF,24,F,13,2021_Nov_02_1555,Partial repeat,2021.2.3,120.10199561463384,
2,3,0,1,1,2,3,2,3,0,0,0,0,1,0,0,0,8,8,8,1,0,1,0,,,,,,,,,0.9861611304680558,138.5604404767564,None,"[87. 93. 87. 93. 87. 87. 93. 87. 93. 87. 87. 87. 87. 87. 87. 87. 93. 93.
 87. 87. 87. 87. 87. 93. 93. 93. 93. 93. 93. 93. 93. 93. 93. 93.]",139.6345130779373,None,s,1,1.4482560910855682,139.6345130779373,None,None,None,13_NF,24,F,13,2021_Nov_02_1555,Partial repeat,2021.2.3,120.10199561463384,
2,3,0,1,1,2,3,2,3,0,0,0,0,1,0,0,0,8,8,8,,,,,,,,,,,,,,,,,,,,,,,,,,13_NF,24,F,13,2021_Nov_02_1555,Partial repeat,2021.2.3,120.10199561463384,
7,7,0,1,1,3,2,2,3,0,0,0,0,1,0,0,0,9,9,9,0,0,0,0,,,,,,,141.09991032931794,None,0.9552498194733818,143.53113650853993,None,"[87. 93. 87. 87. 93. 87. 87. 87. 87. 93. 87. 93. 87. 93. 93. 87. 93. 87.
 87. 93. 93. 87. 93. 87. 93. 87. 93. 87. 87. 87. 87. 93. 93. 87.]",144.57191037037046,None,s,1,0.6058308262763603,144.57191037037046,None,None,None,13_NF,24,F,13,2021_Nov_02_1555,Partial repeat,2021.2.3,120.10199561463384,
7,7,0,1,1,3,2,2,3,0,0,0,0,1,0,0,0,9,9,9,1,0,1,0,,,,,,,,,0.8247070499723435,145.24631792169203,None,"[93. 87. 93. 93. 87. 93. 93. 93. 93. 93. 87. 87. 87. 87. 87. 93. 87. 87.
 93. 93. 87. 93. 93. 93. 93. 93. 87. 87. 87. 87. 87. 87. 93. 87.]",146.1538737349565,None,s,1,0.5118571707262163,146.1538737349565,None,None,None,13_NF,24,F,13,2021_Nov_02_1555,Partial repeat,2021.2.3,120.10199561463384,
7,7,0,1,1,3,2,2,3,0,0,0,0,1,0,0,0,9,9,9,,,,,,,,,,,,,,,,,,,,,,,,,,13_NF,24,F,13,2021_Nov_02_1555,Partial repeat,2021.2.3,120.10199561463384,
1,6,0,1,1,3,3,3,3,1,0,1,1,0,0,0,0,10,10,10,0,0,0,0,,,,,,,146.68673887358818,None,0.7064494966019634,147.89403818251958,None,"[87. 87. 87. 93. 87. 93. 87. 87. 93. 93. 87. 93. 87. 87. 93. 93. 87. 93.
 93. 87. 87. 87. 87. 93. 93. 87. 87. 87. 93. 87. 93. 93. 87. 93.]",148.68501922339237,None,l,1,0.6367640042990388,148.68501922339237,None,None,None,13_NF,24,F,13,2021_Nov_02_1555,Partial repeat,2021.2.3,120.10199561463384,
1,6,0,1,1,3,3,3,3,1,0,1,1,0,0,0,0,10,10,10,1,0,1,0,,,,,,,,,0.8970663375349608,149.39273256970046,None,"[93. 87. 87. 93. 93. 93. 87. 93. 87. 93. 93. 87. 87. 93. 93. 87. 87. 87.
 93. 87. 87. 87. 93. 93. 93. 93. 93. 93. 87. 93. 93. 87. 87. 87.]",150.37522337492737,None,s,1,0.6255975029052934,150.37522337492737,None,None,None,13_NF,24,F,13,2021_Nov_02_1555,Partial repeat,2021.2.3,120.10199561463384,
1,6,0,1,1,3,3,3,3,1,0,1,1,0,0,0,0,10,10,10,,,,,,,,,,,,,,,,,,,,,,,,,,13_NF,24,F,13,2021_Nov_02_1555,Partial repeat,2021.2.3,120.10199561463384,
6,6,0,1,1,2,2,2,2,1,1,1,1,1,0,0,0,11,11,11,0,0,0,0,,,,,,,151.01633475258495,None,0.7240602851284618,151.86559339798077,None,"[93. 93. 87. 93. 93. 87. 87. 87. 87. 87. 87. 93. 87. 87. 87. 93. 93. 93.
 87. 93. 87. 93. 93. 93. 87. 87. 87. 87. 87. 93. 87. 93. 87. 93.]",152.67323631624095,None,l,1,0.7919010182795319,152.67323631624095,None,None,None,13_NF,24,F,13,2021_Nov_02_1555,Partial repeat,2021.2.3,120.10199561463384,
6,6,0,1,1,2,2,2,2,1,1,1,1,1,0,0,0,11,11,11,1,0,1,0,,,,,,,,,0.9244277242557226,153.53914721770707,None,"[93. 93. 87. 87. 93. 87. 93. 87. 87. 93. 87. 87. 87. 87. 93. 93. 93. 93.
 93. 87. 93. 93. 93. 93. 87. 87. 93. 93. 93. 93. 93. 87. 93. 93.]",154.53828867545235,None,l,1,0.6865103863638069,154.53828867545235,None,None,None,13_NF,24,F,13,2021_Nov_02_1555,Partial repeat,2021.2.3,120.10199561463384,
6,6,0,1,1,2,2,2,2,1,1,1,1,1,0,0,0,11,11,11,,,,,,,,,,,,,,,,,,,,,,,,,,13_NF,24,F,13,2021_Nov_02_1555,Partial repeat,2021.2.3,120.10199561463384,
8,4,0,1,1,2,2,2,3,1,1,1,0,1,0,0,0,12,12,12,0,0,0,0,,,,,,,155.24600202176043,None,0.7072613158177578,156.2285027690159,None,"[87. 87. 87. 93. 87. 93. 93. 93. 87. 87. 87. 93. 93. 87. 93. 87. 87. 93.
 87. 87. 93. 87. 93. 93. 87. 87. 87. 93. 87. 93. 93. 93. 93. 93.]",157.0194899033886,None,l,1,0.7653189208558615,157.0194899033886,None,None,None,13_NF,24,F,13,2021_Nov_02_1555,Partial repeat,2021.2.3,120.10199561463384,
8,4,0,1,1,2,2,2,3,1,1,1,0,1,0,0,0,12,12,12,1,0,1,0,,,,,,,,,0.9725274012809577,157.84376775934834,None,"[93. 93. 93. 93. 87. 93. 87. 87. 87. 87. 87. 87. 87. 87. 87. 93. 87. 87.
 93. 93. 93. 93. 93. 93. 87. 93. 87. 93. 87. 93. 87. 93. 87. 87.]",158.9011788038515,None,l,1,0.7556645699041837,158.9011788038515,None,None,None,13_NF,24,F,13,2021_Nov_02_1555,Partial repeat,2021.2.3,120.10199561463384,
8,4,0,1,1,2,2,2,3,1,1,1,0,1,0,0,0,12,12,12,,,,,,,,,,,,,,,,,,,,,,,,,,13_NF,24,F,13,2021_Nov_02_1555,Partial repeat,2021.2.3,120.10199561463384,
1,1,0,1,1,2,2,2,3,1,0,1,0,0,0,0,0,13,13,13,0,0,0,0,,,,,,,159.67553228337056,None,0.9624277182452351,160.30830775131835,None,"[87. 87. 93. 93. 87. 93. 93. 93. 93. 87. 93. 93. 93. 87. 87. 93. 87. 87.
 93. 87. 93. 93. 93. 93. 87. 93. 87. 93. 93. 93. 87. 93. 87. 93.]",161.35740373230146,None,l,1,1.0999140365620406,161.35740373230146,None,None,None,13_NF,24,F,13,2021_Nov_02_1555,Partial repeat,2021.2.3,120.10199561463384,
1,1,0,1,1,2,2,2,3,1,0,1,0,0,0,0,0,13,13,13,1,0,1,0,,,,,,,,,0.9631203232718879,162.53137223082376,None,"[87. 93. 87. 93. 87. 87. 87. 87. 87. 93. 87. 93. 87. 87. 93. 93. 87. 93.
 93. 87. 87. 87. 93. 93. 93. 93. 87. 93. 87. 93. 93. 87. 87. 87.]",163.58046404257038,None,s,1,0.748396626466274,163.58046404257038,None,None,None,13_NF,24,F,13,2021_Nov_02_1555,Partial repeat,2021.2.3,120.10199561463384,
1,1,0,1,1,2,2,2,3,1,0,1,0,0,0,0,0,13,13,13,,,,,,,,,,,,,,,,,,,,,,,,,,13_NF,24,F,13,2021_Nov_02_1555,Partial repeat,2021.2.3,120.10199561463384,
3,6,0,1,1,2,3,2,3,0,1,0,0,0,0,0,0,14,14,14,0,0,0,0,,,,,,,164.34646782182426,None,0.7512218625757053,165.062520284946,None,"[93. 87. 87. 87. 87. 93. 87. 87. 87. 87. 87. 93. 93. 87. 87. 87. 93. 93.
 93. 93. 93. 87. 87. 93. 93. 93. 87. 93. 93. 87. 87. 87. 93. 87.]",165.9034571318989,None,s,1,0.6006590472679818,165.9034571318989,None,None,None,13_NF,24,F,13,2021_Nov_02_1555,Partial repeat,2021.2.3,120.10199561463384,
3,6,0,1,1,2,3,2,3,0,1,0,0,0,0,0,0,14,14,14,1,0,1,0,,,,,,,,,0.8692011004159002,166.57786564535309,None,"[93. 93. 87. 87. 93. 87. 93. 93. 93. 87. 93. 93. 87. 93. 93. 93. 87. 93.
 87. 87. 93. 93. 93. 87. 93. 87. 87. 93. 93. 93. 87. 93. 93. 93.]",167.53538239606678,None,l,1,0.5204977554967627,167.53538239606678,None,None,None,13_NF,24,F,13,2021_Nov_02_1555,Partial repeat,2021.2.3,120.10199561463384,
3,6,0,1,1,2,3,2,3,0,1,0,0,0,0,0,0,14,14,14,,,,,,,,,,,,,,,,,,,,,,,,,,13_NF,24,F,13,2021_Nov_02_1555,Partial repeat,2021.2.3,120.10199561463384,
1,2,0,1,1,2,2,2,2,1,0,1,1,0,0,0,0,15,15,15,0,0,0,0,,,,,,,168.08489914934762,None,0.882385281203089,168.825927591246,None,"[93. 87. 93. 87. 93. 87. 93. 93. 87. 87. 93. 87. 87. 93. 93. 93. 87. 93.
 93. 93. 87. 93. 87. 93. 93. 93. 87. 93. 87. 87. 93. 87. 93. 87.]",169.78343183424658,None,l,1,0.7684792030322569,169.78343183424658,None,None,None,13_NF,24,F,13,2021_Nov_02_1555,Partial repeat,2021.2.3,120.10199561463384,
1,2,0,1,1,2,2,2,2,1,0,1,1,0,0,0,0,15,15,15,1,0,1,0,,,,,,,,,0.8440191988440039,170.62436451196118,None,"[93. 93. 87. 93. 87. 87. 87. 87. 87. 93. 87. 93. 87. 87. 93. 93. 87. 93.
 93. 93. 93. 93. 87. 87. 87. 93. 87. 93. 93. 93. 93. 93. 87. 93.]",171.55689373831774,None,s,1,0.5950097301902133,171.55689373831774,None,None,None,13_NF,24,F,13,2021_Nov_02_1555,Partial repeat,2021.2.3,120.10199561463384,
1,2,0,1,1,2,2,2,2,1,0,1,1,0,0,0,0,15,15,15,,,,,,,,,,,,,,,,,,,,,,,,,,13_NF,24,F,13,2021_Nov_02_1555,Partial repeat,2021.2.3,120.10199561463384,
7,5,0,1,1,2,3,2,2,0,1,0,1,0,0,0,0,16,16,16,0,0,0,0,,,,,,,172.17303490998893,None,0.7527318597015604,172.91405020275306,None,"[93. 93. 93. 93. 93. 87. 93. 87. 87. 87. 93. 87. 93. 93. 87. 87. 93. 87.
 93. 87. 87. 87. 87. 87. 87. 93. 93. 93. 93. 93. 93. 93. 93. 93.]",173.75499538818258,None,s,1,0.684963919888105,173.75499538818258,None,None,None,13_NF,24,F,13,2021_Nov_02_1555,Partial repeat,2021.2.3,120.10199561463384,
7,5,0,1,1,2,3,2,2,0,1,0,1,0,0,0,0,16,16,16,1,0,1,0,,,,,,,,,0.9838489314900296,174.51267095478215,None,"[93. 87. 87. 87. 93. 93. 93. 93. 87. 93. 93. 93. 93. 87. 87. 87. 93. 87.
 93. 93. 93. 93. 87. 87. 93. 93. 87. 87. 87. 87. 93. 93. 87. 87.]",175.57841726757215,None,l,1,1.1975158910408936,175.57841726757215,None,None,None,13_NF,24,F,13,2021_Nov_02_1555,Partial repeat,2021.2.3,120.10199561463384,
7,5,0,1,1,2,3,2,2,0,1,0,1,0,0,0,0,16,16,16,,,,,,,,,,,,,,,,,,,,,,,,,,13_NF,24,F,13,2021_Nov_02_1555,Partial repeat,2021.2.3,120.10199561463384,
5,8,0,1,1,3,2,2,2,1,1,0,1,1,0,0,0,17,17,17,0,0,0,0,,,,,,,176.79403099860247,None,0.7756434242499954,178.11788519587026,None,"[87. 87. 93. 87. 93. 93. 87. 87. 93. 93. 87. 87. 87. 87. 93. 87. 93. 93.
 87. 93. 87. 93. 93. 93. 93. 87. 87. 87. 93. 87. 93. 87. 87. 93.]",178.98380379439186,None,l,1,0.6081572609091381,178.98380379439186,None,None,None,13_NF,24,F,13,2021_Nov_02_1555,Partial repeat,2021.2.3,120.10199561463384,
5,8,0,1,1,3,2,2,2,1,1,0,1,1,0,0,0,17,17,17,1,0,1,0,,,,,,,,,0.8719556425028652,179.65822032561118,None,"[93. 87. 87. 93. 87. 87. 87. 87. 93. 93. 93. 93. 93. 87. 87. 93. 93. 87.
 87. 93. 93. 93. 93. 87. 93. 87. 93. 93. 87. 93. 93. 87. 93. 87.]",180.6157252100329,None,l,1,1.0232949932815245,180.6157252100329,None,None,None,13_NF,24,F,13,2021_Nov_02_1555,Partial repeat,2021.2.3,120.10199561463384,
5,8,0,1,1,3,2,2,2,1,1,0,1,1,0,0,0,17,17,17,,,,,,,,,,,,,,,,,,,,,,,,,,13_NF,24,F,13,2021_Nov_02_1555,Partial repeat,2021.2.3,120.10199561463384,
6,3,0,1,1,3,2,3,3,1,1,0,1,1,0,0,0,18,18,18,0,0,0,0,,,,,,,181.65649233694057,None,0.7104828781458529,193.845954043456,None,"[87. 87. 87. 87. 87. 87. 93. 93. 93. 93. 87. 93. 87. 87. 87. 87. 93. 87.
 87. 93. 87. 87. 93. 93. 87. 93. 87. 87. 93. 93. 87. 93. 93. 87.]",194.64527612540587,None,l,1,0.5937887849649996,194.64527612540587,None,None,None,13_NF,24,F,13,2021_Nov_02_1555,Partial repeat,2021.2.3,120.10199561463384,
6,3,0,1,1,3,2,3,3,1,1,0,1,1,0,0,0,18,18,18,1,0,1,0,,,,,,,,,0.9993466914436597,195.31134135280809,None,"[93. 93. 87. 93. 87. 87. 87. 87. 93. 93. 87. 93. 87. 93. 87. 93. 93. 93.
 87. 93. 87. 87. 93. 87. 93. 93. 93. 87. 93. 93. 93. 87. 87. 87.]",196.39375691933128,None,l,1,0.6523524633375928,196.39375691933128,None,None,None,13_NF,24,F,13,2021_Nov_02_1555,Partial repeat,2021.2.3,120.10199561463384,
6,3,0,1,1,3,2,3,3,1,1,0,1,1,0,0,0,18,18,18,,,,,,,,,,,,,,,,,,,,,,,,,,13_NF,24,F,13,2021_Nov_02_1555,Partial repeat,2021.2.3,120.10199561463384,
7,1,0,1,1,3,3,3,2,0,0,1,0,1,0,0,0,19,19,19,0,0,0,0,,,,,,,197.06815837715294,None,0.8146418138226924,198.50024758857762,None,"[93. 87. 87. 93. 93. 93. 93. 93. 93. 93. 93. 87. 87. 93. 93. 93. 93. 87.
 87. 87. 93. 93. 87. 87. 87. 87. 87. 87. 93. 87. 87. 87. 87. 93.]",199.39948384837408,None,s,1,0.5746170264828834,199.39948384837408,None,None,None,13_NF,24,F,13,2021_Nov_02_1555,Partial repeat,2021.2.3,120.10199561463384,
7,1,0,1,1,3,3,3,2,0,0,1,0,1,0,0,0,19,19,19,1,0,1,0,,,,,,,,,0.9815641384037558,200.0405894532396,None,"[93. 87. 93. 93. 87. 87. 87. 87. 93. 93. 93. 87. 87. 93. 93. 87. 87. 87.
 87. 93. 93. 87. 93. 87. 93. 87. 87. 93. 93. 87. 87. 87. 87. 93.]",201.10633512460845,None,s,1,0.723772146500778,201.10633512460845,None,None,None,13_NF,24,F,13,2021_Nov_02_1555,Partial repeat,2021.2.3,120.10199561463384,
7,1,0,1,1,3,3,3,2,0,0,1,0,1,0,0,0,19,19,19,,,,,,,,,,,,,,,,,,,,,,,,,,13_NF,24,F,13,2021_Nov_02_1555,Partial repeat,2021.2.3,120.10199561463384,
3,8,0,1,1,3,3,2,2,1,0,1,1,0,0,0,0,20,20,20,0,0,0,0,,,,,,,201.85568247855372,None,0.7578910807337691,204.71154615859268,None,"[93. 87. 87. 87. 87. 87. 87. 87. 93. 93. 93. 93. 87. 93. 87. 87. 93. 93.
 93. 87. 87. 87. 87. 93. 87. 93. 93. 93. 87. 87. 93. 87. 87. 87.]",205.55248781620503,None,l,1,0.581632891395202,205.55248781620503,None,None,None,13_NF,24,F,13,2021_Nov_02_1555,Partial repeat,2021.2.3,120.10199561463384,
3,8,0,1,1,3,3,2,2,1,0,1,1,0,0,0,0,20,20,20,1,0,1,0,,,,,,,,,0.835320223384366,206.20192195443633,None,"[87. 93. 87. 87. 87. 93. 87. 87. 93. 93. 93. 93. 87. 93. 93. 93. 87. 87.
 87. 87. 93. 93. 87. 87. 93. 93. 87. 93. 87. 87. 93. 93. 87. 93.]",207.1177976418785,None,s,1,0.5203460593875207,207.1177976418785,None,None,None,13_NF,24,F,13,2021_Nov_02_1555,Partial repeat,2021.2.3,120.10199561463384,
3,8,0,1,1,3,3,2,2,1,0,1,1,0,0,0,0,20,20,20,,,,,,,,,,,,,,,,,,,,,,,,,,13_NF,24,F,13,2021_Nov_02_1555,Partial repeat,2021.2.3,120.10199561463384,
1,7,0,1,1,3,2,3,3,0,0,0,1,1,0,0,0,21,21,21,0,0,0,0,,,,,,,207.65899708666439,None,0.8213027263545513,208.2751244677802,None,"[93. 93. 93. 93. 93. 93. 93. 93. 87. 87. 87. 87. 93. 87. 87. 87. 87. 87.
 87. 93. 87. 93. 87. 87. 93. 87. 87. 87. 93. 87. 87. 93. 93. 93.]",209.17435623762867,None,s,1,0.5277987321260298,209.17435623762867,None,None,None,13_NF,24,F,13,2021_Nov_02_1555,Partial repeat,2021.2.3,120.10199561463384,
1,7,0,1,1,3,2,3,3,0,0,0,1,1,0,0,0,21,21,21,1,0,1,0,,,,,,,,,0.7063207429350885,209.77383585262214,None,"[93. 87. 93. 93. 87. 93. 87. 87. 93. 87. 87. 93. 93. 93. 87. 87. 87. 93.
 87. 87. 93. 93. 93. 87. 87. 87. 87. 93. 93. 87. 93. 87. 93. 87.]",210.55649285007894,None,s,1,0.6008206854057789,210.55649285007894,None,None,None,13_NF,24,F,13,2021_Nov_02_1555,Partial repeat,2021.2.3,120.10199561463384,
1,7,0,1,1,3,2,3,3,0,0,0,1,1,0,0,0,21,21,21,,,,,,,,,,,,,,,,,,,,,,,,,,13_NF,24,F,13,2021_Nov_02_1555,Partial repeat,2021.2.3,120.10199561463384,
2,2,0,1,1,2,2,3,3,0,0,1,1,1,0,0,0,22,22,22,0,0,0,0,,,,,,,211.18094716100677,None,0.7826141658096544,212.18009695722685,None,"[93. 93. 87. 93. 93. 93. 87. 93. 93. 87. 93. 87. 87. 93. 87. 87. 93. 87.
 93. 87. 87. 93. 87. 87. 93. 93. 93. 87. 93. 87. 93. 93. 93. 93.]",213.04600689656036,None,s,1,0.8152301481659379,213.04600689656036,None,None,None,13_NF,24,F,13,2021_Nov_02_1555,Partial repeat,2021.2.3,120.10199561463384,
2,2,0,1,1,2,2,3,3,0,0,1,1,1,0,0,0,22,22,22,1,0,1,0,,,,,,,,,0.8992172995453286,213.92024536925965,None,"[87. 87. 87. 87. 93. 87. 93. 87. 87. 87. 93. 93. 93. 93. 87. 87. 87. 93.
 93. 93. 87. 93. 87. 93. 87. 87. 87. 93. 93. 93. 93. 87. 87. 93.]",214.90273136382893,None,s,1,0.5584602682774857,214.90273136382893,None,None,None,13_NF,24,F,13,2021_Nov_02_1555,Partial repeat,2021.2.3,120.10199561463384,
2,2,0,1,1,2,2,3,3,0,0,1,1,1,0,0,0,22,22,22,,,,,,,,,,,,,,,,,,,,,,,,,,13_NF,24,F,13,2021_Nov_02_1555,Partial repeat,2021.2.3,120.10199561463384,
1,4,0,1,1,3,3,2,3,1,0,1,0,0,0,0,0,23,23,23,0,0,0,0,,,,,,,215.48555872275028,None,0.8833999328423627,226.10137373174985,None,"[93. 87. 93. 93. 87. 93. 87. 87. 87. 87. 93. 87. 93. 93. 93. 93. 87. 93.
 93. 87. 93. 93. 93. 87. 87. 93. 87. 93. 93. 93. 87. 93. 87. 87.]",227.0672055459836,None,l,1,0.7140892523057119,227.0672055459836,None,None,None,13_NF,24,F,13,2021_Nov_02_1555,Partial repeat,2021.2.3,120.10199561463384,
1,4,0,1,1,3,3,2,3,1,0,1,0,0,0,0,0,23,23,23,1,0,1,0,,,,,,,,,0.7973682679506586,227.8415288787055,None,"[87. 93. 93. 93. 93. 87. 93. 87. 87. 87. 87. 87. 87. 93. 93. 93. 93. 93.
 93. 93. 93. 87. 93. 87. 93. 93. 93. 87. 87. 87. 93. 87. 93. 87.]",228.7240974883225,None,l,0,0.6083868896930653,228.7240974883225,None,229.35689059535434,None,13_NF,24,F,13,2021_Nov_02_1555,Partial repeat,2021.2.3,120.10199561463384,
1,4,0,1,1,3,3,2,3,1,0,1,0,0,0,0,0,23,23,23,,,,,,,,,,,,,,,,,,,,,,,,,,13_NF,24,F,13,2021_Nov_02_1555,Partial repeat,2021.2.3,120.10199561463384,
4,8,0,1,1,2,2,3,2,0,0,1,0,1,0,0,0,24,24,24,0,0,0,0,,,,,,,229.85645827747612,None,0.7891650110214372,230.01465487050336,None,"[93. 93. 87. 87. 93. 93. 93. 87. 93. 93. 93. 93. 93. 87. 93. 93. 93. 93.
 93. 93. 87. 93. 93. 93. 93. 93. 87. 87. 87. 87. 87. 87. 87. 87.]",230.88891579294432,None,s,1,0.8753637048830569,230.88891579294432,None,None,None,13_NF,24,F,13,2021_Nov_02_1555,Partial repeat,2021.2.3,120.10199561463384,
4,8,0,1,1,2,2,3,2,0,0,1,0,1,0,0,0,24,24,24,1,0,1,0,,,,,,,,,0.810104548931786,231.82974500942328,None,"[87. 93. 93. 87. 87. 93. 93. 87. 87. 87. 93. 87. 87. 87. 93. 87. 93. 87.
 87. 87. 93. 93. 87. 93. 87. 87. 93. 93. 87. 93. 93. 93. 87. 93.]",232.7289982668808,None,s,1,0.57131499022762,232.7289982668808,None,None,None,13_NF,24,F,13,2021_Nov_02_1555,Partial repeat,2021.2.3,120.10199561463384,
4,8,0,1,1,2,2,3,2,0,0,1,0,1,0,0,0,24,24,24,,,,,,,,,,,,,,,,,,,,,,,,,,13_NF,24,F,13,2021_Nov_02_1555,Partial repeat,2021.2.3,120.10199561463384,
2,4,0,1,1,3,2,3,2,0,0,0,0,1,0,0,0,25,25,25,0,0,0,0,,,,,,,233.32845222502692,None,0.9756349843159785,233.9529100637701,None,"[87. 87. 87. 87. 93. 87. 93. 87. 93. 93. 93. 93. 87. 93. 87. 87. 87. 93.
 93. 93. 93. 87. 93. 93. 87. 93. 93. 87. 93. 87. 87. 87. 87. 93.]",235.01866311148297,None,s,1,0.48967490191716934,235.01866311148297,None,None,None,13_NF,24,F,13,2021_Nov_02_1555,Partial repeat,2021.2.3,120.10199561463384,
2,4,0,1,1,3,2,3,2,0,0,0,0,1,0,0,0,25,25,25,1,0,1,0,,,,,,,,,0.844554417970102,235.5681785819197,None,"[93. 93. 87. 87. 87. 87. 93. 87. 93. 87. 93. 87. 87. 87. 87. 93. 87. 87.
 93. 87. 87. 93. 93. 87. 93. 93. 93. 93. 93. 93. 93. 93. 87. 87.]",236.5007106946723,None,l,0,0.6396375712047302,236.5007106946723,None,237.15847336626757,None,13_NF,24,F,13,2021_Nov_02_1555,Partial repeat,2021.2.3,120.10199561463384,
2,4,0,1,1,3,2,3,2,0,0,0,0,1,0,0,0,25,25,25,,,,,,,,,,,,,,,,,,,,,,,,,,13_NF,24,F,13,2021_Nov_02_1555,Partial repeat,2021.2.3,120.10199561463384,
8,8,0,1,1,3,3,2,2,1,1,1,1,1,0,0,0,26,26,26,0,0,0,0,,,,,,,237.6580404069682,None,0.9068069672691119,237.73298373740727,None,"[93. 93. 87. 93. 87. 93. 93. 93. 93. 87. 87. 87. 87. 93. 93. 87. 93. 93.
 87. 93. 93. 93. 93. 93. 87. 93. 87. 93. 93. 87. 87. 93. 93. 93.]",238.71546043136914,None,l,1,0.72889100825887,238.71546043136914,None,None,None,13_NF,24,F,13,2021_Nov_02_1555,Partial repeat,2021.2.3,120.10199561463384,
8,8,0,1,1,3,3,2,2,1,1,1,1,1,0,0,0,26,26,26,1,0,1,0,,,,,,,,,0.8511867671616271,239.51477481626534,None,"[93. 87. 87. 87. 93. 93. 93. 87. 93. 93. 93. 93. 93. 87. 93. 87. 93. 93.
 87. 87. 93. 87. 93. 93. 87. 87. 87. 87. 93. 93. 93. 87. 87. 87.]",240.44729602485677,None,l,1,0.6770673836908827,240.44729602485677,None,None,None,13_NF,24,F,13,2021_Nov_02_1555,Partial repeat,2021.2.3,120.10199561463384,
8,8,0,1,1,3,3,2,2,1,1,1,1,1,0,0,0,26,26,26,,,,,,,,,,,,,,,,,,,,,,,,,,13_NF,24,F,13,2021_Nov_02_1555,Partial repeat,2021.2.3,120.10199561463384,
7,8,0,1,1,3,2,2,3,0,1,0,0,0,0,0,0,27,27,27,0,0,0,0,,,,,,,241.14668917627387,None,0.97197083190713,241.93766733075245,None,"[93. 87. 87. 87. 93. 87. 87. 93. 93. 87. 87. 87. 93. 87. 87. 93. 87. 93.
 93. 93. 87. 87. 87. 87. 87. 93. 87. 93. 93. 93. 87. 93. 93. 93.]",242.99509056225725,None,s,1,0.5603418773225712,242.99509056225725,None,None,None,13_NF,24,F,13,2021_Nov_02_1555,Partial repeat,2021.2.3,120.10199561463384,
7,8,0,1,1,3,2,2,3,0,1,0,0,0,0,0,0,27,27,27,1,0,1,0,,,,,,,,,0.8450400752665056,243.6278782172085,None,"[87. 93. 93. 93. 87. 93. 93. 87. 87. 87. 87. 87. 93. 93. 93. 93. 93. 87.
 87. 87. 93. 87. 87. 93. 87. 87. 87. 87. 93. 93. 87. 87. 93. 93.]",244.55208436227986,None,l,1,0.6033215866027604,244.55208436227986,None,None,None,13_NF,24,F,13,2021_Nov_02_1555,Partial repeat,2021.2.3,120.10199561463384,
7,8,0,1,1,3,2,2,3,0,1,0,0,0,0,0,0,27,27,27,,,,,,,,,,,,,,,,,,,,,,,,,,13_NF,24,F,13,2021_Nov_02_1555,Partial repeat,2021.2.3,120.10199561463384,
7,2,0,1,1,2,3,3,3,0,0,0,1,1,0,0,0,28,28,28,0,0,0,0,,,,,,,245.1765290518906,None,0.9001792012477754,246.72519624281085,None,"[87. 93. 93. 93. 87. 93. 93. 87. 87. 93. 87. 87. 93. 93. 93. 93. 87. 87.
 87. 87. 87. 87. 93. 93. 87. 93. 93. 87. 93. 87. 93. 87. 93. 93.]",247.70768287880128,None,s,1,0.5197184287590062,247.70768287880128,None,None,None,13_NF,24,F,13,2021_Nov_02_1555,Partial repeat,2021.2.3,120.10199561463384,
7,2,0,1,1,2,3,3,3,0,0,0,1,1,0,0,0,28,28,28,1,0,1,0,,,,,,,,,0.8160319946627145,248.29050767203807,None,"[87. 93. 93. 93. 93. 93. 93. 93. 93. 93. 93. 93. 87. 93. 93. 93. 93. 87.
 93. 87. 93. 87. 93. 93. 87. 93. 87. 93. 93. 93. 87. 87. 87. 93.]",249.18972725488493,None,s,1,0.5896862550725928,249.18972725488493,None,None,None,13_NF,24,F,13,2021_Nov_02_1555,Partial repeat,2021.2.3,120.10199561463384,
7,2,0,1,1,2,3,3,3,0,0,0,1,1,0,0,0,28,28,28,,,,,,,,,,,,,,,,,,,,,,,,,,13_NF,24,F,13,2021_Nov_02_1555,Partial repeat,2021.2.3,120.10199561463384,
7,6,0,1,1,2,2,2,2,0,0,1,1,1,0,0,0,29,29,29,0,0,0,0,,,,,,,249.7975466281132,None,0.898149249052384,250.6218248047844,None,"[87. 93. 93. 87. 93. 87. 87. 87. 87. 93. 87. 93. 93. 93. 87. 87. 87. 87.
 93. 93. 87. 93. 87. 87. 93. 93. 93. 87. 87. 93. 93. 87. 87. 93.]",251.61266434814388,None,s,1,0.5993887126132904,251.61266434814388,None,None,None,13_NF,24,F,13,2021_Nov_02_1555,Partial repeat,2021.2.3,120.10199561463384,
7,6,0,1,1,2,2,2,2,0,0,1,1,1,0,0,0,29,29,29,1,0,1,0,,,,,,,,,0.9149031510439306,252.27044081029453,None,"[93. 87. 87. 87. 93. 87. 93. 93. 87. 93. 87. 87. 87. 93. 93. 87. 93. 87.
 87. 87. 93. 87. 93. 87. 93. 93. 93. 93. 87. 87. 93. 93. 87. 93.]",253.26953544429307,None,l,0,0.9898881744593382,253.26953544429307,None,254.26866856356355,None,13_NF,24,F,13,2021_Nov_02_1555,Partial repeat,2021.2.3,120.10199561463384,
7,6,0,1,1,2,2,2,2,0,0,1,1,1,0,0,0,29,29,29,,,,,,,,,,,,,,,,,,,,,,,,,,13_NF,24,F,13,2021_Nov_02_1555,Partial repeat,2021.2.3,120.10199561463384,
3,5,0,1,1,3,2,2,2,0,1,0,1,0,0,0,0,30,30,30,0,0,0,0,,,,,,,254.76824041492182,None,0.907753470320492,255.67578756900184,None,"[93. 93. 93. 93. 87. 87. 93. 93. 93. 87. 87. 87. 87. 87. 93. 93. 87. 87.
 87. 93. 87. 93. 93. 87. 93. 93. 93. 87. 93. 87. 93. 87. 93. 93.]",256.6665892685105,None,s,1,0.536873559038213,256.6665892685105,None,None,None,13_NF,24,F,13,2021_Nov_02_1555,Partial repeat,2021.2.3,120.10199561463384,
3,5,0,1,1,3,2,2,2,0,1,0,1,0,0,0,0,30,30,30,1,0,1,0,,,,,,,,,0.8971327554969479,257.2743999825543,None,"[93. 93. 87. 87. 87. 87. 93. 87. 93. 87. 93. 93. 93. 87. 93. 87. 93. 87.
 87. 93. 87. 93. 93. 87. 87. 93. 93. 93. 93. 87. 87. 93. 93. 93.]",258.2568888635178,None,l,1,0.8665778382146527,258.2568888635178,None,None,None,13_NF,24,F,13,2021_Nov_02_1555,Partial repeat,2021.2.3,120.10199561463384,
3,5,0,1,1,3,2,2,2,0,1,0,1,0,0,0,0,30,30,30,,,,,,,,,,,,,,,,,,,,,,,,,,13_NF,24,F,13,2021_Nov_02_1555,Partial repeat,2021.2.3,120.10199561463384,
2,8,0,1,1,3,3,3,3,0,0,1,1,1,0,0,0,31,31,31,0,0,0,0,,,,,,,259.13945586958107,None,0.8764256255613349,259.76391595329915,None,"[93. 87. 87. 93. 87. 87. 93. 87. 87. 93. 87. 87. 87. 93. 93. 93. 87. 87.
 93. 87. 93. 93. 87. 87. 93. 93. 87. 87. 87. 93. 93. 93. 87. 93.]",260.729749050377,None,s,1,0.5687448155422317,260.729749050377,None,None,None,13_NF,24,F,13,2021_Nov_02_1555,Partial repeat,2021.2.3,120.10199561463384,
2,8,0,1,1,3,3,3,3,0,0,1,1,1,0,0,0,31,31,31,1,0,1,0,,,,,,,,,0.7099259232847399,261.36252900827276,None,"[93. 87. 87. 93. 87. 93. 93. 93. 87. 93. 93. 93. 87. 93. 87. 87. 87. 93.
 87. 87. 87. 87. 87. 93. 93. 87. 93. 87. 87. 87. 93. 87. 93. 93.]",262.16184660027466,None,l,0,0.7046565123728215,262.16184660027466,None,262.88618814935944,None,13_NF,24,F,13,2021_Nov_02_1555,Partial repeat,2021.2.3,120.10199561463384,
2,8,0,1,1,3,3,3,3,0,0,1,1,1,0,0,0,31,31,31,,,,,,,,,,,,,,,,,,,,,,,,,,13_NF,24,F,13,2021_Nov_02_1555,Partial repeat,2021.2.3,120.10199561463384,
3,3,0,1,1,2,3,2,3,1,1,0,0,1,0,0,0,32,32,32,0,0,0,0,,,,,,,263.3857824504594,None,0.9597069524704505,264.5764259755051,None,"[93. 93. 87. 93. 93. 87. 93. 93. 93. 87. 87. 87. 87. 87. 87. 93. 93. 93.
 93. 93. 87. 93. 87. 93. 87. 93. 87. 87. 87. 87. 93. 93. 93. 93.]",265.6255120144597,None,l,1,0.6650192488796165,265.6255120144597,None,None,None,13_NF,24,F,13,2021_Nov_02_1555,Partial repeat,2021.2.3,120.10199561463384,
3,3,0,1,1,2,3,2,3,1,1,0,0,1,0,0,0,32,32,32,1,0,1,0,,,,,,,,,0.7268716389550901,266.3498856346032,None,"[87. 87. 93. 93. 93. 93. 87. 87. 87. 87. 93. 93. 87. 93. 87. 93. 87. 87.
 87. 87. 87. 93. 87. 87. 87. 87. 87. 87. 87. 93. 87. 87. 87. 93.]",267.1575198936789,None,l,1,0.6529900359928433,267.1575198936789,None,None,None,13_NF,24,F,13,2021_Nov_02_1555,Partial repeat,2021.2.3,120.10199561463384,
3,3,0,1,1,2,3,2,3,1,1,0,0,1,0,0,0,32,32,32,,,,,,,,,,,,,,,,,,,,,,,,,,13_NF,24,F,13,2021_Nov_02_1555,Partial repeat,2021.2.3,120.10199561463384,
4,3,0,1,1,2,2,3,3,1,1,1,1,1,0,0,0,33,33,33,0,0,0,0,,,,,,,267.8402588647623,None,0.7478946236877413,268.731157611297,None,"[87. 87. 87. 93. 93. 87. 87. 93. 87. 93. 93. 87. 87. 87. 87. 93. 93. 87.
 87. 87. 93. 93. 93. 93. 87. 87. 93. 87. 93. 87. 87. 87. 87. 93.]",269.55544605070645,None,l,1,0.6710797169380385,269.55544605070645,None,None,None,13_NF,24,F,13,2021_Nov_02_1555,Partial repeat,2021.2.3,120.10199561463384,
4,3,0,1,1,2,2,3,3,1,1,1,1,1,0,0,0,33,33,33,1,0,1,0,,,,,,,,,0.7872258209989268,270.29647000265504,None,"[93. 87. 93. 87. 87. 93. 87. 93. 87. 93. 87. 87. 87. 93. 93. 87. 87. 93.
 87. 93. 93. 87. 87. 87. 87. 93. 93. 93. 87. 93. 87. 93. 93. 93.]",271.1623902047286,None,l,1,0.6636655294714728,271.1623902047286,None,None,None,13_NF,24,F,13,2021_Nov_02_1555,Partial repeat,2021.2.3,120.10199561463384,
4,3,0,1,1,2,2,3,3,1,1,1,1,1,0,0,0,33,33,33,,,,,,,,,,,,,,,,,,,,,,,,,,13_NF,24,F,13,2021_Nov_02_1555,Partial repeat,2021.2.3,120.10199561463384,
6,2,0,1,1,2,3,2,3,1,0,0,0,0,0,0,0,34,34,34,0,0,0,0,,,,,,,271.8451285343908,None,0.9364495014779113,272.4612571983489,None,"[93. 93. 93. 87. 93. 87. 93. 87. 87. 87. 87. 87. 87. 87. 87. 93. 93. 93.
 87. 93. 93. 87. 93. 93. 93. 87. 87. 93. 87. 87. 87. 87. 93. 87.]",273.4770435358223,None,l,1,0.6855232391608297,273.4770435358223,None,None,None,13_NF,24,F,13,2021_Nov_02_1555,Partial repeat,2021.2.3,120.10199561463384,
6,2,0,1,1,2,3,2,3,1,0,0,0,0,0,0,0,34,34,34,1,0,1,0,,,,,,,,,0.9438051041082147,274.2264053217441,None,"[87. 87. 87. 87. 93. 87. 87. 87. 93. 93. 87. 93. 87. 93. 87. 93. 93. 87.
 87. 87. 87. 93. 87. 87. 93. 87. 93. 87. 87. 87. 93. 87. 93. 87.]",275.25052019257964,None,s,1,1.439064204807437,275.25052019257964,None,None,None,13_NF,24,F,13,2021_Nov_02_1555,Partial repeat,2021.2.3,120.10199561463384,
6,2,0,1,1,2,3,2,3,1,0,0,0,0,0,0,0,34,34,34,,,,,,,,,,,,,,,,,,,,,,,,,,13_NF,24,F,13,2021_Nov_02_1555,Partial repeat,2021.2.3,120.10199561463384,
6,8,0,1,1,2,3,3,2,0,0,0,0,1,0,0,0,35,35,35,0,0,0,0,,,,,,,276.707588269177,None,0.9868853837438003,277.7150502425211,None,"[87. 93. 87. 93. 87. 93. 93. 87. 93. 93. 93. 87. 93. 87. 87. 93. 87. 93.
 93. 87. 87. 87. 93. 93. 87. 93. 93. 87. 93. 93. 87. 93. 87. 87.]",278.7891215608597,None,s,1,0.5885801242402522,278.7891215608597,None,None,None,13_NF,24,F,13,2021_Nov_02_1555,Partial repeat,2021.2.3,120.10199561463384,
6,8,0,1,1,2,3,3,2,0,0,0,0,1,0,0,0,35,35,35,1,0,1,0,,,,,,,,,0.9385227894065704,279.4385608304601,None,"[87. 87. 93. 87. 87. 87. 93. 93. 87. 93. 87. 93. 93. 87. 87. 93. 93. 93.
 93. 87. 93. 93. 93. 93. 87. 93. 93. 87. 87. 87. 87. 93. 87. 87.]",280.46267313561293,None,s,1,0.9789227586097695,280.46267313561293,None,None,None,13_NF,24,F,13,2021_Nov_02_1555,Partial repeat,2021.2.3,120.10199561463384,
6,8,0,1,1,2,3,3,2,0,0,0,0,1,0,0,0,35,35,35,,,,,,,,,,,,,,,,,,,,,,,,,,13_NF,24,F,13,2021_Nov_02_1555,Partial repeat,2021.2.3,120.10199561463384,
2,5,0,1,1,2,3,3,2,0,1,0,0,0,0,0,0,36,36,36,0,0,0,0,,,,,,,281.47013510895886,None,0.8848328594673863,282.052959581486,None,"[93. 93. 93. 93. 93. 93. 93. 87. 87. 93. 93. 93. 93. 93. 87. 93. 93. 87.
 87. 93. 93. 87. 87. 93. 93. 87. 93. 93. 87. 87. 87. 93. 93. 87.]",283.02712281547974,None,s,1,0.5744909872191784,283.02712281547974,None,None,None,13_NF,24,F,13,2021_Nov_02_1555,Partial repeat,2021.2.3,120.10199561463384,
2,5,0,1,1,2,3,3,2,0,1,0,0,0,0,0,0,36,36,36,1,0,1,0,,,,,,,,,0.7931074084747093,283.65990662190416,None,"[93. 87. 93. 87. 87. 87. 87. 87. 87. 87. 93. 87. 93. 87. 87. 93. 87. 93.
 87. 87. 93. 87. 87. 93. 93. 93. 93. 87. 87. 93. 93. 93. 93. 93.]",284.5424919084726,None,l,1,1.2351381298813067,284.5424919084726,None,None,None,13_NF,24,F,13,2021_Nov_02_1555,Partial repeat,2021.2.3,120.10199561463384,
2,5,0,1,1,2,3,3,2,0,1,0,0,0,0,0,0,36,36,36,,,,,,,,,,,,,,,,,,,,,,,,,,13_NF,24,F,13,2021_Nov_02_1555,Partial repeat,2021.2.3,120.10199561463384,
6,7,0,1,1,2,3,2,2,0,0,0,1,1,0,0,0,37,37,37,0,0,0,0,,,,,,,285.8080566349254,None,0.8780425673129002,286.51577415046995,None,"[93. 93. 93. 87. 87. 93. 93. 87. 93. 87. 93. 87. 87. 93. 93. 87. 93. 87.
 93. 87. 87. 87. 87. 93. 87. 93. 87. 93. 87. 87. 87. 93. 93. 87.]",287.48160243688835,None,s,1,0.9680371996928443,287.48160243688835,None,None,None,13_NF,24,F,13,2021_Nov_02_1555,Partial repeat,2021.2.3,120.10199561463384,
6,7,0,1,1,2,3,2,2,0,0,0,1,1,0,0,0,37,37,37,1,0,1,0,,,,,,,,,0.7590291526647293,288.51404199256285,None,"[93. 93. 87. 93. 87. 93. 93. 87. 93. 93. 87. 93. 93. 93. 87. 93. 93. 93.
 87. 93. 87. 87. 87. 93. 93. 93. 93. 93. 87. 93. 87. 87. 87. 93.]",289.36332052201396,None,s,1,0.797373303110362,289.36332052201396,None,None,None,13_NF,24,F,13,2021_Nov_02_1555,Partial repeat,2021.2.3,120.10199561463384,
6,7,0,1,1,2,3,2,2,0,0,0,1,1,0,0,0,37,37,37,,,,,,,,,,,,,,,,,,,,,,,,,,13_NF,24,F,13,2021_Nov_02_1555,Partial repeat,2021.2.3,120.10199561463384,
5,3,0,1,1,3,2,2,2,0,0,0,1,1,0,0,0,38,38,38,0,0,0,0,,,,,,,290.1792672789252,None,0.9018857696186974,290.8287020585776,None,"[93. 87. 93. 87. 93. 93. 93. 87. 93. 93. 87. 87. 93. 87. 87. 93. 93. 87.
 93. 87. 93. 87. 93. 93. 87. 93. 87. 93. 93. 93. 87. 93. 93. 87.]",291.8111877324354,None,s,1,0.8294931103264389,291.8111877324354,None,None,None,13_NF,24,F,13,2021_Nov_02_1555,Partial repeat,2021.2.3,120.10199561463384,
5,3,0,1,1,3,2,2,2,0,0,0,1,1,0,0,0,38,38,38,1,0,1,0,,,,,,,,,0.7462671020528673,292.71041180522843,None,"[87. 87. 87. 93. 87. 93. 93. 93. 87. 87. 93. 87. 87. 93. 87. 93. 93. 93.
 87. 87. 93. 87. 93. 93. 93. 93. 93. 87. 93. 87. 87. 87. 93. 93.]",293.53469928250706,None,s,1,0.7539808392957639,293.53469928250706,None,None,None,13_NF,24,F,13,2021_Nov_02_1555,Partial repeat,2021.2.3,120.10199561463384,
5,3,0,1,1,3,2,2,2,0,0,0,1,1,0,0,0,38,38,38,,,,,,,,,,,,,,,,,,,,,,,,,,13_NF,24,F,13,2021_Nov_02_1555,Partial repeat,2021.2.3,120.10199561463384,
8,7,0,1,1,2,3,3,3,0,1,0,1,0,0,0,0,39,39,39,0,0,0,0,,,,,,,294.30904249928426,None,0.8295354261433951,295.68283807065745,None,"[93. 93. 93. 93. 87. 93. 87. 87. 93. 87. 87. 93. 93. 93. 87. 93. 87. 87.
 93. 87. 87. 93. 93. 87. 87. 87. 87. 93. 93. 87. 93. 93. 93. 93.]",296.59874165992187,None,s,1,0.6342002438268537,296.59874165992187,None,None,None,13_NF,24,F,13,2021_Nov_02_1555,Partial repeat,2021.2.3,120.10199561463384,
8,7,0,1,1,2,3,3,3,0,1,0,1,0,0,0,0,39,39,39,1,0,1,0,,,,,,,,,0.8433001422227028,297.3064524405436,None,"[87. 87. 87. 93. 87. 87. 93. 93. 93. 93. 93. 93. 93. 87. 93. 93. 87. 93.
 93. 93. 93. 93. 93. 93. 93. 87. 87. 87. 87. 93. 87. 93. 93. 87.]",298.23063421160987,None,l,1,0.7304830156390381,298.23063421160987,None,None,None,13_NF,24,F,13,2021_Nov_02_1555,Partial repeat,2021.2.3,120.10199561463384,
8,7,0,1,1,2,3,3,3,0,1,0,1,0,0,0,0,39,39,39,,,,,,,,,,,,,,,,,,,,,,,,,,13_NF,24,F,13,2021_Nov_02_1555,Partial repeat,2021.2.3,120.10199561463384,
2,6,0,1,1,3,3,2,3,1,1,1,0,1,0,0,0,40,40,40,0,0,0,0,,,,,,,298.9716665020351,None,0.7720587799226122,299.9541425545758,None,"[93. 87. 87. 93. 93. 93. 87. 93. 93. 93. 87. 87. 93. 87. 93. 87. 87. 93.
 93. 87. 93. 93. 93. 93. 87. 87. 87. 93. 93. 93. 87. 93. 87. 93.]",300.8117210741493,None,l,1,0.8210173707975628,300.8117210741493,None,None,None,13_NF,24,F,13,2021_Nov_02_1555,Partial repeat,2021.2.3,120.10199561463384,
2,6,0,1,1,3,3,2,3,1,1,1,0,1,0,0,0,40,40,40,1,0,1,0,,,,,,,,,0.999215936456797,301.6943028329006,None,"[93. 87. 93. 87. 87. 87. 93. 93. 87. 87. 87. 93. 93. 93. 93. 93. 87. 87.
 87. 87. 87. 93. 87. 87. 87. 87. 93. 93. 87. 93. 93. 93. 93. 87.]",302.76837575479294,None,l,1,1.1206739538974944,302.76837575479294,None,None,None,13_NF,24,F,13,2021_Nov_02_1555,Partial repeat,2021.2.3,120.10199561463384,
2,6,0,1,1,3,3,2,3,1,1,1,0,1,0,0,0,40,40,40,,,,,,,,,,,,,,,,,,,,,,,,,,13_NF,24,F,13,2021_Nov_02_1555,Partial repeat,2021.2.3,120.10199561463384,
7,3,0,1,1,2,3,3,3,1,0,0,1,0,0,0,0,41,41,41,0,0,0,0,,,,,,,303.9090544938608,None,0.8052198207415572,304.5751578858253,None,"[87. 87. 87. 87. 93. 87. 93. 93. 87. 93. 87. 87. 93. 87. 87. 87. 87. 93.
 93. 93. 87. 87. 93. 87. 93. 87. 93. 87. 93. 87. 93. 87. 87. 87.]",305.4660434832258,None,l,1,0.7737346875019284,305.4660434832258,None,None,None,13_NF,24,F,13,2021_Nov_02_1555,Partial repeat,2021.2.3,120.10199561463384,
7,3,0,1,1,2,3,3,3,1,0,0,1,0,0,0,0,41,41,41,1,0,1,0,,,,,,,,,0.7768013849291519,306.3069793680461,None,"[93. 87. 87. 87. 87. 93. 87. 87. 93. 93. 87. 93. 93. 93. 93. 93. 87. 87.
 87. 87. 87. 87. 93. 93. 93. 87. 93. 87. 93. 93. 93. 93. 87. 87.]",307.16456911249225,None,s,1,0.7875675767591019,307.16456911249225,None,None,None,13_NF,24,F,13,2021_Nov_02_1555,Partial repeat,2021.2.3,120.10199561463384,
7,3,0,1,1,2,3,3,3,1,0,0,1,0,0,0,0,41,41,41,,,,,,,,,,,,,,,,,,,,,,,,,,13_NF,24,F,13,2021_Nov_02_1555,Partial repeat,2021.2.3,120.10199561463384,
1,5,0,1,1,3,2,3,2,1,0,0,0,0,0,0,0,42,42,42,0,0,0,0,,,,,,,307.9722091443564,None,0.828372667730395,308.97133392515207,None,"[87. 87. 87. 87. 93. 93. 87. 93. 87. 93. 93. 87. 87. 87. 87. 93. 87. 93.
 87. 87. 87. 93. 93. 87. 87. 87. 93. 87. 93. 87. 93. 87. 87. 87.]",309.8788910212588,None,l,1,0.6969071823368722,309.8788910212588,None,None,None,13_NF,24,F,13,2021_Nov_02_1555,Partial repeat,2021.2.3,120.10199561463384,
1,5,0,1,1,3,2,3,2,1,0,0,0,0,0,0,0,42,42,42,1,0,1,0,,,,,,,,,0.7196890477192424,310.6365717192275,None,"[93. 87. 93. 87. 87. 87. 87. 93. 93. 87. 87. 93. 93. 87. 87. 87. 87. 93.
 93. 93. 93. 87. 93. 93. 93. 87. 93. 87. 87. 87. 93. 87. 87. 93.]",311.444204054038,None,s,1,0.9236049921400991,311.444204054038,None,None,None,13_NF,24,F,13,2021_Nov_02_1555,Partial repeat,2021.2.3,120.10199561463384,
1,5,0,1,1,3,2,3,2,1,0,0,0,0,0,0,0,42,42,42,,,,,,,,,,,,,,,,,,,,,,,,,,13_NF,24,F,13,2021_Nov_02_1555,Partial repeat,2021.2.3,120.10199561463384,
3,7,0,1,1,2,2,2,3,0,1,1,0,0,0,0,0,43,43,43,0,0,0,0,,,,,,,312.38505411670485,None,0.8649085459743762,313.50076040481326,None,"[93. 87. 93. 87. 93. 87. 87. 93. 93. 87. 93. 93. 87. 87. 93. 93. 93. 93.
 87. 87. 93. 87. 87. 87. 93. 87. 87. 87. 93. 93. 93. 87. 93. 87.]",314.4499316245019,None,s,1,0.6218955405420274,314.4499316245019,None,None,None,13_NF,24,F,13,2021_Nov_02_1555,Partial repeat,2021.2.3,120.10199561463384,
3,7,0,1,1,2,2,2,3,0,1,1,0,0,0,0,0,43,43,43,1,0,1,0,,,,,,,,,0.9111894563748669,315.14100169463563,None,"[93. 87. 93. 87. 93. 93. 87. 93. 87. 87. 93. 93. 93. 93. 87. 87. 93. 93.
 87. 87. 87. 87. 87. 87. 93. 93. 87. 93. 87. 87. 87. 93. 87. 93.]",316.13180628054033,None,l,1,0.636031822017685,316.13180628054033,None,None,None,13_NF,24,F,13,2021_Nov_02_1555,Partial repeat,2021.2.3,120.10199561463384,
3,7,0,1,1,2,2,2,3,0,1,1,0,0,0,0,0,43,43,43,,,,,,,,,,,,,,,,,,,,,,,,,,13_NF,24,F,13,2021_Nov_02_1555,Partial repeat,2021.2.3,120.10199561463384,
1,3,0,1,1,2,2,3,2,1,0,1,0,0,0,0,0,44,44,44,0,0,0,0,,,,,,,316.78956959355673,None,0.8560652465279971,317.68047379217205,None,"[93. 93. 87. 93. 87. 93. 87. 93. 93. 93. 87. 93. 87. 87. 93. 93. 87. 93.
 93. 87. 87. 93. 93. 87. 87. 93. 87. 93. 87. 87. 87. 93. 87. 93.]",318.6129988492903,None,l,1,1.1788312919488817,318.6129988492903,None,None,None,13_NF,24,F,13,2021_Nov_02_1555,Partial repeat,2021.2.3,120.10199561463384,
1,3,0,1,1,2,2,3,2,1,0,1,0,0,0,0,0,44,44,44,1,0,1,0,,,,,,,,,0.7211376397164541,319.85358471057225,None,"[93. 93. 93. 87. 93. 87. 87. 87. 87. 87. 87. 93. 93. 87. 93. 93. 93. 87.
 87. 87. 93. 87. 93. 87. 93. 87. 87. 87. 87. 93. 93. 93. 93. 87.]",320.66122730812276,None,s,1,0.9856730751489522,320.66122730812276,None,None,None,13_NF,24,F,13,2021_Nov_02_1555,Partial repeat,2021.2.3,120.10199561463384,
1,3,0,1,1,2,2,3,2,1,0,1,0,0,0,0,0,44,44,44,,,,,,,,,,,,,,,,,,,,,,,,,,13_NF,24,F,13,2021_Nov_02_1555,Partial repeat,2021.2.3,120.10199561463384,
2,7,0,1,1,3,2,3,3,0,1,0,1,0,0,0,0,45,45,45,0,0,0,0,,,,,,,321.66868864004573,None,0.732903271300818,324.6660960156205,None,"[93. 93. 93. 93. 93. 87. 93. 93. 87. 93. 93. 93. 93. 87. 93. 87. 87. 93.
 93. 93. 87. 93. 93. 87. 93. 87. 93. 93. 87. 93. 93. 87. 93. 87.]",325.482062656587,None,s,1,0.6128171858108544,325.482062656587,None,None,None,13_NF,24,F,13,2021_Nov_02_1555,Partial repeat,2021.2.3,120.10199561463384,
2,7,0,1,1,3,2,3,3,0,1,0,1,0,0,0,0,45,45,45,1,0,1,0,,,,,,,,,0.8209009387659096,326.1564647558298,None,"[93. 93. 87. 87. 93. 93. 87. 93. 87. 87. 93. 93. 93. 93. 87. 87. 87. 87.
 93. 93. 87. 93. 93. 93. 87. 87. 87. 87. 93. 93. 87. 93. 87. 87.]",327.0556962049668,None,l,1,1.1192031751215836,327.0556962049668,None,None,None,13_NF,24,F,13,2021_Nov_02_1555,Partial repeat,2021.2.3,120.10199561463384,
2,7,0,1,1,3,2,3,3,0,1,0,1,0,0,0,0,45,45,45,,,,,,,,,,,,,,,,,,,,,,,,,,13_NF,24,F,13,2021_Nov_02_1555,Partial repeat,2021.2.3,120.10199561463384,
8,3,0,1,1,3,2,2,3,1,0,0,0,0,0,0,0,46,46,46,0,0,0,0,,,,,,,328.20470925019254,None,0.8716758793712831,330.44442791003166,None,"[87. 93. 87. 87. 87. 87. 87. 87. 87. 93. 87. 93. 87. 93. 93. 87. 87. 93.
 87. 87. 87. 93. 93. 87. 93. 87. 87. 87. 93. 87. 87. 87. 87. 87.]",331.4019334358745,None,l,1,0.6289906209694891,331.4019334358745,None,None,None,13_NF,24,F,13,2021_Nov_02_1555,Partial repeat,2021.2.3,120.10199561463384,
8,3,0,1,1,3,2,2,3,1,0,0,0,0,0,0,0,46,46,46,1,0,1,0,,,,,,,,,0.7255262710620534,332.1013220973455,None,"[93. 93. 93. 93. 93. 87. 93. 87. 93. 93. 93. 93. 87. 87. 93. 93. 87. 93.
 93. 93. 93. 93. 93. 87. 87. 93. 87. 93. 87. 87. 93. 87. 87. 87.]",332.90896373276337,None,s,1,0.7539776321900717,332.90896373276337,None,None,None,13_NF,24,F,13,2021_Nov_02_1555,Partial repeat,2021.2.3,120.10199561463384,
8,3,0,1,1,3,2,2,3,1,0,0,0,0,0,0,0,46,46,46,,,,,,,,,,,,,,,,,,,,,,,,,,13_NF,24,F,13,2021_Nov_02_1555,Partial repeat,2021.2.3,120.10199561463384,
5,7,0,1,1,2,2,3,2,1,1,1,0,1,0,0,0,47,47,47,0,0,0,0,,,,,,,333.6832918761447,None,0.9777704634081603,334.48260273322376,None,"[87. 87. 87. 93. 93. 93. 87. 93. 87. 93. 93. 93. 87. 87. 93. 93. 87. 93.
 93. 93. 87. 87. 93. 87. 93. 87. 93. 87. 87. 87. 93. 93. 93. 93.]",335.54834936672523,None,l,1,0.577773780840289,335.54834936672523,None,None,None,13_NF,24,F,13,2021_Nov_02_1555,Partial repeat,2021.2.3,120.10199561463384,
5,7,0,1,1,2,2,3,2,1,1,1,0,1,0,0,0,47,47,47,1,0,1,0,,,,,,,,,0.8574199579632285,336.19777709074515,None,"[87. 93. 87. 87. 93. 87. 87. 93. 87. 87. 87. 87. 93. 93. 93. 93. 87. 93.
 93. 87. 93. 93. 93. 87. 87. 93. 87. 87. 93. 93. 87. 87. 93. 87.]",337.1303114484708,None,l,1,0.6436974465887033,337.1303114484708,None,None,None,13_NF,24,F,13,2021_Nov_02_1555,Partial repeat,2021.2.3,120.10199561463384,
5,7,0,1,1,2,2,3,2,1,1,1,0,1,0,0,0,47,47,47,,,,,,,,,,,,,,,,,,,,,,,,,,13_NF,24,F,13,2021_Nov_02_1555,Partial repeat,2021.2.3,120.10199561463384,
6,5,0,1,1,3,3,2,2,0,1,1,1,0,0,0,0,48,48,48,0,0,0,0,,,,,,,337.7963994463262,None,0.9477872616632173,338.8288373984469,None,"[93. 87. 87. 93. 93. 93. 93. 87. 87. 87. 87. 93. 87. 87. 87. 87. 87. 93.
 93. 87. 93. 87. 93. 87. 93. 87. 87. 87. 93. 87. 93. 93. 87. 87.]",339.86127791625404,None,s,1,0.7287098067754414,339.86127791625404,None,None,None,13_NF,24,F,13,2021_Nov_02_1555,Partial repeat,2021.2.3,120.10199561463384,
6,5,0,1,1,3,3,2,2,0,1,1,1,0,0,0,0,48,48,48,1,0,1,0,,,,,,,,,0.7774712140206941,340.65225542930966,None,"[93. 87. 87. 93. 87. 87. 93. 87. 93. 87. 87. 87. 87. 93. 87. 93. 87. 87.
 87. 93. 87. 87. 87. 93. 87. 87. 87. 87. 87. 93. 87. 87. 87. 93.]",341.50985543649404,None,l,1,0.6481254977334174,341.50985543649404,None,None,None,13_NF,24,F,13,2021_Nov_02_1555,Partial repeat,2021.2.3,120.10199561463384,
6,5,0,1,1,3,3,2,2,0,1,1,1,0,0,0,0,48,48,48,,,,,,,,,,,,,,,,,,,,,,,,,,13_NF,24,F,13,2021_Nov_02_1555,Partial repeat,2021.2.3,120.10199561463384,
5,1,0,1,1,2,2,2,2,0,1,1,1,0,0,0,0,49,49,49,0,0,0,0,,,,,,,342.1842681191865,None,0.9145107664526066,342.73378711744044,None,"[93. 93. 93. 87. 87. 87. 87. 93. 93. 93. 93. 93. 93. 87. 93. 87. 87. 87.
 87. 93. 87. 87. 93. 93. 87. 93. 93. 87. 87. 93. 87. 87. 93. 93.]",343.7329474971102,None,s,1,0.6657097387851536,343.7329474971102,None,None,None,13_NF,24,F,13,2021_Nov_02_1555,Partial repeat,2021.2.3,120.10199561463384,
5,1,0,1,1,2,2,2,2,0,1,1,1,0,0,0,0,49,49,49,1,0,1,0,,,,,,,,,0.9867531512321196,344.45729674324866,None,"[87. 87. 87. 87. 87. 93. 93. 87. 93. 87. 93. 93. 87. 93. 87. 87. 87. 87.
 93. 93. 93. 87. 87. 93. 93. 93. 93. 87. 87. 93. 93. 87. 93. 93.]",345.5313728722449,None,l,1,0.530633493048299,345.5313728722449,None,None,None,13_NF,24,F,13,2021_Nov_02_1555,Partial repeat,2021.2.3,120.10199561463384,
5,1,0,1,1,2,2,2,2,0,1,1,1,0,0,0,0,49,49,49,,,,,,,,,,,,,,,,,,,,,,,,,,13_NF,24,F,13,2021_Nov_02_1555,Partial repeat,2021.2.3,120.10199561463384,
6,4,0,1,1,2,3,2,2,1,0,0,1,0,0,0,0,50,50,50,0,0,0,0,,,,,,,346.0809066231868,None,0.8798018104296345,346.89685498365,None,"[93. 93. 87. 93. 87. 87. 93. 93. 87. 93. 87. 87. 87. 87. 93. 87. 87. 93.
 93. 93. 93. 87. 87. 93. 87. 93. 87. 87. 87. 93. 93. 87. 93. 93.]",347.85436467873114,None,l,1,0.6556577066967293,347.85436467873114,None,None,None,13_NF,24,F,13,2021_Nov_02_1555,Partial repeat,2021.2.3,120.10199561463384,
6,4,0,1,1,2,3,2,2,1,0,0,1,0,0,0,0,50,50,50,1,0,1,0,,,,,,,,,0.8333807544854671,348.5787504858763,None,"[87. 87. 93. 87. 87. 93. 93. 87. 93. 87. 93. 87. 87. 93. 87. 87. 87. 93.
 93. 87. 93. 87. 87. 93. 87. 93. 87. 93. 87. 87. 93. 93. 93. 87.]",349.49460949636887,None,s,1,0.8874246681189106,349.49460949636887,None,None,None,13_NF,24,F,13,2021_Nov_02_1555,Partial repeat,2021.2.3,120.10199561463384,
6,4,0,1,1,2,3,2,2,1,0,0,1,0,0,0,0,50,50,50,,,,,,,,,,,,,,,,,,,,,,,,,,13_NF,24,F,13,2021_Nov_02_1555,Partial repeat,2021.2.3,120.10199561463384,
7,4,0,1,1,3,2,3,2,1,1,0,0,1,0,0,0,51,51,51,0,0,0,0,,,,,,,350.41048325954944,None,0.8689443146315456,350.96833560182677,None,"[93. 93. 87. 93. 93. 93. 87. 93. 87. 93. 87. 87. 87. 87. 87. 87. 87. 93.
 93. 93. 87. 93. 87. 93. 87. 93. 87. 87. 93. 93. 93. 87. 87. 93.]",351.92583792056394,None,l,1,0.6792648926693801,351.92583792056394,None,None,None,13_NF,24,F,13,2021_Nov_02_1555,Partial repeat,2021.2.3,120.10199561463384,
7,4,0,1,1,3,2,3,2,1,1,0,0,1,0,0,0,51,51,51,1,0,1,0,,,,,,,,,0.9605375055571148,352.66685994825093,None,"[93. 93. 87. 93. 93. 93. 87. 87. 93. 93. 93. 93. 87. 87. 93. 93. 93. 93.
 87. 87. 87. 93. 93. 87. 87. 93. 87. 87. 93. 87. 87. 87. 87. 93.]",353.7076331686585,None,l,1,0.8174549175419088,353.7076331686585,None,None,None,13_NF,24,F,13,2021_Nov_02_1555,Partial repeat,2021.2.3,120.10199561463384,
7,4,0,1,1,3,2,3,2,1,1,0,0,1,0,0,0,51,51,51,,,,,,,,,,,,,,,,,,,,,,,,,,13_NF,24,F,13,2021_Nov_02_1555,Partial repeat,2021.2.3,120.10199561463384,
4,1,0,1,1,2,3,3,2,1,0,0,0,0,0,0,0,52,52,52,0,0,0,0,,,,,,,354.54856424282116,None,0.9259372706749167,355.1980035124234,None,"[87. 87. 93. 87. 87. 93. 93. 93. 93. 93. 87. 93. 93. 93. 87. 93. 93. 93.
 87. 93. 87. 87. 87. 87. 93. 87. 87. 93. 93. 93. 87. 87. 87. 93.]",356.2137895291835,None,l,1,0.5513238161838672,356.2137895291835,None,None,None,13_NF,24,F,13,2021_Nov_02_1555,Partial repeat,2021.2.3,120.10199561463384,
4,1,0,1,1,2,3,3,2,1,0,0,0,0,0,0,0,52,52,52,1,0,1,0,,,,,,,,,0.862170029543261,356.8299252487759,None,"[93. 93. 93. 87. 93. 93. 87. 87. 87. 93. 93. 87. 87. 93. 93. 87. 93. 93.
 93. 87. 93. 93. 93. 87. 93. 93. 93. 87. 87. 93. 87. 93. 87. 87.]",357.770785574181,None,s,1,0.674299009860988,357.770785574181,None,None,None,13_NF,24,F,13,2021_Nov_02_1555,Partial repeat,2021.2.3,120.10199561463384,
4,1,0,1,1,2,3,3,2,1,0,0,0,0,0,0,0,52,52,52,,,,,,,,,,,,,,,,,,,,,,,,,,13_NF,24,F,13,2021_Nov_02_1555,Partial repeat,2021.2.3,120.10199561463384,
1,8,0,1,1,3,3,3,2,0,1,1,0,0,0,0,0,53,53,53,0,0,0,0,,,,,,,358.46185211649754,None,0.7833503349867489,359.3111174968162,None,"[93. 87. 93. 93. 87. 93. 87. 93. 93. 93. 93. 87. 87. 93. 87. 87. 93. 87.
 87. 87. 93. 93. 93. 87. 87. 87. 87. 87. 93. 87. 87. 93. 93. 93.]",360.1770341710726,None,s,1,0.9240668153906881,360.1770341710726,None,None,None,13_NF,24,F,13,2021_Nov_02_1555,Partial repeat,2021.2.3,120.10199561463384,
1,8,0,1,1,3,3,3,2,0,1,1,0,0,0,0,0,53,53,53,1,0,1,0,,,,,,,,,0.8835057185319966,361.16784324692526,None,"[87. 87. 87. 93. 87. 93. 87. 93. 93. 93. 93. 87. 93. 87. 87. 93. 87. 93.
 93. 87. 87. 93. 87. 93. 87. 87. 87. 87. 87. 93. 93. 87. 87. 87.]",362.12535069703335,None,l,1,1.0397785555796872,362.12535069703335,None,None,None,13_NF,24,F,13,2021_Nov_02_1555,Partial repeat,2021.2.3,120.10199561463384,
1,8,0,1,1,3,3,3,2,0,1,1,0,0,0,0,0,53,53,53,,,,,,,,,,,,,,,,,,,,,,,,,,13_NF,24,F,13,2021_Nov_02_1555,Partial repeat,2021.2.3,120.10199561463384,
5,4,0,1,1,3,3,3,3,0,1,1,1,0,0,0,0,54,54,54,0,0,0,0,,,,,,,363.19109187845424,None,0.9312704461461363,364.0903088956147,None,"[87. 87. 93. 93. 87. 87. 87. 87. 93. 93. 87. 87. 87. 87. 87. 87. 87. 87.
 93. 93. 87. 87. 93. 93. 93. 87. 87. 87. 87. 87. 93. 93. 87. 87.]",365.1061109479051,None,s,1,1.5630461090331664,365.1061109479051,None,None,None,13_NF,24,F,13,2021_Nov_02_1555,Partial repeat,2021.2.3,120.10199561463384,
5,4,0,1,1,3,3,3,3,0,1,1,1,0,0,0,0,54,54,54,1,0,1,0,,,,,,,,,0.7113077686795066,366.7463458235143,None,"[87. 87. 93. 87. 93. 87. 93. 93. 87. 93. 87. 87. 87. 93. 93. 93. 87. 93.
 93. 93. 93. 93. 87. 87. 87. 87. 93. 93. 93. 93. 87. 93. 87. 87.]",367.54566373622765,None,l,1,0.5955029830802232,367.54566373622765,None,None,None,13_NF,24,F,13,2021_Nov_02_1555,Partial repeat,2021.2.3,120.10199561463384,
5,4,0,1,1,3,3,3,3,0,1,1,1,0,0,0,0,54,54,54,,,,,,,,,,,,,,,,,,,,,,,,,,13_NF,24,F,13,2021_Nov_02_1555,Partial repeat,2021.2.3,120.10199561463384,
4,5,0,1,1,2,2,2,3,0,0,1,0,1,0,0,0,55,55,55,0,0,0,0,,,,,,,368.16180073866053,None,0.9569688804115146,369.06100685166166,None,"[93. 93. 93. 87. 93. 93. 93. 93. 87. 87. 87. 93. 87. 93. 87. 93. 87. 93.
 93. 93. 87. 93. 93. 93. 93. 93. 87. 93. 93. 93. 87. 93. 93. 87.]",370.10177910993843,None,s,1,1.1904249798499222,370.10177910993843,None,None,None,13_NF,24,F,13,2021_Nov_02_1555,Partial repeat,2021.2.3,120.10199561463384,
4,5,0,1,1,2,2,2,3,0,0,1,0,1,0,0,0,55,55,55,1,0,1,0,,,,,,,,,0.7449092414733504,371.35069574955924,None,"[93. 93. 87. 93. 87. 87. 93. 87. 87. 87. 87. 87. 87. 87. 93. 93. 87. 87.
 93. 93. 93. 87. 93. 87. 93. 87. 87. 87. 93. 93. 93. 93. 87. 87.]",372.18331336375377,None,s,1,0.9968796653665777,372.18331336375377,None,None,None,13_NF,24,F,13,2021_Nov_02_1555,Partial repeat,2021.2.3,120.10199561463384,
4,5,0,1,1,2,2,2,3,0,0,1,0,1,0,0,0,55,55,55,,,,,,,,,,,,,,,,,,,,,,,,,,13_NF,24,F,13,2021_Nov_02_1555,Partial repeat,2021.2.3,120.10199561463384,
5,6,0,1,1,3,2,3,2,0,1,0,0,0,0,0,0,56,56,56,0,0,0,0,,,,,,,373.19911349178255,None,0.9790626308558894,373.99840703048903,None,"[93. 87. 93. 93. 87. 87. 87. 93. 93. 93. 93. 87. 93. 87. 87. 87. 93. 93.
 87. 87. 93. 87. 87. 87. 93. 87. 87. 87. 93. 93. 93. 87. 87. 93.]",375.06416360601906,None,s,1,0.6762864533993707,375.06416360601906,None,None,None,13_NF,24,F,13,2021_Nov_02_1555,Partial repeat,2021.2.3,120.10199561463384,
5,6,0,1,1,3,2,3,2,0,1,0,0,0,0,0,0,56,56,56,1,0,1,0,,,,,,,,,0.9052207508486797,375.81350550788375,None,"[93. 87. 87. 93. 87. 87. 93. 93. 87. 93. 93. 93. 93. 93. 93. 87. 93. 93.
 93. 87. 93. 87. 93. 93. 87. 93. 93. 87. 93. 93. 93. 87. 93. 93.]",376.8043129801845,None,l,1,0.6004287770629162,376.8043129801845,None,None,None,13_NF,24,F,13,2021_Nov_02_1555,Partial repeat,2021.2.3,120.10199561463384,
5,6,0,1,1,3,2,3,2,0,1,0,0,0,0,0,0,56,56,56,,,,,,,,,,,,,,,,,,,,,,,,,,13_NF,24,F,13,2021_Nov_02_1555,Partial repeat,2021.2.3,120.10199561463384,
3,2,0,1,1,2,2,3,3,0,1,1,1,0,0,0,0,57,57,57,0,0,0,0,,,,,,,377.4287797988254,None,0.9344240953017671,378.65271340403524,None,"[87. 93. 93. 93. 87. 93. 87. 87. 87. 93. 93. 87. 87. 87. 87. 87. 87. 93.
 87. 87. 93. 87. 87. 93. 93. 87. 93. 87. 87. 87. 87. 93. 93. 87.]",379.67682891629374,None,s,1,0.6553944033021253,379.67682891629374,None,None,None,13_NF,24,F,13,2021_Nov_02_1555,Partial repeat,2021.2.3,120.10199561463384,
3,2,0,1,1,2,2,3,3,0,1,1,1,0,0,0,0,57,57,57,1,0,1,0,,,,,,,,,0.8886941190961066,380.4011945186721,None,"[93. 93. 93. 93. 93. 93. 87. 87. 87. 93. 93. 87. 93. 93. 87. 87. 87. 93.
 87. 93. 93. 93. 93. 87. 93. 93. 93. 93. 87. 93. 87. 93. 93. 87.]",381.3753564698236,None,l,1,0.7005129315220984,381.3753564698236,None,None,None,13_NF,24,F,13,2021_Nov_02_1555,Partial repeat,2021.2.3,120.10199561463384,
3,2,0,1,1,2,2,3,3,0,1,1,1,0,0,0,0,57,57,57,,,,,,,,,,,,,,,,,,,,,,,,,,13_NF,24,F,13,2021_Nov_02_1555,Partial repeat,2021.2.3,120.10199561463384,
3,4,0,1,1,3,3,3,3,1,1,1,1,1,0,0,0,58,58,58,0,0,0,0,,,,,,,382.09973073138644,None,0.8009670222311964,383.11551995525406,None,"[87. 93. 87. 87. 93. 93. 87. 87. 87. 93. 93. 87. 93. 87. 93. 87. 93. 87.
 87. 93. 87. 87. 93. 93. 87. 93. 87. 93. 87. 87. 87. 87. 87. 87.]",384.0064158153946,None,l,1,0.6128989670141891,384.0064158153946,None,None,None,13_NF,24,F,13,2021_Nov_02_1555,Partial repeat,2021.2.3,120.10199561463384,
3,4,0,1,1,3,3,3,3,1,1,1,1,1,0,0,0,58,58,58,1,0,1,0,,,,,,,,,0.9015649561495963,384.68915799358365,None,"[93. 87. 93. 87. 87. 87. 93. 93. 87. 93. 87. 93. 87. 87. 87. 93. 87. 93.
 87. 93. 87. 87. 93. 87. 93. 93. 87. 93. 93. 87. 87. 87. 87. 87.]",385.67163949820315,None,l,1,0.643623041731189,385.67163949820315,None,None,None,13_NF,24,F,13,2021_Nov_02_1555,Partial repeat,2021.2.3,120.10199561463384,
3,4,0,1,1,3,3,3,3,1,1,1,1,1,0,0,0,58,58,58,,,,,,,,,,,,,,,,,,,,,,,,,,13_NF,24,F,13,2021_Nov_02_1555,Partial repeat,2021.2.3,120.10199561463384,
8,2,0,1,1,3,2,3,3,1,0,0,1,0,0,0,0,59,59,59,0,0,0,0,,,,,,,386.3377287789008,None,0.974430842827346,387.19531627837205,None,"[93. 93. 93. 87. 93. 93. 93. 93. 87. 87. 87. 87. 93. 93. 93. 93. 87. 87.
 93. 93. 87. 93. 87. 93. 93. 93. 87. 93. 93. 87. 87. 87. 87. 87.]",388.2527340577981,None,l,1,0.5905576257500798,388.2527340577981,None,None,None,13_NF,24,F,13,2021_Nov_02_1555,Partial repeat,2021.2.3,120.10199561463384,
8,2,0,1,1,3,2,3,3,1,0,0,1,0,0,0,0,59,59,59,1,0,1,0,,,,,,,,,0.8508655661446409,388.91049769152596,None,"[93. 93. 87. 87. 87. 93. 87. 87. 93. 87. 87. 87. 93. 93. 87. 87. 93. 87.
 93. 87. 87. 93. 87. 87. 93. 87. 87. 87. 87. 87. 87. 87. 87. 87.]",389.8430269178807,None,s,1,0.6002931164839538,389.8430269178807,None,None,None,13_NF,24,F,13,2021_Nov_02_1555,Partial repeat,2021.2.3,120.10199561463384,
8,2,0,1,1,3,2,3,3,1,0,0,1,0,0,0,0,59,59,59,,,,,,,,,,,,,,,,,,,,,,,,,,13_NF,24,F,13,2021_Nov_02_1555,Partial repeat,2021.2.3,120.10199561463384,
4,7,0,1,1,3,3,2,3,0,1,1,0,0,0,0,0,60,60,60,0,0,0,0,,,,,,,390.45916327889427,None,0.7612631879278365,391.3833591612274,None,"[87. 87. 93. 87. 87. 93. 87. 93. 87. 93. 87. 87. 93. 87. 93. 93. 93. 93.
 87. 87. 87. 87. 93. 87. 93. 87. 93. 87. 93. 93. 93. 93. 93. 87.]",392.2243043466551,None,l,0,0.5869967760481813,392.2243043466551,None,392.8237826788063,None,13_NF,24,F,13,2021_Nov_02_1555,Partial repeat,2021.2.3,120.10199561463384,
4,7,0,1,1,3,3,2,3,0,1,1,0,0,0,0,0,60,60,60,1,0,1,0,,,,,,,,,0.7850409021410449,393.35665519378017,None,"[93. 87. 93. 93. 93. 93. 87. 93. 93. 87. 87. 93. 93. 93. 93. 87. 87. 87.
 87. 93. 93. 87. 93. 93. 87. 93. 87. 93. 93. 93. 93. 93. 93. 93.]",394.22256866093085,None,l,1,1.116941203315946,394.22256866093085,None,None,None,13_NF,24,F,13,2021_Nov_02_1555,Partial repeat,2021.2.3,120.10199561463384,
4,7,0,1,1,3,3,2,3,0,1,1,0,0,0,0,0,60,60,60,,,,,,,,,,,,,,,,,,,,,,,,,,13_NF,24,F,13,2021_Nov_02_1555,Partial repeat,2021.2.3,120.10199561463384,
8,6,0,1,1,2,3,3,3,1,1,0,1,1,0,0,0,61,61,61,0,0,0,0,,,,,,,395.3632518899485,None,0.7837135234493185,396.42067351789956,None,"[87. 87. 93. 93. 93. 93. 87. 87. 93. 87. 93. 93. 87. 93. 87. 93. 93. 87.
 87. 93. 93. 93. 87. 93. 93. 87. 93. 87. 87. 87. 87. 93. 93. 87.]",397.294915518416,None,l,1,0.6364590085267992,397.294915518416,None,None,None,13_NF,24,F,13,2021_Nov_02_1555,Partial repeat,2021.2.3,120.10199561463384,
8,6,0,1,1,2,3,3,3,1,1,0,1,1,0,0,0,61,61,61,1,0,1,0,,,,,,,,,0.824043252736175,398.0026368824874,None,"[87. 87. 93. 93. 93. 93. 87. 93. 87. 93. 93. 87. 87. 87. 87. 87. 93. 87.
 93. 87. 93. 87. 87. 87. 93. 93. 93. 93. 87. 93. 93. 93. 87. 93.]",398.9018599931496,None,l,1,0.9485193944819912,398.9018599931496,None,None,None,13_NF,24,F,13,2021_Nov_02_1555,Partial repeat,2021.2.3,120.10199561463384,
8,6,0,1,1,2,3,3,3,1,1,0,1,1,0,0,0,61,61,61,,,,,,,,,,,,,,,,,,,,,,,,,,13_NF,24,F,13,2021_Nov_02_1555,Partial repeat,2021.2.3,120.10199561463384,
4,4,0,1,1,2,2,3,2,0,1,1,0,0,0,0,0,62,62,62,0,0,0,0,,,,,,,399.86768827956803,None,0.9790136573972934,400.6170526311744,None,"[87. 87. 93. 87. 87. 93. 87. 87. 93. 87. 93. 93. 93. 87. 87. 87. 87. 87.
 93. 93. 93. 87. 93. 87. 87. 87. 93. 93. 93. 87. 87. 87. 93. 87.]",401.6827857948301,None,s,1,0.7755662656945788,401.6827857948301,None,None,None,13_NF,24,F,13,2021_Nov_02_1555,Partial repeat,2021.2.3,120.10199561463384,
4,4,0,1,1,2,2,3,2,0,1,1,0,0,0,0,0,62,62,62,1,0,1,0,,,,,,,,,0.8944823671963995,402.5237187932562,None,"[93. 87. 93. 93. 87. 93. 87. 93. 87. 87. 87. 87. 87. 93. 87. 93. 87. 93.
 93. 87. 87. 87. 93. 87. 87. 93. 87. 93. 93. 87. 87. 93. 87. 93.]",403.4978823479614,None,l,1,0.76851031195838,403.4978823479614,None,None,None,13_NF,24,F,13,2021_Nov_02_1555,Partial repeat,2021.2.3,120.10199561463384,
4,4,0,1,1,2,2,3,2,0,1,1,0,0,0,0,0,62,62,62,,,,,,,,,,,,,,,,,,,,,,,,,,13_NF,24,F,13,2021_Nov_02_1555,Partial repeat,2021.2.3,120.10199561463384,
5,5,0,1,1,2,3,3,2,1,1,0,0,1,0,0,0,63,63,63,0,0,0,0,,,,,,,404.29718775295987,None,0.7949766666708871,405.09649828932925,None,"[87. 93. 93. 93. 93. 93. 87. 93. 87. 93. 93. 93. 87. 93. 87. 93. 93. 93.
 87. 87. 93. 87. 87. 87. 93. 87. 93. 93. 93. 93. 93. 93. 87. 93.]",405.97074285553026,None,l,1,0.8556720745327766,405.97074285553026,None,None,None,13_NF,24,F,13,2021_Nov_02_1555,Partial repeat,2021.2.3,120.10199561463384,
5,5,0,1,1,2,3,3,2,1,1,0,0,1,0,0,0,63,63,63,1,0,1,0,,,,,,,,,0.8715276207201197,406.89494964202277,None,"[87. 87. 93. 87. 87. 87. 93. 87. 87. 93. 87. 87. 87. 87. 87. 87. 87. 93.
 93. 87. 93. 93. 93. 87. 87. 93. 87. 93. 87. 93. 93. 93. 87. 87.]",407.84412278597483,None,l,1,0.902303073906296,407.84412278597483,None,None,None,13_NF,24,F,13,2021_Nov_02_1555,Partial repeat,2021.2.3,120.10199561463384,
5,5,0,1,1,2,3,3,2,1,1,0,0,1,0,0,0,63,63,63,,,,,,,,,,,,,,,,,,,,,,,,,,13_NF,24,F,13,2021_Nov_02_1555,Partial repeat,2021.2.3,120.10199561463384,
3,3,0,1,1,2,3,3,2,1,1,0,0,1,1,0,0,64,64,64,0,0,0,0,,,,,,,412.1570272822082,None,0.8810667926692031,417.7688613106293,None,"[93. 93. 87. 87. 87. 87. 87. 87. 93. 93. 93. 93. 93. 93. 87. 87. 87. 93.
 93. 93. 93. 87. 93. 93. 93. 93. 87. 93. 87. 87. 93. 93. 87. 93.]",418.72638575839665,None,l,1,2.8511712220843037,418.72638575839665,None,None,None,13_NF,24,F,13,2021_Nov_02_1555,Partial repeat,2021.2.3,120.10199561463384,
3,3,0,1,1,2,3,3,2,1,1,0,0,1,1,0,0,64,64,64,1,0,1,0,,,,,,,,,0.8830415497649767,421.64051357311473,None,"[93. 93. 93. 93. 93. 93. 93. 87. 93. 93. 93. 93. 87. 93. 93. 93. 93. 87.
 93. 93. 93. 93. 87. 93. 87. 93. 87. 87. 87. 93. 93. 93. 93. 93.]",422.5980274374324,None,l,1,0.6913604926467087,422.5980274374324,None,None,None,13_NF,24,F,13,2021_Nov_02_1555,Partial repeat,2021.2.3,120.10199561463384,
3,3,0,1,1,2,3,3,2,1,1,0,0,1,1,0,0,64,64,64,,,,,,,,,,,,,,,,,,,,,,,,,,13_NF,24,F,13,2021_Nov_02_1555,Partial repeat,2021.2.3,120.10199561463384,
3,3,0,1,1,3,3,3,3,0,0,1,1,1,1,0,0,65,65,65,0,0,0,0,,,,,,,423.2974382279335,None,0.7078435123682597,424.15499750487106,None,"[87. 93. 93. 93. 93. 87. 87. 87. 93. 93. 93. 93. 93. 93. 87. 87. 87. 87.
 93. 87. 93. 93. 93. 93. 87. 87. 87. 93. 93. 87. 93. 87. 93. 87.]",424.9459856013782,None,s,1,0.6475440494286886,424.9459856013782,None,None,None,13_NF,24,F,13,2021_Nov_02_1555,Partial repeat,2021.2.3,120.10199561463384,
3,3,0,1,1,3,3,3,3,0,0,1,1,1,1,0,0,65,65,65,1,0,1,0,,,,,,,,,0.7797333871611587,425.6620300467348,None,"[93. 87. 93. 93. 87. 93. 93. 93. 93. 93. 93. 93. 93. 87. 87. 93. 93. 87.
 93. 93. 93. 93. 93. 87. 87. 93. 87. 93. 87. 87. 87. 93. 87. 93.]",426.51963133675963,None,s,1,0.6428918215824524,426.51963133675963,None,None,None,13_NF,24,F,13,2021_Nov_02_1555,Partial repeat,2021.2.3,120.10199561463384,
3,3,0,1,1,3,3,3,3,0,0,1,1,1,1,0,0,65,65,65,,,,,,,,,,,,,,,,,,,,,,,,,,13_NF,24,F,13,2021_Nov_02_1555,Partial repeat,2021.2.3,120.10199561463384,
3,3,0,1,1,2,3,3,2,0,0,0,0,1,1,0,0,66,66,66,0,0,0,0,,,,,,,427.19404145376757,None,0.9443772607353476,427.635304270967,None,"[87. 87. 93. 87. 87. 93. 87. 93. 93. 87. 93. 87. 87. 87. 93. 87. 93. 93.
 93. 93. 87. 93. 87. 93. 87. 93. 93. 93. 93. 87. 93. 93. 93. 87.]",428.66776787993695,None,s,1,0.7817838819410099,428.66776787993695,None,None,None,13_NF,24,F,13,2021_Nov_02_1555,Partial repeat,2021.2.3,120.10199561463384,
3,3,0,1,1,2,3,3,2,0,0,0,0,1,1,0,0,66,66,66,1,0,1,0,,,,,,,,,0.854883309322924,429.5086999162304,None,"[87. 93. 87. 87. 93. 93. 87. 87. 93. 87. 87. 87. 93. 93. 93. 87. 93. 87.
 87. 87. 93. 87. 87. 93. 93. 87. 93. 93. 93. 93. 87. 93. 87. 93.]",430.4412422917212,None,s,1,0.6873362161386467,430.4412422917212,None,None,None,13_NF,24,F,13,2021_Nov_02_1555,Partial repeat,2021.2.3,120.10199561463384,
3,3,0,1,1,2,3,3,2,0,0,0,0,1,1,0,0,66,66,66,,,,,,,,,,,,,,,,,,,,,,,,,,13_NF,24,F,13,2021_Nov_02_1555,Partial repeat,2021.2.3,120.10199561463384,
3,3,0,1,1,3,3,3,3,1,1,1,1,1,1,0,0,67,67,67,0,0,0,0,,,,,,,431.148946978843,None,0.7469232855039551,431.7151288166169,None,"[93. 87. 93. 87. 93. 93. 93. 87. 93. 87. 93. 87. 87. 87. 87. 87. 87. 93.
 87. 87. 87. 93. 93. 87. 87. 87. 93. 93. 87. 87. 87. 87. 93. 93.]",432.53941725602635,None,l,1,0.6851634018767072,432.53941725602635,None,None,None,13_NF,24,F,13,2021_Nov_02_1555,Partial repeat,2021.2.3,120.10199561463384,
3,3,0,1,1,3,3,3,3,1,1,1,1,1,1,0,0,67,67,67,1,0,1,0,,,,,,,,,0.879377033124672,433.28877070347335,None,"[87. 87. 87. 87. 87. 87. 87. 93. 87. 93. 93. 87. 87. 87. 87. 87. 93. 93.
 93. 93. 93. 87. 87. 87. 93. 93. 87. 87. 93. 87. 87. 87. 93. 87.]",434.2462720600779,None,l,1,0.5463021297327941,434.2462720600779,None,None,None,13_NF,24,F,13,2021_Nov_02_1555,Partial repeat,2021.2.3,120.10199561463384,
3,3,0,1,1,3,3,3,3,1,1,1,1,1,1,0,0,67,67,67,,,,,,,,,,,,,,,,,,,,,,,,,,13_NF,24,F,13,2021_Nov_02_1555,Partial repeat,2021.2.3,120.10199561463384,
3,3,0,1,1,3,3,3,2,0,0,1,0,1,1,0,0,68,68,68,0,0,0,0,,,,,,,434.81244812506156,None,0.9919398044417904,435.53681693454564,None,"[93. 93. 93. 87. 93. 93. 87. 93. 87. 87. 87. 93. 87. 87. 93. 87. 87. 93.
 93. 93. 93. 93. 93. 87. 93. 87. 93. 87. 93. 93. 93. 87. 93. 93.]",436.6192193519346,None,s,1,0.5893649030585948,436.6192193519346,None,None,None,13_NF,24,F,13,2021_Nov_02_1555,Partial repeat,2021.2.3,120.10199561463384,
3,3,0,1,1,3,3,3,2,0,0,1,0,1,1,0,0,68,68,68,1,0,1,0,,,,,,,,,0.8885009337416463,437.27698330637213,None,"[87. 93. 93. 87. 87. 93. 93. 93. 93. 87. 93. 93. 93. 87. 87. 93. 93. 87.
 93. 93. 93. 87. 93. 87. 87. 93. 93. 87. 87. 93. 93. 87. 93. 87.]",438.242815762027,None,s,1,0.6137761104837409,438.242815762027,None,None,None,13_NF,24,F,13,2021_Nov_02_1555,Partial repeat,2021.2.3,120.10199561463384,
3,3,0,1,1,3,3,3,2,0,0,1,0,1,1,0,0,68,68,68,,,,,,,,,,,,,,,,,,,,,,,,,,13_NF,24,F,13,2021_Nov_02_1555,Partial repeat,2021.2.3,120.10199561463384,
3,3,0,1,1,2,2,2,3,0,0,1,0,1,1,0,0,69,69,69,0,0,0,0,,,,,,,438.87560149271485,None,0.9211963160690282,439.4750740520758,None,"[87. 93. 87. 87. 93. 87. 87. 87. 87. 87. 87. 87. 87. 87. 93. 87. 87. 93.
 87. 93. 87. 93. 87. 87. 87. 93. 93. 93. 93. 87. 87. 93. 93. 93.]",440.48254211892163,None,s,1,0.6146834007467987,440.48254211892163,None,None,None,13_NF,24,F,13,2021_Nov_02_1555,Partial repeat,2021.2.3,120.10199561463384,
3,3,0,1,1,2,2,2,3,0,0,1,0,1,1,0,0,69,69,69,1,0,1,0,,,,,,,,,0.7363484884199808,441.1652935977181,None,"[93. 93. 87. 87. 87. 87. 93. 93. 87. 87. 87. 87. 87. 93. 93. 93. 87. 87.
 87. 87. 93. 93. 87. 93. 87. 93. 87. 93. 93. 87. 93. 87. 93. 87.]",441.9812448445773,None,s,1,0.5393946650001453,441.9812448445773,None,None,None,13_NF,24,F,13,2021_Nov_02_1555,Partial repeat,2021.2.3,120.10199561463384,
3,3,0,1,1,2,2,2,3,0,0,1,0,1,1,0,0,69,69,69,,,,,,,,,,,,,,,,,,,,,,,,,,13_NF,24,F,13,2021_Nov_02_1555,Partial repeat,2021.2.3,120.10199561463384,
3,3,0,1,1,3,2,2,3,0,1,0,0,0,1,0,0,70,70,70,0,0,0,0,,,,,,,442.5390975075661,None,0.7074534543714109,443.36338081560643,None,"[93. 93. 93. 87. 87. 87. 87. 93. 87. 87. 93. 93. 93. 93. 93. 93. 87. 87.
 93. 87. 87. 93. 93. 87. 93. 87. 93. 87. 93. 87. 93. 93. 93. 87.]",444.15436057363513,None,s,1,0.6702667155859672,444.15436057363513,None,None,None,13_NF,24,F,13,2021_Nov_02_1555,Partial repeat,2021.2.3,120.10199561463384,
3,3,0,1,1,3,2,2,3,0,1,0,0,0,1,0,0,70,70,70,1,0,1,0,,,,,,,,,0.9934002397788892,444.8870588786158,None,"[93. 93. 87. 87. 93. 87. 93. 93. 93. 87. 87. 93. 87. 93. 87. 87. 87. 93.
 93. 87. 87. 93. 93. 87. 87. 93. 93. 93. 87. 87. 87. 93. 87. 87.]",445.96944846758015,None,l,1,0.678239580905938,445.96944846758015,None,None,None,13_NF,24,F,13,2021_Nov_02_1555,Partial repeat,2021.2.3,120.10199561463384,
3,3,0,1,1,3,2,2,3,0,1,0,0,0,1,0,0,70,70,70,,,,,,,,,,,,,,,,,,,,,,,,,,13_NF,24,F,13,2021_Nov_02_1555,Partial repeat,2021.2.3,120.10199561463384,
3,3,0,1,1,2,3,3,3,0,0,0,1,1,1,0,0,71,71,71,0,0,0,0,,,,,,,446.6771797736819,None,0.9246635080543054,447.26834432515534,None,"[87. 87. 93. 93. 93. 93. 93. 93. 87. 93. 93. 93. 93. 93. 87. 87. 87. 87.
 93. 87. 87. 87. 93. 87. 87. 87. 93. 93. 93. 93. 93. 93. 93. 93.]",448.2758079020532,None,s,1,0.48385945675181574,448.2758079020532,None,None,None,13_NF,24,F,13,2021_Nov_02_1555,Partial repeat,2021.2.3,120.10199561463384,
3,3,0,1,1,2,3,3,3,0,0,0,1,1,1,0,0,71,71,71,1,0,1,0,,,,,,,,,0.7172269946625778,448.8253323523859,None,"[93. 93. 93. 93. 87. 93. 87. 93. 93. 87. 87. 93. 93. 87. 93. 87. 93. 87.
 87. 93. 93. 87. 87. 87. 87. 87. 93. 87. 93. 87. 93. 93. 87. 87.]",449.62463070175363,None,s,1,0.7350528208644391,449.62463070175363,None,None,None,13_NF,24,F,13,2021_Nov_02_1555,Partial repeat,2021.2.3,120.10199561463384,
3,3,0,1,1,2,3,3,3,0,0,0,1,1,1,0,0,71,71,71,,,,,,,,,,,,,,,,,,,,,,,,,,13_NF,24,F,13,2021_Nov_02_1555,Partial repeat,2021.2.3,120.10199561463384,
3,3,0,1,1,2,3,2,2,1,0,0,1,0,1,0,0,72,72,72,0,0,0,0,,,,,,,450.3906335188749,None,0.8934253370041793,450.9151784626156,None,"[93. 87. 93. 87. 93. 87. 87. 87. 93. 93. 93. 87. 93. 93. 87. 93. 87. 93.
 93. 93. 93. 87. 93. 93. 93. 93. 87. 93. 87. 87. 87. 87. 93. 87.]",451.8976628536311,None,l,1,0.9423258315291605,451.8976628536311,None,None,None,13_NF,24,F,13,2021_Nov_02_1555,Partial repeat,2021.2.3,120.10199561463384,
3,3,0,1,1,2,3,2,2,1,0,0,1,0,1,0,0,72,72,72,1,0,1,0,,,,,,,,,0.9879123477100413,452.91348222429406,None,"[87. 87. 87. 93. 87. 93. 93. 87. 87. 93. 87. 87. 93. 93. 87. 87. 93. 87.
 87. 93. 93. 93. 87. 87. 87. 93. 87. 87. 93. 93. 93. 93. 87. 87.]",453.97919806957907,None,s,1,0.748916498338076,453.97919806957907,None,None,None,13_NF,24,F,13,2021_Nov_02_1555,Partial repeat,2021.2.3,120.10199561463384,
3,3,0,1,1,2,3,2,2,1,0,0,1,0,1,0,0,72,72,72,,,,,,,,,,,,,,,,,,,,,,,,,,13_NF,24,F,13,2021_Nov_02_1555,Partial repeat,2021.2.3,120.10199561463384,
3,3,0,1,1,2,2,2,3,1,1,1,0,1,1,0,0,73,73,73,0,0,0,0,,,,,,,454.7535053667707,None,0.8924104104434731,455.30305034258345,None,"[93. 93. 93. 93. 93. 93. 87. 93. 93. 93. 87. 87. 87. 93. 87. 87. 93. 93.
 87. 93. 87. 93. 87. 93. 93. 93. 93. 87. 93. 87. 87. 87. 87. 93.]",456.27721293515606,None,l,1,0.6105010139162914,456.27721293515606,None,None,None,13_NF,24,F,13,2021_Nov_02_1555,Partial repeat,2021.2.3,120.10199561463384,
3,3,0,1,1,2,2,2,3,1,1,1,0,1,1,0,0,73,73,73,1,0,1,0,,,,,,,,,0.7861199162452625,456.95994645415885,None,"[93. 93. 93. 93. 87. 87. 87. 87. 87. 93. 87. 93. 93. 93. 87. 87. 93. 87.
 93. 93. 93. 87. 93. 93. 87. 93. 87. 93. 93. 87. 87. 87. 87. 93.]",457.82586922191695,None,l,1,0.7267448129787226,457.82586922191695,None,None,None,13_NF,24,F,13,2021_Nov_02_1555,Partial repeat,2021.2.3,120.10199561463384,
3,3,0,1,1,2,2,2,3,1,1,1,0,1,1,0,0,73,73,73,,,,,,,,,,,,,,,,,,,,,,,,,,13_NF,24,F,13,2021_Nov_02_1555,Partial repeat,2021.2.3,120.10199561463384,
3,3,0,1,1,3,2,3,2,1,0,0,0,0,1,0,0,74,74,74,0,0,0,0,,,,,,,458.5752178587045,None,0.7549501359730127,459.07478040945716,None,"[93. 93. 87. 93. 93. 93. 93. 93. 87. 93. 87. 87. 93. 87. 87. 87. 93. 87.
 93. 87. 87. 87. 93. 93. 87. 87. 87. 93. 93. 93. 87. 93. 87. 93.]",459.9157397061517,None,l,1,0.6520070580299944,459.9157397061517,None,None,None,13_NF,24,F,13,2021_Nov_02_1555,Partial repeat,2021.2.3,120.10199561463384,
3,3,0,1,1,3,2,3,2,1,0,0,0,0,1,0,0,74,74,74,1,0,1,0,,,,,,,,,0.815196054947209,460.63176811597987,None,"[93. 93. 93. 93. 87. 93. 87. 87. 87. 93. 87. 93. 87. 93. 87. 93. 93. 93.
 87. 93. 87. 93. 87. 93. 87. 87. 93. 93. 93. 93. 87. 87. 93. 93.]",461.5226790495162,None,s,1,0.6280974419696577,461.5226790495162,None,None,None,13_NF,24,F,13,2021_Nov_02_1555,Partial repeat,2021.2.3,120.10199561463384,
3,3,0,1,1,3,2,3,2,1,0,0,0,0,1,0,0,74,74,74,,,,,,,,,,,,,,,,,,,,,,,,,,13_NF,24,F,13,2021_Nov_02_1555,Partial repeat,2021.2.3,120.10199561463384,
3,3,0,1,1,3,3,3,2,1,1,1,0,1,1,0,0,75,75,75,0,0,0,0,,,,,,,462.1804288926887,None,0.8672238201363051,462.6799952919682,None,"[93. 93. 93. 87. 93. 93. 93. 87. 93. 87. 87. 93. 87. 87. 87. 87. 93. 87.
 87. 87. 87. 87. 87. 87. 93. 93. 87. 93. 93. 87. 93. 87. 93. 87.]",463.6291896028197,None,l,1,0.6175441392279026,463.6291896028197,None,None,None,13_NF,24,F,13,2021_Nov_02_1555,Partial repeat,2021.2.3,120.10199561463384,
3,3,0,1,1,3,3,3,2,1,1,1,0,1,1,0,0,75,75,75,1,0,1,0,,,,,,,,,0.8584214233354581,464.32024652381733,None,"[93. 93. 93. 87. 87. 93. 93. 87. 93. 87. 93. 93. 87. 93. 87. 93. 93. 87.
 93. 87. 87. 87. 87. 93. 93. 87. 93. 87. 87. 93. 87. 93. 93. 93.]",465.25277735372765,None,l,1,0.5779883362265537,465.25277735372765,None,None,None,13_NF,24,F,13,2021_Nov_02_1555,Partial repeat,2021.2.3,120.10199561463384,
3,3,0,1,1,3,3,3,2,1,1,1,0,1,1,0,0,75,75,75,,,,,,,,,,,,,,,,,,,,,,,,,,13_NF,24,F,13,2021_Nov_02_1555,Partial repeat,2021.2.3,120.10199561463384,
3,3,0,1,1,3,3,3,3,1,0,1,1,0,1,0,0,76,76,76,0,0,0,0,,,,,,,465.85224606455995,None,0.9377627658264197,466.4350798376945,None,"[87. 87. 93. 93. 87. 87. 87. 93. 93. 93. 93. 87. 87. 87. 93. 87. 93. 87.
 93. 87. 87. 87. 93. 87. 87. 93. 93. 87. 87. 87. 87. 87. 87. 87.]",467.4508722686678,None,l,1,0.700510045127885,467.4508722686678,None,None,None,13_NF,24,F,13,2021_Nov_02_1555,Partial repeat,2021.2.3,120.10199561463384,
3,3,0,1,1,3,3,3,3,1,0,1,1,0,1,0,0,76,76,76,1,0,1,0,,,,,,,,,0.867555283464471,468.22520041204916,None,"[87. 93. 87. 87. 93. 93. 87. 93. 87. 87. 93. 87. 93. 87. 87. 93. 93. 93.
 93. 93. 87. 87. 93. 93. 87. 93. 87. 87. 93. 87. 93. 93. 93. 93.]",469.1743822151875,None,s,1,0.7364222550932027,469.1743822151875,None,None,None,13_NF,24,F,13,2021_Nov_02_1555,Partial repeat,2021.2.3,120.10199561463384,
3,3,0,1,1,3,3,3,3,1,0,1,1,0,1,0,0,76,76,76,,,,,,,,,,,,,,,,,,,,,,,,,,13_NF,24,F,13,2021_Nov_02_1555,Partial repeat,2021.2.3,120.10199561463384,
3,3,0,1,1,3,2,2,2,1,1,0,1,1,1,0,0,77,77,77,0,0,0,0,,,,,,,469.9403815044916,None,0.7568535676754969,470.4316177668534,None,"[93. 93. 87. 93. 87. 93. 87. 93. 87. 87. 93. 93. 93. 87. 93. 87. 87. 93.
 87. 87. 93. 87. 87. 93. 93. 87. 93. 87. 87. 93. 87. 87. 87. 93.]",471.26423826744394,None,l,1,0.7753789707094256,471.26423826744394,None,None,None,13_NF,24,F,13,2021_Nov_02_1555,Partial repeat,2021.2.3,120.10199561463384,
3,3,0,1,1,3,2,2,2,1,1,0,1,1,1,0,0,77,77,77,1,0,1,0,,,,,,,,,0.9143732499803973,472.11350525131456,None,"[93. 93. 93. 93. 93. 93. 87. 93. 87. 93. 87. 87. 93. 93. 87. 93. 93. 93.
 87. 87. 93. 87. 87. 87. 93. 93. 93. 93. 87. 93. 87. 93. 93. 87.]",473.11263740845425,None,l,1,0.5901894499911577,473.11263740845425,None,None,None,13_NF,24,F,13,2021_Nov_02_1555,Partial repeat,2021.2.3,120.10199561463384,
3,3,0,1,1,3,2,2,2,1,1,0,1,1,1,0,0,77,77,77,,,,,,,,,,,,,,,,,,,,,,,,,,13_NF,24,F,13,2021_Nov_02_1555,Partial repeat,2021.2.3,120.10199561463384,
3,3,0,1,1,3,3,2,3,0,0,1,0,1,1,0,0,78,78,78,0,0,0,0,,,,,,,473.7204484432077,None,0.8820510395403638,474.33657101366407,None,"[87. 93. 87. 93. 87. 93. 87. 87. 93. 87. 93. 93. 93. 93. 87. 93. 87. 87.
 93. 93. 93. 93. 93. 93. 93. 93. 87. 93. 93. 93. 87. 87. 93. 87.]",475.3024114870841,None,s,1,0.575782168065416,475.3024114870841,None,None,None,13_NF,24,F,13,2021_Nov_02_1555,Partial repeat,2021.2.3,120.10199561463384,
3,3,0,1,1,3,3,2,3,0,0,1,0,1,1,0,0,78,78,78,1,0,1,0,,,,,,,,,0.8335277719298402,475.93519497279704,None,"[87. 93. 87. 87. 93. 93. 87. 87. 93. 87. 87. 93. 87. 87. 93. 93. 87. 87.
 93. 87. 87. 87. 87. 93. 87. 93. 93. 87. 87. 87. 93. 93. 93. 93.]",476.8510732259256,None,s,1,0.7227987898531865,476.8510732259256,None,None,None,13_NF,24,F,13,2021_Nov_02_1555,Partial repeat,2021.2.3,120.10199561463384,
3,3,0,1,1,3,3,2,3,0,0,1,0,1,1,0,0,78,78,78,,,,,,,,,,,,,,,,,,,,,,,,,,13_NF,24,F,13,2021_Nov_02_1555,Partial repeat,2021.2.3,120.10199561463384,
3,3,0,1,1,2,2,2,2,0,1,1,1,0,1,0,0,79,79,79,0,0,0,0,,,,,,,477.58376800308906,None,0.979235824786343,478.18324537310764,None,"[87. 93. 87. 87. 87. 93. 87. 87. 87. 93. 93. 93. 87. 93. 93. 87. 87. 93.
 87. 93. 87. 93. 87. 93. 93. 87. 87. 93. 87. 93. 93. 93. 93. 93.]",479.24899457229367,None,s,1,0.5488684558895329,479.24899457229367,None,None,None,13_NF,24,F,13,2021_Nov_02_1555,Partial repeat,2021.2.3,120.10199561463384,
3,3,0,1,1,2,2,2,2,0,1,1,1,0,1,0,0,79,79,79,1,0,1,0,,,,,,,,,0.8028576919195813,479.8568007963895,None,"[93. 87. 87. 93. 93. 93. 87. 87. 87. 87. 87. 93. 87. 93. 93. 87. 93. 87.
 87. 87. 87. 87. 87. 93. 93. 93. 93. 93. 87. 87. 93. 87. 93. 93.]",480.7476966565282,None,l,1,0.6181810704656527,480.7476966565282,None,None,None,13_NF,24,F,13,2021_Nov_02_1555,Partial repeat,2021.2.3,120.10199561463384,
3,3,0,1,1,2,2,2,2,0,1,1,1,0,1,0,0,79,79,79,,,,,,,,,,,,,,,,,,,,,,,,,,13_NF,24,F,13,2021_Nov_02_1555,Partial repeat,2021.2.3,120.10199561463384,
3,3,0,1,1,3,3,3,2,1,0,1,0,0,1,0,0,80,80,80,0,0,0,0,,,,,,,481.3888160519509,None,0.9758523919017976,482.03824666236505,None,"[93. 87. 93. 93. 93. 87. 93. 87. 93. 87. 93. 93. 87. 93. 93. 93. 93. 93.
 93. 93. 87. 93. 87. 87. 87. 93. 87. 87. 93. 93. 87. 87. 93. 87.]",483.10399297515505,None,l,1,0.6619013005038141,483.10399297515505,None,None,None,13_NF,24,F,13,2021_Nov_02_1555,Partial repeat,2021.2.3,120.10199561463384,
3,3,0,1,1,3,3,3,2,1,0,1,0,0,1,0,0,80,80,80,1,0,1,0,,,,,,,,,0.8554257187347598,483.8283643503237,None,"[87. 93. 87. 93. 87. 93. 87. 93. 87. 87. 87. 87. 93. 93. 93. 93. 87. 93.
 93. 93. 93. 93. 87. 87. 87. 87. 87. 93. 87. 93. 93. 93. 87. 87.]",484.76921024375224,None,s,1,0.644701912162418,484.76921024375224,None,None,None,13_NF,24,F,13,2021_Nov_02_1555,Partial repeat,2021.2.3,120.10199561463384,
3,3,0,1,1,3,3,3,2,1,0,1,0,0,1,0,0,80,80,80,,,,,,,,,,,,,,,,,,,,,,,,,,13_NF,24,F,13,2021_Nov_02_1555,Partial repeat,2021.2.3,120.10199561463384,
3,3,0,1,1,2,2,2,2,1,1,1,1,1,1,0,0,81,81,81,0,0,0,0,,,,,,,485.43531555998015,None,0.8630748314374889,487.89151483158275,None,"[87. 93. 93. 93. 87. 87. 87. 93. 93. 93. 93. 87. 93. 93. 93. 87. 93. 87.
 87. 87. 93. 87. 87. 93. 93. 93. 93. 93. 93. 93. 93. 93. 93. 93.]",488.84069278619245,None,l,1,0.5728685123358446,488.84069278619245,None,None,None,13_NF,24,F,13,2021_Nov_02_1555,Partial repeat,2021.2.3,120.10199561463384,
3,3,0,1,1,2,2,2,2,1,1,1,1,1,1,0,0,81,81,81,1,0,1,0,,,,,,,,,0.9515645738719731,489.4734794790129,None,"[87. 93. 87. 87. 93. 87. 93. 87. 93. 93. 93. 93. 87. 87. 87. 93. 87. 93.
 87. 87. 87. 87. 93. 93. 93. 87. 93. 93. 93. 87. 87. 93. 87. 93.]",490.50591839326626,None,l,1,0.7160526425504941,490.50591839326626,None,None,None,13_NF,24,F,13,2021_Nov_02_1555,Partial repeat,2021.2.3,120.10199561463384,
3,3,0,1,1,2,2,2,2,1,1,1,1,1,1,0,0,81,81,81,,,,,,,,,,,,,,,,,,,,,,,,,,13_NF,24,F,13,2021_Nov_02_1555,Partial repeat,2021.2.3,120.10199561463384,
3,3,0,1,1,3,3,3,3,0,1,1,1,0,1,0,0,82,82,82,0,0,0,0,,,,,,,491.23029105127716,None,0.9310372012029402,491.821453037066,None,"[87. 87. 93. 87. 87. 87. 87. 87. 93. 93. 87. 87. 93. 87. 93. 87. 93. 93.
 93. 93. 87. 87. 93. 87. 87. 87. 87. 93. 87. 93. 93. 87. 87. 87.]",492.83723456387816,None,s,1,0.5277390799546993,492.83723456387816,None,None,None,13_NF,24,F,13,2021_Nov_02_1555,Partial repeat,2021.2.3,120.10199561463384,
3,3,0,1,1,3,3,3,3,0,1,1,1,0,1,0,0,82,82,82,1,0,1,0,,,,,,,,,0.926322653018464,493.4367144995831,None,"[87. 93. 93. 87. 87. 93. 87. 93. 93. 93. 87. 87. 87. 93. 87. 87. 87. 93.
 93. 93. 87. 87. 87. 87. 87. 93. 87. 87. 87. 93. 93. 87. 93. 87.]",494.45250532700265,None,l,1,0.7204691481110785,494.45250532700265,None,None,None,13_NF,24,F,13,2021_Nov_02_1555,Partial repeat,2021.2.3,120.10199561463384,
3,3,0,1,1,3,3,3,3,0,1,1,1,0,1,0,0,82,82,82,,,,,,,,,,,,,,,,,,,,,,,,,,13_NF,24,F,13,2021_Nov_02_1555,Partial repeat,2021.2.3,120.10199561463384,
3,3,0,1,1,2,2,2,2,1,0,1,1,0,1,0,0,83,83,83,0,0,0,0,,,,,,,495.1935257511359,None,0.8520870504418769,495.7930021590237,None,"[87. 87. 93. 93. 87. 93. 93. 93. 93. 93. 93. 93. 93. 87. 93. 93. 93. 93.
 87. 87. 87. 87. 87. 87. 87. 87. 93. 93. 93. 93. 87. 93. 93. 87.]",496.7338624844306,None,l,1,0.743111636620597,496.7338624844306,None,None,None,13_NF,24,F,13,2021_Nov_02_1555,Partial repeat,2021.2.3,120.10199561463384,
3,3,0,1,1,2,2,2,2,1,0,1,1,0,1,0,0,83,83,83,1,0,1,0,,,,,,,,,0.9109216078970489,497.54149706421595,None,"[87. 93. 87. 93. 93. 87. 87. 87. 87. 93. 93. 93. 87. 93. 87. 93. 93. 93.
 87. 87. 87. 87. 87. 93. 87. 93. 93. 87. 93. 87. 93. 93. 93. 93.]",498.5406356355652,None,s,1,0.6643560193770099,498.5406356355652,None,None,None,13_NF,24,F,13,2021_Nov_02_1555,Partial repeat,2021.2.3,120.10199561463384,
3,3,0,1,1,2,2,2,2,1,0,1,1,0,1,0,0,83,83,83,,,,,,,,,,,,,,,,,,,,,,,,,,13_NF,24,F,13,2021_Nov_02_1555,Partial repeat,2021.2.3,120.10199561463384,
3,3,0,1,1,3,3,2,2,0,1,1,1,0,1,0,0,84,84,84,0,0,0,0,,,,,,,499.22337268238516,None,0.8647997997963884,500.6554634973618,None,"[87. 93. 93. 93. 93. 87. 87. 87. 93. 93. 87. 93. 87. 87. 87. 93. 93. 93.
 87. 87. 93. 93. 93. 93. 87. 93. 87. 93. 93. 87. 87. 87. 93. 87.]",501.60465203542117,None,s,1,0.6243611635745765,501.60465203542117,None,None,None,13_NF,24,F,13,2021_Nov_02_1555,Partial repeat,2021.2.3,120.10199561463384,
3,3,0,1,1,3,3,2,2,0,1,1,1,0,1,0,0,84,84,84,1,0,1,0,,,,,,,,,0.8699652145094375,502.28739100650637,None,"[87. 93. 87. 93. 93. 93. 93. 93. 93. 93. 87. 87. 87. 93. 87. 87. 87. 93.
 93. 87. 93. 87. 93. 87. 93. 87. 87. 87. 93. 87. 87. 87. 87. 93.]",503.2365676782738,None,l,1,0.7364524018885277,503.2365676782738,None,None,None,13_NF,24,F,13,2021_Nov_02_1555,Partial repeat,2021.2.3,120.10199561463384,
3,3,0,1,1,3,3,2,2,0,1,1,1,0,1,0,0,84,84,84,,,,,,,,,,,,,,,,,,,,,,,,,,13_NF,24,F,13,2021_Nov_02_1555,Partial repeat,2021.2.3,120.10199561463384,
3,3,0,1,1,3,2,3,3,0,1,0,1,0,1,0,0,85,85,85,0,0,0,0,,,,,,,503.98591695648247,None,0.8063112744680951,504.96007602123973,None,"[87. 87. 93. 87. 87. 87. 93. 87. 93. 87. 87. 93. 93. 87. 93. 87. 87. 93.
 93. 87. 87. 93. 93. 87. 93. 87. 87. 93. 87. 87. 87. 93. 87. 87.]",505.8509824648281,None,s,1,0.6020435548944079,505.8509824648281,None,None,None,13_NF,24,F,13,2021_Nov_02_1555,Partial repeat,2021.2.3,120.10199561463384,
3,3,0,1,1,3,2,3,3,0,1,0,1,0,1,0,0,85,85,85,1,0,1,0,,,,,,,,,0.775970132869174,506.5170557099955,None,"[87. 93. 93. 87. 87. 87. 93. 87. 87. 87. 87. 93. 87. 87. 87. 87. 93. 87.
 93. 93. 93. 93. 87. 87. 93. 87. 93. 93. 93. 93. 87. 87. 87. 87.]",507.3829794398862,None,l,1,0.6690762378675572,507.3829794398862,None,None,None,13_NF,24,F,13,2021_Nov_02_1555,Partial repeat,2021.2.3,120.10199561463384,
3,3,0,1,1,3,2,3,3,0,1,0,1,0,1,0,0,85,85,85,,,,,,,,,,,,,,,,,,,,,,,,,,13_NF,24,F,13,2021_Nov_02_1555,Partial repeat,2021.2.3,120.10199561463384,
3,3,0,1,1,2,3,3,3,1,1,0,1,1,1,0,0,86,86,86,0,0,0,0,,,,,,,508.0740482271758,None,0.8885783665508175,508.64854352491784,None,"[87. 93. 87. 87. 93. 87. 87. 87. 87. 87. 87. 93. 93. 93. 93. 93. 93. 87.
 93. 93. 93. 87. 87. 87. 93. 87. 93. 93. 87. 87. 87. 87. 87. 87.]",509.6227192666247,None,l,1,0.5733229592442513,509.6227192666247,None,None,None,13_NF,24,F,13,2021_Nov_02_1555,Partial repeat,2021.2.3,120.10199561463384,
3,3,0,1,1,2,3,3,3,1,1,0,1,1,1,0,0,86,86,86,1,0,1,0,,,,,,,,,0.8319952961309577,510.2554947345743,None,"[87. 93. 93. 87. 87. 87. 87. 93. 93. 93. 93. 87. 87. 93. 93. 93. 87. 87.
 93. 93. 93. 87. 87. 93. 87. 87. 93. 87. 93. 87. 93. 93. 87. 87.]",511.16304253007365,None,l,1,1.2253105952095211,511.16304253007365,None,None,None,13_NF,24,F,13,2021_Nov_02_1555,Partial repeat,2021.2.3,120.10199561463384,
3,3,0,1,1,2,3,3,3,1,1,0,1,1,1,0,0,86,86,86,,,,,,,,,,,,,,,,,,,,,,,,,,13_NF,24,F,13,2021_Nov_02_1555,Partial repeat,2021.2.3,120.10199561463384,
3,3,0,1,1,3,2,3,3,1,1,0,1,1,1,0,0,87,87,87,0,0,0,0,,,,,,,512.4119784123286,None,0.8528267025963722,513.5942728785321,None,"[93. 87. 87. 93. 93. 93. 87. 87. 87. 93. 87. 93. 87. 93. 87. 87. 87. 93.
 87. 93. 93. 87. 87. 93. 87. 93. 93. 87. 93. 93. 87. 87. 93. 93.]",514.5351235826201,None,l,1,0.6848882321883139,514.5351235826201,None,None,None,13_NF,24,F,13,2021_Nov_02_1555,Partial repeat,2021.2.3,120.10199561463384,
3,3,0,1,1,3,2,3,3,1,1,0,1,1,1,0,0,87,87,87,1,0,1,0,,,,,,,,,0.8235589850518951,515.2844699744328,None,"[93. 93. 93. 87. 87. 93. 93. 87. 87. 93. 87. 93. 87. 87. 93. 93. 93. 93.
 93. 93. 93. 87. 87. 87. 93. 87. 87. 87. 93. 87. 93. 93. 87. 93.]",516.1837017442813,None,l,1,0.5883912257013435,516.1837017442813,None,None,None,13_NF,24,F,13,2021_Nov_02_1555,Partial repeat,2021.2.3,120.10199561463384,
3,3,0,1,1,3,2,3,3,1,1,0,1,1,1,0,0,87,87,87,,,,,,,,,,,,,,,,,,,,,,,,,,13_NF,24,F,13,2021_Nov_02_1555,Partial repeat,2021.2.3,120.10199561463384,
3,3,0,1,1,3,2,3,2,0,0,0,0,1,1,0,0,88,88,88,0,0,0,0,,,,,,,516.7998377845834,None,0.8380655567018509,517.9904636705451,None,"[93. 87. 87. 93. 93. 93. 93. 93. 93. 87. 93. 93. 87. 87. 87. 87. 87. 87.
 93. 93. 87. 87. 87. 87. 87. 87. 93. 87. 87. 87. 87. 93. 93. 93.]",518.914667891353,None,s,1,0.5934526802648179,518.914667891353,None,None,None,13_NF,24,F,13,2021_Nov_02_1555,Partial repeat,2021.2.3,120.10199561463384,
3,3,0,1,1,3,2,3,2,0,0,0,0,1,1,0,0,88,88,88,1,0,1,0,,,,,,,,,0.7475753673145331,519.5807651898158,None,"[87. 87. 93. 87. 93. 93. 87. 93. 87. 93. 93. 93. 93. 93. 87. 93. 87. 93.
 87. 93. 87. 87. 93. 93. 87. 87. 87. 93. 87. 87. 93. 93. 93. 87.]",520.4050440079081,None,s,1,0.8310738928321371,520.4050440079081,None,None,None,13_NF,24,F,13,2021_Nov_02_1555,Partial repeat,2021.2.3,120.10199561463384,
3,3,0,1,1,3,2,3,2,0,0,0,0,1,1,0,0,88,88,88,,,,,,,,,,,,,,,,,,,,,,,,,,13_NF,24,F,13,2021_Nov_02_1555,Partial repeat,2021.2.3,120.10199561463384,
3,3,0,1,1,2,3,2,3,0,0,0,0,1,1,0,0,89,89,89,0,0,0,0,,,,,,,521.2543084260942,None,0.819756185578338,523.4940543463345,None,"[93. 93. 87. 87. 87. 93. 87. 93. 93. 87. 93. 93. 87. 87. 87. 93. 93. 87.
 93. 87. 87. 87. 93. 87. 93. 93. 93. 93. 93. 87. 87. 87. 87. 87.]",524.3932562900973,None,s,1,1.7539067551497283,524.3932562900973,None,None,None,13_NF,24,F,13,2021_Nov_02_1555,Partial repeat,2021.2.3,120.10199561463384,
3,3,0,1,1,2,3,2,3,0,0,0,0,1,1,0,0,89,89,89,1,0,1,0,,,,,,,,,0.8040779222821294,526.216675924512,None,"[93. 93. 87. 87. 93. 87. 93. 93. 93. 93. 87. 87. 93. 87. 93. 93. 93. 87.
 87. 93. 93. 87. 87. 93. 93. 87. 93. 93. 93. 87. 93. 87. 87. 87.]",527.0992554382901,None,s,1,0.679916576591495,527.0992554382901,None,None,None,13_NF,24,F,13,2021_Nov_02_1555,Partial repeat,2021.2.3,120.10199561463384,
3,3,0,1,1,2,3,2,3,0,0,0,0,1,1,0,0,89,89,89,,,,,,,,,,,,,,,,,,,,,,,,,,13_NF,24,F,13,2021_Nov_02_1555,Partial repeat,2021.2.3,120.10199561463384,
3,3,0,1,1,3,2,2,3,1,0,0,0,0,1,0,0,90,90,90,0,0,0,0,,,,,,,527.8069745573866,None,0.8156905352208761,528.6728889866699,None,"[93. 87. 87. 87. 87. 87. 87. 87. 87. 93. 93. 87. 93. 87. 93. 87. 93. 93.
 87. 93. 87. 87. 93. 87. 93. 87. 93. 87. 87. 93. 93. 93. 93. 87.]",529.5721181908339,None,l,1,0.7510716735159804,529.5721181908339,None,None,None,13_NF,24,F,13,2021_Nov_02_1555,Partial repeat,2021.2.3,120.10199561463384,
3,3,0,1,1,3,2,2,3,1,0,0,0,0,1,0,0,90,90,90,1,0,1,0,,,,,,,,,0.7733497613659375,530.3963976503455,None,"[87. 87. 87. 93. 93. 87. 93. 93. 87. 87. 93. 93. 93. 93. 87. 87. 87. 93.
 93. 93. 87. 93. 87. 87. 87. 93. 93. 93. 93. 87. 87. 93. 93. 93.]",531.2539870740802,None,s,1,0.5411964171071304,531.2539870740802,None,None,None,13_NF,24,F,13,2021_Nov_02_1555,Partial repeat,2021.2.3,120.10199561463384,
3,3,0,1,1,3,2,2,3,1,0,0,0,0,1,0,0,90,90,90,,,,,,,,,,,,,,,,,,,,,,,,,,13_NF,24,F,13,2021_Nov_02_1555,Partial repeat,2021.2.3,120.10199561463384,
3,3,0,1,1,2,2,3,3,1,0,1,1,0,1,0,0,91,91,91,0,0,0,0,,,,,,,531.8284881446125,None,0.8025529509530571,532.6777557699043,None,"[93. 93. 87. 87. 93. 87. 87. 93. 87. 93. 93. 87. 93. 87. 93. 87. 93. 93.
 93. 93. 93. 87. 93. 93. 87. 93. 93. 87. 93. 87. 87. 87. 87. 87.]",533.5603182860195,None,l,1,0.5708945386413689,533.5603182860195,None,None,None,13_NF,24,F,13,2021_Nov_02_1555,Partial repeat,2021.2.3,120.10199561463384,
3,3,0,1,1,2,2,3,3,1,0,1,1,0,1,0,0,91,91,91,1,0,1,0,,,,,,,,,0.8947011194739283,534.1931226179222,None,"[93. 87. 87. 93. 87. 93. 87. 93. 93. 87. 93. 93. 93. 93. 93. 87. 93. 93.
 93. 93. 93. 87. 93. 87. 87. 93. 87. 87. 87. 93. 93. 87. 87. 87.]",535.16727687202,None,s,1,0.4679294409343129,535.16727687202,None,None,None,13_NF,24,F,13,2021_Nov_02_1555,Partial repeat,2021.2.3,120.10199561463384,
3,3,0,1,1,2,2,3,3,1,0,1,1,0,1,0,0,91,91,91,,,,,,,,,,,,,,,,,,,,,,,,,,13_NF,24,F,13,2021_Nov_02_1555,Partial repeat,2021.2.3,120.10199561463384,
3,3,0,1,1,3,3,2,2,1,1,1,1,1,1,0,0,92,92,92,0,0,0,0,,,,,,,535.6585080030127,None,0.8310927150866595,536.2246808608907,None,"[87. 93. 93. 93. 87. 87. 87. 93. 93. 87. 87. 93. 87. 93. 93. 93. 93. 93.
 93. 87. 87. 93. 87. 87. 93. 87. 87. 93. 87. 87. 87. 93. 87. 87.]",537.1322350706014,None,l,1,0.5350253038959636,537.1322350706014,None,None,None,13_NF,24,F,13,2021_Nov_02_1555,Partial repeat,2021.2.3,120.10199561463384,
3,3,0,1,1,3,3,2,2,1,1,1,1,1,1,0,0,92,92,92,1,0,1,0,,,,,,,,,0.9373957026543109,537.7400416154069,None,"[87. 93. 87. 93. 93. 93. 93. 87. 87. 87. 87. 87. 87. 93. 87. 87. 93. 93.
 93. 87. 93. 87. 87. 93. 93. 93. 87. 93. 93. 87. 93. 93. 93. 87.]",538.7558318014053,None,l,1,1.2624434296885738,538.7558318014053,None,None,None,13_NF,24,F,13,2021_Nov_02_1555,Partial repeat,2021.2.3,120.10199561463384,
3,3,0,1,1,3,3,2,2,1,1,1,1,1,1,0,0,92,92,92,,,,,,,,,,,,,,,,,,,,,,,,,,13_NF,24,F,13,2021_Nov_02_1555,Partial repeat,2021.2.3,120.10199561463384,
3,3,0,1,1,2,2,2,3,1,0,1,0,0,1,0,0,93,93,93,0,0,0,0,,,,,,,540.0380439732708,None,0.7612525076207921,540.7041425545758,None,"[93. 93. 93. 93. 87. 93. 87. 87. 87. 87. 87. 87. 93. 93. 87. 93. 93. 93.
 87. 87. 87. 93. 93. 87. 93. 93. 93. 93. 87. 87. 87. 93. 93. 93.]",541.545076194423,None,l,1,0.5371718198894087,541.545076194423,None,None,None,13_NF,24,F,13,2021_Nov_02_1555,Partial repeat,2021.2.3,120.10199561463384,
3,3,0,1,1,2,2,2,3,1,0,1,0,0,1,0,0,93,93,93,1,0,1,0,,,,,,,,,0.8980618562224119,542.144555488705,None,"[87. 93. 93. 93. 87. 87. 87. 93. 87. 93. 87. 93. 87. 87. 87. 93. 87. 93.
 93. 93. 87. 87. 87. 87. 93. 93. 87. 93. 93. 87. 93. 87. 93. 93.]",543.1187228919371,None,s,1,0.6115596795807505,543.1187228919371,None,None,None,13_NF,24,F,13,2021_Nov_02_1555,Partial repeat,2021.2.3,120.10199561463384,
3,3,0,1,1,2,2,2,3,1,0,1,0,0,1,0,0,93,93,93,,,,,,,,,,,,,,,,,,,,,,,,,,13_NF,24,F,13,2021_Nov_02_1555,Partial repeat,2021.2.3,120.10199561463384,
3,3,0,1,1,2,2,3,3,0,1,1,1,0,1,0,0,94,94,94,0,0,0,0,,,,,,,543.7515066983615,None,0.7893416799991302,544.317682121924,None,"[93. 93. 87. 93. 93. 93. 93. 87. 93. 93. 87. 93. 87. 93. 87. 87. 87. 93.
 93. 93. 87. 93. 87. 93. 93. 87. 87. 87. 93. 87. 87. 93. 93. 93.]",545.1919456100495,None,s,1,0.6023261009268026,545.1919456100495,None,None,None,13_NF,24,F,13,2021_Nov_02_1555,Partial repeat,2021.2.3,120.10199561463384,
3,3,0,1,1,2,2,3,3,0,1,1,1,0,1,0,0,94,94,94,1,0,1,0,,,,,,,,,0.9858670302927389,545.8663406536598,None,"[87. 93. 93. 87. 93. 87. 93. 87. 87. 87. 87. 87. 93. 93. 87. 87. 87. 93.
 93. 87. 87. 87. 93. 87. 93. 93. 87. 87. 87. 87. 87. 87. 87. 87.]",546.9320879285824,None,l,1,0.6222175339753448,546.9320879285824,None,None,None,13_NF,24,F,13,2021_Nov_02_1555,Partial repeat,2021.2.3,120.10199561463384,
3,3,0,1,1,2,2,3,3,0,1,1,1,0,1,0,0,94,94,94,,,,,,,,,,,,,,,,,,,,,,,,,,13_NF,24,F,13,2021_Nov_02_1555,Partial repeat,2021.2.3,120.10199561463384,
3,3,0,1,1,2,2,3,2,1,0,1,0,0,1,0,0,95,95,95,0,0,0,0,,,,,,,547.5732086068456,None,0.9820772973742997,548.2892389409371,None,"[93. 87. 93. 87. 93. 87. 87. 93. 93. 87. 93. 93. 93. 93. 93. 93. 93. 93.
 93. 93. 87. 87. 87. 93. 93. 93. 93. 87. 93. 87. 87. 87. 93. 87.]",549.3466682659437,None,l,1,0.5756436210886022,549.3466682659437,None,None,None,13_NF,24,F,13,2021_Nov_02_1555,Partial repeat,2021.2.3,120.10199561463384,
3,3,0,1,1,2,2,3,2,1,0,1,0,0,1,0,0,95,95,95,1,0,1,0,,,,,,,,,0.8386777346735077,549.9877741915207,None,"[87. 93. 87. 93. 87. 87. 87. 87. 93. 87. 93. 87. 87. 87. 93. 93. 87. 87.
 93. 87. 87. 93. 87. 93. 87. 93. 93. 93. 87. 93. 87. 87. 93. 87.]",550.9036492375435,None,s,1,0.5226821153391938,550.9036492375435,None,None,None,13_NF,24,F,13,2021_Nov_02_1555,Partial repeat,2021.2.3,120.10199561463384,
3,3,0,1,1,2,2,3,2,1,0,1,0,0,1,0,0,95,95,95,,,,,,,,,,,,,,,,,,,,,,,,,,13_NF,24,F,13,2021_Nov_02_1555,Partial repeat,2021.2.3,120.10199561463384,
3,3,0,1,1,2,3,2,3,1,1,0,0,1,1,0,0,96,96,96,0,0,0,0,,,,,,,551.4531768949837,None,0.8207262364522656,551.9527423321306,None,"[93. 93. 93. 93. 87. 87. 93. 93. 93. 93. 87. 87. 87. 87. 93. 93. 93. 87.
 87. 93. 93. 93. 87. 93. 93. 93. 93. 93. 93. 93. 93. 87. 93. 87.]",552.8519641599505,None,l,1,0.4943729913793504,552.8519641599505,None,None,None,13_NF,24,F,13,2021_Nov_02_1555,Partial repeat,2021.2.3,120.10199561463384,
3,3,0,1,1,2,3,2,3,1,1,0,0,1,1,0,0,96,96,96,1,0,1,0,,,,,,,,,0.7792352407872335,553.4181344521439,None,"[87. 93. 93. 93. 87. 87. 87. 87. 93. 93. 93. 87. 93. 87. 93. 87. 87. 93.
 87. 87. 93. 93. 87. 93. 93. 93. 87. 93. 93. 93. 93. 93. 93. 87.]",554.2757261208517,None,l,1,0.6056441727105266,554.2757261208517,None,None,None,13_NF,24,F,13,2021_Nov_02_1555,Partial repeat,2021.2.3,120.10199561463384,
3,3,0,1,1,2,3,2,3,1,1,0,0,1,1,0,0,96,96,96,,,,,,,,,,,,,,,,,,,,,,,,,,13_NF,24,F,13,2021_Nov_02_1555,Partial repeat,2021.2.3,120.10199561463384,
3,3,0,1,1,3,2,2,3,0,0,0,0,1,1,0,0,97,97,97,0,0,0,0,,,,,,,554.9001849217275,None,0.7993112780233134,555.5579543282456,None,"[93. 87. 87. 93. 93. 93. 93. 87. 93. 93. 87. 93. 93. 87. 87. 93. 87. 87.
 93. 87. 87. 93. 93. 87. 93. 87. 93. 93. 87. 93. 87. 87. 87. 87.]",556.4405476325792,None,s,1,0.5208001855862676,556.4405476325792,None,None,None,13_NF,24,F,13,2021_Nov_02_1555,Partial repeat,2021.2.3,120.10199561463384,
3,3,0,1,1,3,2,2,3,0,0,0,0,1,1,0,0,97,97,97,1,0,1,0,,,,,,,,,0.8188072259911094,557.0233477311012,None,"[87. 93. 87. 87. 93. 93. 93. 87. 93. 87. 93. 87. 93. 87. 93. 87. 93. 93.
 87. 87. 87. 87. 87. 93. 87. 87. 87. 87. 87. 93. 87. 87. 87. 93.]",557.9225820666343,None,s,1,0.6708064715130604,557.9225820666343,None,None,None,13_NF,24,F,13,2021_Nov_02_1555,Partial repeat,2021.2.3,120.10199561463384,
3,3,0,1,1,3,2,2,3,0,0,0,0,1,1,0,0,97,97,97,,,,,,,,,,,,,,,,,,,,,,,,,,13_NF,24,F,13,2021_Nov_02_1555,Partial repeat,2021.2.3,120.10199561463384,
3,3,0,1,1,3,2,2,3,1,1,0,0,1,1,0,0,98,98,98,0,0,0,0,,,,,,,558.613641874028,None,0.903324706913077,559.3713273826561,None,"[93. 87. 87. 93. 87. 87. 93. 87. 87. 87. 93. 93. 93. 87. 93. 87. 87. 87.
 87. 87. 87. 93. 93. 93. 87. 87. 87. 87. 87. 87. 93. 87. 87. 87.]",560.3621290821648,None,l,1,0.5992533727439877,560.3621290821648,None,None,None,13_NF,24,F,13,2021_Nov_02_1555,Partial repeat,2021.2.3,120.10199561463384,
3,3,0,1,1,3,2,2,3,1,1,0,0,1,1,0,0,98,98,98,1,0,1,0,,,,,,,,,0.9587328697163828,561.019889508787,None,"[87. 93. 87. 87. 93. 87. 87. 87. 93. 93. 87. 93. 87. 93. 93. 93. 87. 87.
 93. 87. 93. 93. 93. 87. 87. 93. 87. 87. 87. 93. 93. 87. 93. 87.]",562.0606614463541,None,l,1,0.6127613821699924,562.0606614463541,None,None,None,13_NF,24,F,13,2021_Nov_02_1555,Partial repeat,2021.2.3,120.10199561463384,
3,3,0,1,1,3,2,2,3,1,1,0,0,1,1,0,0,98,98,98,,,,,,,,,,,,,,,,,,,,,,,,,,13_NF,24,F,13,2021_Nov_02_1555,Partial repeat,2021.2.3,120.10199561463384,
3,3,0,1,1,2,2,3,3,0,0,1,1,1,1,0,0,99,99,99,0,0,0,0,,,,,,,562.6934433285151,None,0.7178565650038576,563.6343081438681,None,"[87. 87. 93. 93. 93. 93. 87. 93. 87. 93. 87. 93. 93. 87. 93. 87. 93. 87.
 87. 93. 87. 93. 87. 87. 87. 93. 87. 93. 87. 93. 87. 87. 87. 93.]",564.4419321402038,None,s,1,0.5674757637298171,564.4419321402038,None,None,None,13_NF,24,F,13,2021_Nov_02_1555,Partial repeat,2021.2.3,120.10199561463384,
3,3,0,1,1,2,2,3,3,0,0,1,1,1,1,0,0,99,99,99,1,0,1,0,,,,,,,,,0.9965518839869403,565.0747095324168,None,"[93. 87. 93. 93. 87. 87. 87. 87. 93. 93. 93. 87. 87. 87. 93. 93. 93. 93.
 93. 93. 87. 93. 93. 93. 93. 87. 87. 87. 93. 93. 93. 93. 87. 87.]",566.1571141947788,None,s,1,0.5963217572207213,566.1571141947788,None,None,None,13_NF,24,F,13,2021_Nov_02_1555,Partial repeat,2021.2.3,120.10199561463384,
3,3,0,1,1,2,2,3,3,0,0,1,1,1,1,0,0,99,99,99,,,,,,,,,,,,,,,,,,,,,,,,,,13_NF,24,F,13,2021_Nov_02_1555,Partial repeat,2021.2.3,120.10199561463384,
3,3,0,1,1,2,2,2,3,0,1,1,0,0,1,0,0,100,100,100,0,0,0,0,,,,,,,566.7815733163661,None,0.8192316035735727,567.5475690778549,None,"[87. 93. 93. 87. 87. 87. 93. 87. 87. 93. 93. 93. 87. 93. 87. 93. 93. 93.
 87. 93. 87. 87. 87. 87. 93. 93. 87. 93. 87. 93. 87. 87. 93. 87.]",568.4467989234381,None,s,1,0.5306367001539911,568.4467989234381,None,None,None,13_NF,24,F,13,2021_Nov_02_1555,Partial repeat,2021.2.3,120.10199561463384,
3,3,0,1,1,2,2,2,3,0,1,1,0,0,1,0,0,100,100,100,1,0,1,0,,,,,,,,,0.923286343949124,569.0462817455373,None,"[87. 87. 87. 93. 87. 93. 87. 87. 87. 87. 93. 87. 87. 87. 87. 87. 87. 87.
 87. 93. 87. 87. 87. 87. 87. 93. 87. 87. 93. 93. 87. 87. 93. 93.]",570.0454164683615,None,l,1,0.5794225539939362,570.0454164683615,None,None,None,13_NF,24,F,13,2021_Nov_02_1555,Partial repeat,2021.2.3,120.10199561463384,
3,3,0,1,1,2,2,2,3,0,1,1,0,0,1,0,0,100,100,100,,,,,,,,,,,,,,,,,,,,,,,,,,13_NF,24,F,13,2021_Nov_02_1555,Partial repeat,2021.2.3,120.10199561463384,
3,3,0,1,1,3,2,2,2,0,1,0,1,0,1,0,0,101,101,101,0,0,0,0,,,,,,,570.644896083355,None,0.9708470571707349,571.6606853072208,None,"[93. 93. 87. 87. 87. 93. 93. 87. 87. 87. 87. 93. 87. 87. 93. 87. 87. 87.
 93. 93. 93. 87. 87. 93. 87. 93. 93. 93. 87. 93. 93. 87. 93. 87.]",572.7097784018097,None,s,1,0.5706847939145518,572.7097784018097,None,None,None,13_NF,24,F,13,2021_Nov_02_1555,Partial repeat,2021.2.3,120.10199561463384,
3,3,0,1,1,3,2,2,2,0,1,0,1,0,1,0,0,101,101,101,1,0,1,0,,,,,,,,,0.8801851975832099,573.342561566813,None,"[87. 93. 93. 87. 93. 87. 93. 87. 87. 87. 87. 87. 87. 93. 93. 93. 93. 87.
 93. 93. 87. 93. 87. 93. 87. 87. 87. 93. 93. 87. 93. 87. 87. 93.]",574.3000674133673,None,l,1,0.5643902071242337,574.3000674133673,None,None,None,13_NF,24,F,13,2021_Nov_02_1555,Partial repeat,2021.2.3,120.10199561463384,
3,3,0,1,1,3,2,2,2,0,1,0,1,0,1,0,0,101,101,101,,,,,,,,,,,,,,,,,,,,,,,,,,13_NF,24,F,13,2021_Nov_02_1555,Partial repeat,2021.2.3,120.10199561463384,
3,3,0,1,1,3,3,2,2,1,0,1,1,0,1,0,0,102,102,102,0,0,0,0,,,,,,,574.8828947722886,None,0.7452136668652108,575.5573170763,None,"[87. 93. 93. 93. 93. 87. 87. 87. 93. 93. 87. 93. 93. 87. 93. 87. 93. 93.
 93. 93. 93. 93. 87. 87. 87. 93. 93. 87. 93. 87. 93. 87. 93. 87.]",576.3816016671826,None,l,1,0.6918534248252399,576.3816016671826,None,None,None,13_NF,24,F,13,2021_Nov_02_1555,Partial repeat,2021.2.3,120.10199561463384,
3,3,0,1,1,3,3,2,2,1,0,1,1,0,1,0,0,102,102,102,1,0,1,0,,,,,,,,,0.7247752377930824,577.130954152497,None,"[87. 87. 93. 93. 93. 87. 87. 87. 87. 87. 87. 93. 93. 87. 87. 93. 87. 93.
 87. 93. 93. 87. 87. 93. 93. 87. 93. 93. 87. 87. 87. 93. 87. 93.]",577.930258274655,None,s,1,0.6462240046330407,577.930258274655,None,None,None,13_NF,24,F,13,2021_Nov_02_1555,Partial repeat,2021.2.3,120.10199561463384,
3,3,0,1,1,3,3,2,2,1,0,1,1,0,1,0,0,102,102,102,,,,,,,,,,,,,,,,,,,,,,,,,,13_NF,24,F,13,2021_Nov_02_1555,Partial repeat,2021.2.3,120.10199561463384,
3,3,0,1,1,3,3,2,3,0,1,1,0,0,1,0,0,103,103,103,0,0,0,0,,,,,,,578.6046719194783,None,0.893047165141907,579.836937585871,None,"[93. 87. 93. 87. 93. 87. 93. 87. 87. 93. 87. 87. 87. 93. 87. 93. 87. 87.
