prime_tar_pos,probe_tar_pos,dimension,tar_color,tar_shape,prime_dist_color,probe_dist_color,prime_dist_shape,probe_dist_shape,prime_tar_ori,probe_tar_ori,col_rep,shape_rep,resp_rep,pos_fixed,sparse,MainLoop.thisRepN,MainLoop.thisTrialN,MainLoop.thisN,MainLoop.thisIndex,PrimeProbe.thisRepN,PrimeProbe.thisTrialN,PrimeProbe.thisN,PrimeProbe.thisIndex,Instruction.started,Instruction.stopped,instruction_key.keys,instruction_key.rt,instruction_key.started,instruction_key.stopped,PairStartText.started,PairStartText.stopped,fixdur,FixCross.started,FixCross.stopped,dist_ori,SearchFixCross.started,SearchFixCross.stopped,key_resp.keys,key_resp.corr,key_resp.rt,key_resp.started,key_resp.stopped,feedback_text.started,feedback_text.stopped,participant,age,gender,group,date,expName,psychopyVersion,frameRate,
,,,,,,,,,,,,,,,,,,,,,,,,23.763467599888827,None,space,3.1684368775459006,23.763467599888827,None,,,,,,,,,,,,,,,,14_AE,24,F,14,2021_Nov_02_1743,Partial repeat,2021.2.3,120.10939781135042,
5,5,0,1,1,3,3,3,3,0,0,1,1,1,1,0,0,0,0,0,0,0,0,0,,,,,,,108.5157375894596,None,0.7706887640879653,116.63305641042462,None,"[93. 87. 87. 93. 93. 87. 87. 87. 87. 87. 87. 87. 87. 93. 93. 93. 93. 87.
 87. 93. 87. 93. 87. 93. 87. 93. 93. 87. 87. 87. 87. 87. 93. 87.]",117.49065288979546,None,s,1,0.7478672698780429,117.49065288979546,None,None,None,14_AE,24,F,14,2021_Nov_02_1743,Partial repeat,2021.2.3,120.10939781135042,
5,5,0,1,1,3,3,3,3,0,0,1,1,1,1,0,0,0,0,0,1,0,1,0,,,,,,,,,0.723512161638776,118.30661023015273,None,"[87. 87. 93. 93. 87. 87. 87. 87. 93. 93. 87. 93. 93. 87. 93. 93. 87. 87.
 93. 87. 87. 93. 93. 87. 87. 93. 93. 87. 93. 87. 93. 93. 87. 93.]",119.11423647146512,None,s,1,0.5976794617563428,119.11423647146512,None,None,None,14_AE,24,F,14,2021_Nov_02_1743,Partial repeat,2021.2.3,120.10939781135042,
5,5,0,1,1,3,3,3,3,0,0,1,1,1,1,0,0,0,0,0,,,,,,,,,,,,,,,,,,,,,,,,,,14_AE,24,F,14,2021_Nov_02_1743,Partial repeat,2021.2.3,120.10939781135042,
5,5,0,1,1,3,3,2,3,0,0,1,0,1,1,0,0,1,1,1,0,0,0,0,,,,,,,119.73037828455563,None,0.8472083401543269,120.67122481940532,None,"[87. 93. 87. 87. 93. 87. 87. 87. 93. 93. 87. 93. 93. 93. 93. 87. 87. 93.
 93. 87. 93. 87. 93. 93. 93. 93. 93. 87. 87. 93. 87. 93. 87. 93.]",121.6037572528694,None,s,1,0.6828682127634238,121.6037572528694,None,None,None,14_AE,24,F,14,2021_Nov_02_1743,Partial repeat,2021.2.3,120.10939781135042,
5,5,0,1,1,3,3,2,3,0,0,1,0,1,1,0,0,1,1,1,1,0,1,0,,,,,,,,,0.9112488024198825,122.3447770355815,None,"[87. 87. 87. 87. 87. 87. 93. 93. 87. 87. 93. 93. 93. 93. 93. 93. 93. 93.
 93. 93. 93. 87. 93. 87. 87. 87. 93. 93. 87. 93. 87. 87. 87. 93.]",123.34391785190383,None,s,1,0.543488993014762,123.34391785190383,None,None,None,14_AE,24,F,14,2021_Nov_02_1743,Partial repeat,2021.2.3,120.10939781135042,
5,5,0,1,1,3,3,2,3,0,0,1,0,1,1,0,0,1,1,1,,,,,,,,,,,,,,,,,,,,,,,,,,14_AE,24,F,14,2021_Nov_02_1743,Partial repeat,2021.2.3,120.10939781135042,
5,5,0,1,1,2,3,3,3,0,1,0,1,0,1,0,0,2,2,2,0,0,0,0,,,,,,,123.90176698707728,None,0.8675075963376988,124.61781014958979,None,"[93. 93. 93. 93. 87. 87. 87. 87. 87. 87. 87. 87. 93. 87. 87. 93. 93. 87.
 87. 93. 87. 87. 93. 93. 93. 87. 87. 87. 93. 93. 87. 93. 87. 93.]",125.5753208068054,None,s,1,0.5678607530353474,125.5753208068054,None,None,None,14_AE,24,F,14,2021_Nov_02_1743,Partial repeat,2021.2.3,120.10939781135042,
5,5,0,1,1,2,3,3,3,0,1,0,1,0,1,0,0,2,2,2,1,0,1,0,,,,,,,,,0.8223589261822488,126.2164369951206,None,"[87. 93. 93. 93. 93. 87. 93. 93. 87. 93. 93. 87. 87. 87. 93. 87. 87. 93.
 87. 87. 93. 93. 93. 93. 87. 93. 93. 93. 87. 93. 87. 93. 93. 87.]",127.1239809420913,None,l,1,0.4576110349444207,127.1239809420913,None,None,None,14_AE,24,F,14,2021_Nov_02_1743,Partial repeat,2021.2.3,120.10939781135042,
5,5,0,1,1,2,3,3,3,0,1,0,1,0,1,0,0,2,2,2,,,,,,,,,,,,,,,,,,,,,,,,,,14_AE,24,F,14,2021_Nov_02_1743,Partial repeat,2021.2.3,120.10939781135042,
5,5,0,1,1,2,2,3,3,0,1,1,1,0,1,0,0,3,3,3,0,0,0,0,,,,,,,127.60689476459083,None,0.8865931892517435,128.1980419976935,None,"[87. 93. 93. 93. 93. 93. 93. 93. 93. 93. 93. 93. 87. 93. 87. 93. 87. 87.
 93. 87. 87. 87. 87. 87. 87. 93. 87. 87. 87. 87. 87. 87. 87. 87.]",129.1722100423467,None,s,1,0.47337652622445603,129.1722100423467,None,None,None,14_AE,24,F,14,2021_Nov_02_1743,Partial repeat,2021.2.3,120.10939781135042,
5,5,0,1,1,2,2,3,3,0,1,1,1,0,1,0,0,3,3,3,1,0,1,0,,,,,,,,,0.8542453004388076,129.71339890368108,None,"[93. 93. 87. 87. 93. 87. 87. 87. 87. 87. 93. 93. 87. 87. 93. 93. 87. 87.
 93. 87. 87. 93. 87. 93. 87. 93. 87. 87. 93. 87. 87. 93. 87. 87.]",130.65427462319713,None,l,1,0.5757608170533786,130.65427462319713,None,None,None,14_AE,24,F,14,2021_Nov_02_1743,Partial repeat,2021.2.3,120.10939781135042,
5,5,0,1,1,2,2,3,3,0,1,1,1,0,1,0,0,3,3,3,,,,,,,,,,,,,,,,,,,,,,,,,,14_AE,24,F,14,2021_Nov_02_1743,Partial repeat,2021.2.3,120.10939781135042,
5,5,0,1,1,3,2,3,3,1,0,0,1,0,1,0,0,4,4,4,0,0,0,0,,,,,,,131.25373756123736,None,0.9686171815463154,131.936488719326,None,"[87. 87. 87. 93. 93. 87. 87. 93. 87. 93. 87. 87. 93. 93. 87. 87. 93. 87.
 87. 93. 87. 87. 93. 93. 93. 93. 93. 87. 87. 87. 87. 93. 93. 87.]",132.99392894849007,None,l,1,0.5396876103695831,132.99392894849007,None,None,None,14_AE,24,F,14,2021_Nov_02_1743,Partial repeat,2021.2.3,120.10939781135042,
5,5,0,1,1,3,2,3,3,1,0,0,1,0,1,0,0,4,4,4,1,0,1,0,,,,,,,,,0.9776571393439162,133.59338611374187,None,"[87. 93. 93. 93. 87. 93. 93. 87. 93. 93. 93. 93. 93. 87. 87. 93. 87. 87.
 87. 87. 93. 93. 87. 93. 87. 87. 87. 93. 93. 93. 87. 87. 93. 87.]",134.65912761587606,None,s,1,0.5064773871417856,134.65912761587606,None,None,None,14_AE,24,F,14,2021_Nov_02_1743,Partial repeat,2021.2.3,120.10939781135042,
5,5,0,1,1,3,2,3,3,1,0,0,1,0,1,0,0,4,4,4,,,,,,,,,,,,,,,,,,,,,,,,,,14_AE,24,F,14,2021_Nov_02_1743,Partial repeat,2021.2.3,120.10939781135042,
5,5,0,1,1,3,2,3,2,0,0,0,0,1,1,0,0,5,5,5,0,0,0,0,,,,,,,135.183670956063,None,0.970706867830749,135.7914803872627,None,"[93. 87. 87. 87. 87. 93. 87. 93. 93. 93. 87. 87. 87. 87. 93. 87. 93. 93.
 87. 93. 93. 93. 93. 93. 87. 93. 87. 87. 93. 93. 87. 87. 87. 93.]",136.84890009095398,None,s,1,0.5727227256102196,136.84890009095398,None,None,None,14_AE,24,F,14,2021_Nov_02_1743,Partial repeat,2021.2.3,120.10939781135042,
5,5,0,1,1,3,2,3,2,0,0,0,0,1,1,0,0,5,5,5,1,0,1,0,,,,,,,,,0.7235657423986616,137.49001114790008,None,"[93. 87. 87. 93. 87. 87. 87. 87. 87. 87. 93. 87. 93. 87. 93. 93. 87. 93.
 93. 93. 87. 93. 93. 87. 93. 93. 93. 93. 87. 93. 93. 93. 87. 93.]",138.2893303434539,None,s,1,0.5562975326429296,138.2893303434539,None,None,None,14_AE,24,F,14,2021_Nov_02_1743,Partial repeat,2021.2.3,120.10939781135042,
5,5,0,1,1,3,2,3,2,0,0,0,0,1,1,0,0,5,5,5,,,,,,,,,,,,,,,,,,,,,,,,,,14_AE,24,F,14,2021_Nov_02_1743,Partial repeat,2021.2.3,120.10939781135042,
5,5,0,1,1,2,2,2,2,1,0,1,1,0,1,0,0,6,6,6,0,0,0,0,,,,,,,138.85549325930333,None,0.8499328306208179,139.58818739504568,None,"[87. 93. 93. 87. 87. 93. 87. 93. 87. 93. 87. 87. 93. 93. 87. 87. 93. 93.
 87. 87. 93. 93. 87. 87. 87. 93. 93. 93. 87. 87. 93. 87. 87. 93.]",140.520722073481,None,l,1,0.6610849079334002,140.520722073481,None,None,None,14_AE,24,F,14,2021_Nov_02_1743,Partial repeat,2021.2.3,120.10939781135042,
5,5,0,1,1,2,2,2,2,1,0,1,1,0,1,0,0,6,6,6,1,0,1,0,,,,,,,,,0.7093016370820553,141.2450908829669,None,"[87. 93. 93. 93. 87. 87. 87. 93. 93. 87. 87. 87. 87. 93. 87. 87. 87. 93.
 93. 87. 93. 93. 87. 93. 93. 87. 87. 87. 93. 93. 87. 87. 93. 93.]",142.04440045720548,None,s,1,0.640303182281059,142.04440045720548,None,None,None,14_AE,24,F,14,2021_Nov_02_1743,Partial repeat,2021.2.3,120.10939781135042,
5,5,0,1,1,2,2,2,2,1,0,1,1,0,1,0,0,6,6,6,,,,,,,,,,,,,,,,,,,,,,,,,,14_AE,24,F,14,2021_Nov_02_1743,Partial repeat,2021.2.3,120.10939781135042,
5,5,0,1,1,2,3,3,2,0,0,0,0,1,1,0,0,7,7,7,0,0,0,0,,,,,,,142.70216601519496,None,0.8509445859746998,144.11759751846694,None,"[93. 93. 93. 93. 87. 87. 93. 93. 93. 87. 93. 93. 87. 93. 87. 87. 87. 93.
 93. 87. 87. 93. 93. 87. 87. 87. 87. 93. 93. 93. 87. 93. 87. 87.]",145.06677130384196,None,s,1,0.43403592003232916,145.06677130384196,None,None,None,14_AE,24,F,14,2021_Nov_02_1743,Partial repeat,2021.2.3,120.10939781135042,
5,5,0,1,1,2,3,3,2,0,0,0,0,1,1,0,0,7,7,7,1,0,1,0,,,,,,,,,0.8156318381812251,145.57470343891328,None,"[87. 87. 93. 87. 93. 87. 87. 87. 87. 93. 93. 87. 87. 87. 87. 93. 93. 87.
 93. 87. 93. 93. 87. 87. 87. 93. 93. 93. 93. 87. 93. 93. 93. 87.]",146.4906092731544,None,s,1,0.4820437299749756,146.4906092731544,None,None,None,14_AE,24,F,14,2021_Nov_02_1743,Partial repeat,2021.2.3,120.10939781135042,
5,5,0,1,1,2,3,3,2,0,0,0,0,1,1,0,0,7,7,7,,,,,,,,,,,,,,,,,,,,,,,,,,14_AE,24,F,14,2021_Nov_02_1743,Partial repeat,2021.2.3,120.10939781135042,
5,5,0,1,1,3,2,3,3,0,1,0,1,0,1,0,0,8,8,8,0,0,0,0,,,,,,,146.9984471193129,None,0.9779968026620731,147.7311470278437,None,"[87. 87. 93. 87. 93. 93. 87. 93. 93. 93. 87. 93. 93. 93. 93. 87. 93. 87.
 93. 93. 93. 87. 87. 93. 93. 93. 87. 93. 87. 87. 93. 93. 87. 87.]",148.80527158414407,None,s,1,0.4714359064346354,148.80527158414407,None,None,None,14_AE,24,F,14,2021_Nov_02_1743,Partial repeat,2021.2.3,120.10939781135042,
5,5,0,1,1,3,2,3,3,0,1,0,1,0,1,0,0,8,8,8,1,0,1,0,,,,,,,,,0.7404339535031725,149.34642484660435,None,"[93. 87. 93. 93. 87. 87. 93. 93. 87. 93. 93. 93. 87. 93. 87. 87. 93. 93.
 93. 93. 93. 93. 87. 93. 87. 93. 93. 87. 87. 87. 87. 93. 93. 93.]",150.17904598861423,None,l,1,0.6176619766119984,150.17904598861423,None,None,None,14_AE,24,F,14,2021_Nov_02_1743,Partial repeat,2021.2.3,120.10939781135042,
5,5,0,1,1,3,2,3,3,0,1,0,1,0,1,0,0,8,8,8,,,,,,,,,,,,,,,,,,,,,,,,,,14_AE,24,F,14,2021_Nov_02_1743,Partial repeat,2021.2.3,120.10939781135042,
5,5,0,1,1,3,3,2,2,1,0,1,1,0,1,0,0,9,9,9,0,0,0,0,,,,,,,150.82848846532215,None,0.7638460173509933,153.0099057880543,None,"[93. 93. 93. 87. 87. 93. 87. 87. 93. 87. 93. 87. 93. 87. 93. 93. 93. 87.
 93. 93. 93. 93. 87. 93. 93. 87. 93. 93. 87. 93. 93. 93. 93. 87.]",153.85915801924057,None,l,1,0.5535336487591849,153.85915801924057,None,None,None,14_AE,24,F,14,2021_Nov_02_1743,Partial repeat,2021.2.3,120.10939781135042,
5,5,0,1,1,3,3,2,2,1,0,1,1,0,1,0,0,9,9,9,1,0,1,0,,,,,,,,,0.9207117668590957,154.48364183554077,None,"[93. 87. 93. 87. 93. 93. 87. 93. 87. 87. 87. 87. 87. 87. 93. 87. 87. 93.
 93. 93. 93. 87. 93. 87. 93. 93. 87. 93. 87. 87. 87. 93. 93. 87.]",155.49110733670386,None,s,1,0.5216267933792551,155.49110733670386,None,None,None,14_AE,24,F,14,2021_Nov_02_1743,Partial repeat,2021.2.3,120.10939781135042,
5,5,0,1,1,3,3,2,2,1,0,1,1,0,1,0,0,9,9,9,,,,,,,,,,,,,,,,,,,,,,,,,,14_AE,24,F,14,2021_Nov_02_1743,Partial repeat,2021.2.3,120.10939781135042,
5,5,0,1,1,2,3,2,3,0,1,0,0,0,1,0,0,10,10,10,0,0,0,0,,,,,,,156.03230229153996,None,0.7498658426712891,157.0564155588254,None,"[93. 87. 87. 87. 87. 87. 87. 87. 87. 87. 93. 93. 87. 87. 87. 93. 93. 87.
 93. 93. 87. 93. 87. 87. 93. 87. 93. 87. 93. 87. 93. 93. 87. 93.]",157.8890325315988,None,s,1,0.5547452933751629,157.8890325315988,None,None,None,14_AE,24,F,14,2021_Nov_02_1743,Partial repeat,2021.2.3,120.10939781135042,
5,5,0,1,1,2,3,2,3,0,1,0,0,0,1,0,0,10,10,10,1,0,1,0,,,,,,,,,0.7789959566087367,158.50514997068603,None,"[93. 87. 93. 93. 87. 87. 87. 87. 93. 87. 93. 93. 87. 87. 93. 93. 87. 93.
 93. 87. 87. 87. 93. 93. 93. 93. 87. 93. 93. 87. 93. 93. 87. 93.]",159.3710749834172,None,l,1,0.6897519449121319,159.3710749834172,None,None,None,14_AE,24,F,14,2021_Nov_02_1743,Partial repeat,2021.2.3,120.10939781135042,
5,5,0,1,1,2,3,2,3,0,1,0,0,0,1,0,0,10,10,10,,,,,,,,,,,,,,,,,,,,,,,,,,14_AE,24,F,14,2021_Nov_02_1743,Partial repeat,2021.2.3,120.10939781135042,
5,5,0,1,1,3,3,3,3,0,1,1,1,0,1,0,0,11,11,11,0,0,0,0,,,,,,,160.07880404454409,None,0.8599135457065435,161.29440494715163,None,"[93. 93. 93. 93. 87. 93. 87. 87. 93. 87. 93. 93. 87. 93. 87. 87. 87. 93.
 93. 93. 93. 93. 93. 93. 87. 93. 93. 87. 93. 93. 87. 87. 93. 87.]",162.24358514673804,None,s,1,0.42420902677986305,162.24358514673804,None,None,None,14_AE,24,F,14,2021_Nov_02_1743,Partial repeat,2021.2.3,120.10939781135042,
5,5,0,1,1,3,3,3,3,0,1,1,1,0,1,0,0,11,11,11,1,0,1,0,,,,,,,,,0.8216572885480954,162.73483103041508,None,"[93. 87. 87. 87. 93. 93. 87. 93. 93. 93. 93. 93. 87. 87. 87. 87. 93. 93.
 93. 93. 87. 87. 93. 93. 87. 87. 87. 93. 93. 93. 93. 87. 93. 93.]",163.6340509339716,None,l,1,0.7777142011291289,163.6340509339716,None,None,None,14_AE,24,F,14,2021_Nov_02_1743,Partial repeat,2021.2.3,120.10939781135042,
5,5,0,1,1,3,3,3,3,0,1,1,1,0,1,0,0,11,11,11,,,,,,,,,,,,,,,,,,,,,,,,,,14_AE,24,F,14,2021_Nov_02_1743,Partial repeat,2021.2.3,120.10939781135042,
5,5,0,1,1,2,2,2,3,0,0,1,0,1,1,0,0,12,12,12,0,0,0,0,,,,,,,164.4416903244164,None,0.7386853396946511,165.29926980612436,None,"[93. 93. 87. 87. 87. 87. 93. 87. 93. 93. 87. 93. 87. 93. 87. 87. 87. 93.
 93. 93. 93. 87. 93. 93. 93. 87. 87. 93. 93. 93. 93. 87. 87. 87.]",166.12356433903187,None,s,1,0.6562726455013035,166.12356433903187,None,None,None,14_AE,24,F,14,2021_Nov_02_1743,Partial repeat,2021.2.3,120.10939781135042,
5,5,0,1,1,2,2,2,3,0,0,1,0,1,1,0,0,12,12,12,1,0,1,0,,,,,,,,,0.8305774774793027,166.84793795917722,None,"[93. 87. 93. 87. 87. 93. 87. 93. 93. 87. 93. 93. 87. 93. 93. 93. 87. 87.
 87. 87. 87. 93. 93. 93. 93. 87. 93. 93. 87. 93. 87. 87. 87. 93.]",167.76382743717477,None,s,1,0.5360113048518542,167.76382743717477,None,None,None,14_AE,24,F,14,2021_Nov_02_1743,Partial repeat,2021.2.3,120.10939781135042,
5,5,0,1,1,2,2,2,3,0,0,1,0,1,1,0,0,12,12,12,,,,,,,,,,,,,,,,,,,,,,,,,,14_AE,24,F,14,2021_Nov_02_1743,Partial repeat,2021.2.3,120.10939781135042,
5,5,0,1,1,2,2,3,2,0,1,1,0,0,1,0,0,13,13,13,0,0,0,0,,,,,,,168.321644180578,None,0.911157704151353,169.6621634623407,None,"[93. 87. 93. 87. 93. 87. 93. 93. 93. 87. 87. 87. 87. 87. 87. 87. 87. 87.
 93. 87. 93. 87. 93. 93. 87. 87. 87. 93. 93. 87. 93. 93. 87. 87.]",170.66130459937267,None,s,1,0.6785536931711249,170.66130459937267,None,None,None,14_AE,24,F,14,2021_Nov_02_1743,Partial repeat,2021.2.3,120.10939781135042,
5,5,0,1,1,2,2,3,2,0,1,1,0,0,1,0,0,13,13,13,1,0,1,0,,,,,,,,,0.9332803673540107,171.402333682694,None,"[87. 93. 87. 87. 87. 93. 87. 87. 93. 93. 87. 87. 87. 87. 87. 87. 93. 87.
 93. 87. 93. 93. 93. 87. 87. 87. 87. 87. 87. 87. 87. 93. 93. 93.]",172.4181187373215,None,l,1,0.6818499566361425,172.4181187373215,None,None,None,14_AE,24,F,14,2021_Nov_02_1743,Partial repeat,2021.2.3,120.10939781135042,
5,5,0,1,1,2,2,3,2,0,1,1,0,0,1,0,0,13,13,13,,,,,,,,,,,,,,,,,,,,,,,,,,14_AE,24,F,14,2021_Nov_02_1743,Partial repeat,2021.2.3,120.10939781135042,
5,5,0,1,1,3,3,2,2,1,1,1,1,1,1,0,0,14,14,14,0,0,0,0,,,,,,,173.10918944887817,None,0.9716015085854961,175.24900066579357,None,"[93. 93. 87. 93. 87. 87. 93. 87. 87. 93. 93. 87. 87. 87. 87. 87. 93. 87.
 87. 93. 87. 87. 87. 87. 93. 87. 87. 87. 93. 87. 93. 93. 87. 87.]",176.30642101090416,None,l,1,0.5534201172085886,176.30642101090416,None,None,None,14_AE,24,F,14,2021_Nov_02_1743,Partial repeat,2021.2.3,120.10939781135042,
5,5,0,1,1,3,3,2,2,1,1,1,1,1,1,0,0,14,14,14,1,0,1,0,,,,,,,,,0.8761640986101531,176.92257116247129,None,"[87. 93. 93. 87. 87. 93. 93. 93. 87. 87. 87. 93. 87. 93. 87. 93. 93. 87.
 93. 87. 93. 87. 87. 87. 93. 87. 87. 93. 87. 87. 93. 87. 87. 93.]",177.8883805269652,None,l,1,0.7145537778378639,177.8883805269652,None,None,None,14_AE,24,F,14,2021_Nov_02_1743,Partial repeat,2021.2.3,120.10939781135042,
5,5,0,1,1,3,3,2,2,1,1,1,1,1,1,0,0,14,14,14,,,,,,,,,,,,,,,,,,,,,,,,,,14_AE,24,F,14,2021_Nov_02_1743,Partial repeat,2021.2.3,120.10939781135042,
5,5,0,1,1,3,2,2,2,0,0,0,1,1,1,0,0,15,15,15,0,0,0,0,,,,,,,178.62940672388868,None,0.7805017271939092,179.8117210741475,None,"[87. 87. 87. 87. 93. 87. 87. 93. 87. 93. 87. 93. 93. 87. 93. 93. 87. 87.
 87. 93. 93. 87. 87. 93. 87. 87. 87. 87. 93. 87. 87. 93. 87. 87.]",180.67763293774624,None,s,1,0.5972647829585185,180.67763293774624,None,None,None,14_AE,24,F,14,2021_Nov_02_1743,Partial repeat,2021.2.3,120.10939781135042,
5,5,0,1,1,3,2,2,2,0,0,0,1,1,1,0,0,15,15,15,1,0,1,0,,,,,,,,,0.7976601542168853,181.3437209356016,None,"[93. 93. 87. 87. 93. 93. 87. 87. 93. 93. 93. 93. 87. 93. 93. 93. 93. 93.
 87. 93. 87. 87. 87. 93. 93. 93. 87. 93. 93. 87. 93. 87. 87. 93.]",182.22629756298193,None,s,1,0.9051466306118527,182.22629756298193,None,None,None,14_AE,24,F,14,2021_Nov_02_1743,Partial repeat,2021.2.3,120.10939781135042,
5,5,0,1,1,3,2,2,2,0,0,0,1,1,1,0,0,15,15,15,,,,,,,,,,,,,,,,,,,,,,,,,,14_AE,24,F,14,2021_Nov_02_1743,Partial repeat,2021.2.3,120.10939781135042,
5,5,0,1,1,3,2,3,3,0,0,0,1,1,1,0,0,16,16,16,0,0,0,0,,,,,,,183.15049472815735,None,0.9393055632925125,183.90817606754717,None,"[87. 87. 87. 93. 93. 87. 93. 93. 87. 93. 93. 87. 93. 93. 87. 93. 87. 87.
 87. 87. 87. 93. 93. 93. 93. 93. 87. 93. 87. 93. 93. 93. 87. 93.]",184.93228805199033,None,s,1,0.5186361671076156,184.93228805199033,None,None,None,14_AE,24,F,14,2021_Nov_02_1743,Partial repeat,2021.2.3,120.10939781135042,
5,5,0,1,1,3,2,3,3,0,0,0,1,1,1,0,0,16,16,16,1,0,1,0,,,,,,,,,0.9635282291590529,185.5234468306735,None,"[87. 93. 87. 93. 93. 87. 93. 87. 87. 87. 93. 93. 93. 87. 87. 87. 93. 93.
 93. 93. 93. 93. 93. 87. 87. 87. 93. 87. 87. 87. 87. 87. 93. 87.]",186.57253639744522,None,l,0,0.590416008268221,186.57253639744522,None,187.1720160124387,None,14_AE,24,F,14,2021_Nov_02_1743,Partial repeat,2021.2.3,120.10939781135042,
5,5,0,1,1,3,2,3,3,0,0,0,1,1,1,0,0,16,16,16,,,,,,,,,,,,,,,,,,,,,,,,,,14_AE,24,F,14,2021_Nov_02_1743,Partial repeat,2021.2.3,120.10939781135042,
5,5,0,1,1,2,2,2,2,0,0,1,1,1,1,0,0,17,17,17,0,0,0,0,,,,,,,187.67158369455865,None,0.8118329850921844,188.59577829404952,None,"[87. 87. 87. 93. 87. 87. 87. 93. 87. 93. 93. 93. 93. 93. 93. 87. 87. 87.
 87. 87. 87. 87. 87. 87. 93. 93. 93. 87. 93. 93. 93. 87. 87. 87.]",189.49500621536936,None,s,1,0.45215254066715715,189.49500621536936,None,None,None,14_AE,24,F,14,2021_Nov_02_1743,Partial repeat,2021.2.3,120.10939781135042,
5,5,0,1,1,2,2,2,2,0,0,1,1,1,1,0,0,17,17,17,1,0,1,0,,,,,,,,,0.9526079868874948,190.0112216636153,None,"[87. 93. 93. 93. 93. 87. 93. 93. 93. 87. 93. 87. 93. 87. 87. 87. 87. 93.
 87. 93. 93. 87. 87. 87. 87. 87. 87. 93. 87. 93. 93. 93. 87. 87.]",191.06034330144394,None,s,1,0.48668377082503866,191.06034330144394,None,None,None,14_AE,24,F,14,2021_Nov_02_1743,Partial repeat,2021.2.3,120.10939781135042,
5,5,0,1,1,2,2,2,2,0,0,1,1,1,1,0,0,17,17,17,,,,,,,,,,,,,,,,,,,,,,,,,,14_AE,24,F,14,2021_Nov_02_1743,Partial repeat,2021.2.3,120.10939781135042,
5,5,0,1,1,2,3,3,3,0,0,0,1,1,1,0,0,18,18,18,0,0,0,0,,,,,,,191.57655458045338,None,0.8947701939008266,192.3258865402895,None,"[93. 87. 87. 87. 93. 93. 87. 87. 87. 87. 87. 93. 87. 93. 93. 87. 87. 93.
 87. 93. 93. 87. 93. 87. 93. 87. 87. 87. 87. 87. 93. 87. 87. 93.]",193.32504146787687,None,s,1,0.47695405288322945,193.32504146787687,None,None,None,14_AE,24,F,14,2021_Nov_02_1743,Partial repeat,2021.2.3,120.10939781135042,
5,5,0,1,1,2,3,3,3,0,0,0,1,1,1,0,0,18,18,18,1,0,1,0,,,,,,,,,0.8497895895158039,193.8662595138776,None,"[93. 93. 93. 93. 87. 93. 87. 93. 87. 93. 93. 93. 93. 93. 93. 87. 87. 93.
 87. 87. 87. 87. 87. 87. 87. 87. 87. 87. 93. 87. 93. 87. 87. 93.]",194.79874993425256,None,l,0,0.731205392490665,194.79874993425256,None,195.5397745276241,None,14_AE,24,F,14,2021_Nov_02_1743,Partial repeat,2021.2.3,120.10939781135042,
5,5,0,1,1,2,3,3,3,0,0,0,1,1,1,0,0,18,18,18,,,,,,,,,,,,,,,,,,,,,,,,,,14_AE,24,F,14,2021_Nov_02_1743,Partial repeat,2021.2.3,120.10939781135042,
5,5,0,1,1,2,2,3,2,1,1,1,0,1,1,0,0,19,19,19,0,0,0,0,,,,,,,196.03935728314536,None,0.7417675471179859,196.69713182103078,None,"[93. 87. 87. 87. 87. 87. 93. 87. 87. 93. 93. 93. 87. 87. 87. 87. 87. 87.
 93. 87. 93. 87. 93. 93. 93. 93. 93. 87. 87. 87. 93. 87. 87. 87.]",197.52137696451246,None,l,1,0.5206309869863617,197.52137696451246,None,None,None,14_AE,24,F,14,2021_Nov_02_1743,Partial repeat,2021.2.3,120.10939781135042,
5,5,0,1,1,2,2,3,2,1,1,1,0,1,1,0,0,19,19,19,1,0,1,0,,,,,,,,,0.7411992486737567,198.09593448010855,None,"[87. 93. 93. 93. 87. 93. 87. 93. 93. 93. 87. 87. 93. 87. 87. 93. 93. 93.
 87. 87. 93. 93. 87. 87. 87. 93. 87. 93. 93. 93. 93. 87. 93. 93.]",198.93686427142893,None,l,1,0.6413057235913584,198.93686427142893,None,None,None,14_AE,24,F,14,2021_Nov_02_1743,Partial repeat,2021.2.3,120.10939781135042,
5,5,0,1,1,2,2,3,2,1,1,1,0,1,1,0,0,19,19,19,,,,,,,,,,,,,,,,,,,,,,,,,,14_AE,24,F,14,2021_Nov_02_1743,Partial repeat,2021.2.3,120.10939781135042,
5,5,0,1,1,2,3,3,2,0,1,0,0,0,1,0,0,20,20,20,0,0,0,0,,,,,,,199.59460032404604,None,0.7307727003718683,200.31897554773968,None,"[87. 93. 87. 87. 93. 87. 93. 87. 93. 93. 87. 93. 93. 93. 93. 87. 93. 87.
 87. 93. 87. 87. 93. 87. 93. 87. 87. 87. 93. 87. 87. 87. 87. 93.]",201.1349213425201,None,s,1,0.4270633510495827,201.1349213425201,None,None,None,14_AE,24,F,14,2021_Nov_02_1743,Partial repeat,2021.2.3,120.10939781135042,
5,5,0,1,1,2,3,3,2,0,1,0,0,0,1,0,0,20,20,20,1,0,1,0,,,,,,,,,0.7828850296426741,201.62617588538342,None,"[87. 87. 93. 87. 93. 93. 87. 87. 93. 93. 87. 93. 93. 87. 87. 87. 93. 87.
 93. 87. 87. 93. 87. 87. 93. 93. 87. 87. 93. 93. 87. 93. 87. 93.]",202.49206914776732,None,l,1,0.7019668492321216,202.49206914776732,None,None,None,14_AE,24,F,14,2021_Nov_02_1743,Partial repeat,2021.2.3,120.10939781135042,
5,5,0,1,1,2,3,3,2,0,1,0,0,0,1,0,0,20,20,20,,,,,,,,,,,,,,,,,,,,,,,,,,14_AE,24,F,14,2021_Nov_02_1743,Partial repeat,2021.2.3,120.10939781135042,
5,5,0,1,1,3,3,2,3,0,1,1,0,0,1,0,0,21,21,21,0,0,0,0,,,,,,,203.21647548039255,None,0.7951707469084007,204.03242448227684,None,"[87. 87. 93. 87. 87. 87. 87. 93. 87. 87. 93. 87. 93. 93. 93. 93. 87. 93.
 93. 93. 93. 87. 87. 93. 93. 93. 87. 93. 93. 93. 87. 87. 87. 93.]",204.9149953368651,None,s,1,0.5821051139828342,204.9149953368651,None,None,None,14_AE,24,F,14,2021_Nov_02_1743,Partial repeat,2021.2.3,120.10939781135042,
5,5,0,1,1,3,3,2,3,0,1,1,0,0,1,0,0,21,21,21,1,0,1,0,,,,,,,,,0.9701287411230917,205.55610639381484,None,"[93. 93. 93. 87. 93. 93. 93. 87. 87. 87. 87. 93. 93. 93. 93. 93. 93. 93.
 87. 87. 87. 87. 93. 93. 93. 87. 93. 93. 87. 87. 87. 93. 87. 87.]",206.6135248146602,None,l,1,0.7555816424574004,206.6135248146602,None,None,None,14_AE,24,F,14,2021_Nov_02_1743,Partial repeat,2021.2.3,120.10939781135042,
5,5,0,1,1,3,3,2,3,0,1,1,0,0,1,0,0,21,21,21,,,,,,,,,,,,,,,,,,,,,,,,,,14_AE,24,F,14,2021_Nov_02_1743,Partial repeat,2021.2.3,120.10939781135042,
5,5,0,1,1,3,2,3,2,1,0,0,0,0,1,0,0,22,22,22,0,0,0,0,,,,,,,207.39618084998438,None,0.7872838241014937,207.90406840628566,None,"[87. 93. 93. 87. 93. 93. 93. 87. 87. 87. 93. 93. 87. 87. 87. 87. 93. 87.
 87. 93. 87. 93. 93. 93. 87. 93. 87. 87. 93. 87. 93. 93. 87. 93.]",208.76999534328206,None,l,1,0.7110984419196029,208.76999534328206,None,None,None,14_AE,24,F,14,2021_Nov_02_1743,Partial repeat,2021.2.3,120.10939781135042,
5,5,0,1,1,3,2,3,2,1,0,0,0,0,1,0,0,22,22,22,1,0,1,0,,,,,,,,,0.7776329259586882,209.54431771386953,None,"[93. 93. 87. 93. 93. 93. 87. 93. 93. 87. 87. 87. 93. 93. 87. 87. 87. 93.
 87. 93. 93. 93. 93. 87. 87. 87. 87. 87. 93. 87. 93. 87. 87. 87.]",210.41023919878717,None,s,1,1.086850347903237,210.41023919878717,None,None,None,14_AE,24,F,14,2021_Nov_02_1743,Partial repeat,2021.2.3,120.10939781135042,
5,5,0,1,1,3,2,3,2,1,0,0,0,0,1,0,0,22,22,22,,,,,,,,,,,,,,,,,,,,,,,,,,14_AE,24,F,14,2021_Nov_02_1743,Partial repeat,2021.2.3,120.10939781135042,
5,5,0,1,1,2,2,3,2,0,0,1,0,1,1,0,0,23,23,23,0,0,0,0,,,,,,,211.5259422797899,None,0.7501243996178514,213.12455084481553,None,"[93. 93. 87. 87. 93. 87. 87. 93. 93. 87. 93. 93. 87. 87. 93. 93. 93. 87.
 87. 93. 87. 87. 93. 93. 93. 87. 87. 93. 93. 93. 93. 93. 93. 87.]",213.9571828909866,None,s,1,0.7879111943984753,213.9571828909866,None,None,None,14_AE,24,F,14,2021_Nov_02_1743,Partial repeat,2021.2.3,120.10939781135042,
5,5,0,1,1,2,2,3,2,0,0,1,0,1,1,0,0,23,23,23,1,0,1,0,,,,,,,,,0.8581261780456286,214.80642902866748,None,"[87. 93. 93. 87. 87. 93. 93. 87. 93. 93. 87. 93. 93. 93. 87. 87. 93. 87.
 87. 93. 93. 93. 93. 87. 87. 93. 93. 93. 87. 87. 93. 93. 87. 93.]",215.7472871091013,None,s,1,0.5815358526815544,215.7472871091013,None,None,None,14_AE,24,F,14,2021_Nov_02_1743,Partial repeat,2021.2.3,120.10939781135042,
5,5,0,1,1,2,2,3,2,0,0,1,0,1,1,0,0,23,23,23,,,,,,,,,,,,,,,,,,,,,,,,,,14_AE,24,F,14,2021_Nov_02_1743,Partial repeat,2021.2.3,120.10939781135042,
5,5,0,1,1,2,2,2,2,1,1,1,1,1,1,0,0,24,24,24,0,0,0,0,,,,,,,216.35509461603942,None,0.7592213452917083,217.10444678064232,None,"[93. 93. 93. 93. 87. 87. 93. 87. 93. 93. 87. 93. 93. 93. 87. 93. 93. 93.
 87. 93. 87. 87. 87. 87. 93. 93. 93. 87. 87. 93. 93. 87. 87. 87.]",217.95371761303977,None,l,1,0.5838844163517933,217.95371761303977,None,None,None,14_AE,24,F,14,2021_Nov_02_1743,Partial repeat,2021.2.3,120.10939781135042,
5,5,0,1,1,2,2,2,2,1,1,1,1,1,1,0,0,24,24,24,1,0,1,0,,,,,,,,,0.8359161223216952,218.6114680976316,None,"[93. 93. 87. 87. 87. 87. 87. 87. 87. 87. 87. 87. 87. 93. 93. 87. 93. 87.
 93. 87. 87. 93. 87. 93. 87. 93. 87. 87. 87. 87. 87. 87. 93. 93.]",219.53567969478536,None,l,1,0.6805119520467997,219.53567969478536,None,None,None,14_AE,24,F,14,2021_Nov_02_1743,Partial repeat,2021.2.3,120.10939781135042,
5,5,0,1,1,2,2,2,2,1,1,1,1,1,1,0,0,24,24,24,,,,,,,,,,,,,,,,,,,,,,,,,,14_AE,24,F,14,2021_Nov_02_1743,Partial repeat,2021.2.3,120.10939781135042,
5,5,0,1,1,3,3,3,3,1,1,1,1,1,1,0,0,25,25,25,0,0,0,0,,,,,,,220.24339785175107,None,0.8709801025512134,220.99274360214258,None,"[93. 87. 93. 93. 87. 87. 87. 93. 87. 93. 87. 87. 93. 87. 93. 87. 87. 93.
 87. 87. 87. 87. 93. 93. 87. 93. 87. 93. 87. 93. 87. 87. 93. 93.]",221.9502539386449,None,l,1,0.4899280791723868,221.9502539386449,None,None,None,14_AE,24,F,14,2021_Nov_02_1743,Partial repeat,2021.2.3,120.10939781135042,
5,5,0,1,1,3,3,3,3,1,1,1,1,1,1,0,0,25,25,25,1,0,1,0,,,,,,,,,0.7613229336294861,222.4997722954795,None,"[87. 87. 87. 93. 93. 87. 93. 87. 93. 93. 87. 87. 87. 93. 93. 87. 87. 93.
 93. 87. 93. 93. 93. 93. 87. 93. 93. 93. 93. 93. 93. 87. 87. 87.]",223.34072100872436,None,l,1,0.5394643957988592,223.34072100872436,None,None,None,14_AE,24,F,14,2021_Nov_02_1743,Partial repeat,2021.2.3,120.10939781135042,
5,5,0,1,1,3,3,3,3,1,1,1,1,1,1,0,0,25,25,25,,,,,,,,,,,,,,,,,,,,,,,,,,14_AE,24,F,14,2021_Nov_02_1743,Partial repeat,2021.2.3,120.10939781135042,
5,5,0,1,1,3,3,3,2,0,0,1,0,1,1,0,0,26,26,26,0,0,0,0,,,,,,,223.90689098020448,None,0.8246324439908344,224.60628765944057,None,"[93. 87. 87. 87. 93. 93. 93. 87. 93. 93. 93. 93. 93. 87. 93. 93. 93. 87.
 93. 87. 87. 93. 93. 87. 87. 87. 93. 93. 87. 93. 93. 87. 93. 87.]",225.5138418691531,None,s,1,0.46234728896524757,225.5138418691531,None,None,None,14_AE,24,F,14,2021_Nov_02_1743,Partial repeat,2021.2.3,120.10939781135042,
5,5,0,1,1,3,3,3,2,0,0,1,0,1,1,0,0,26,26,26,1,0,1,0,,,,,,,,,0.7312587679560136,226.03838328507481,None,"[93. 93. 93. 87. 93. 87. 93. 93. 93. 93. 87. 87. 93. 93. 87. 87. 87. 93.
 87. 93. 93. 87. 87. 93. 87. 87. 93. 87. 87. 87. 93. 93. 93. 93.]",226.8543637165967,None,s,1,0.6098504287256219,226.8543637165967,None,None,None,14_AE,24,F,14,2021_Nov_02_1743,Partial repeat,2021.2.3,120.10939781135042,
5,5,0,1,1,3,3,3,2,0,0,1,0,1,1,0,0,26,26,26,,,,,,,,,,,,,,,,,,,,,,,,,,14_AE,24,F,14,2021_Nov_02_1743,Partial repeat,2021.2.3,120.10939781135042,
5,5,0,1,1,2,3,2,2,0,0,0,1,1,1,0,0,27,27,27,0,0,0,0,,,,,,,227.49545970014879,None,0.7401581962703241,228.36970554919026,None,"[93. 87. 93. 93. 93. 93. 87. 87. 93. 93. 93. 93. 93. 87. 87. 93. 93. 87.
 87. 87. 93. 87. 93. 87. 87. 93. 87. 87. 87. 87. 93. 93. 87. 87.]",229.19398597083637,None,s,1,0.5102354738592112,229.19398597083637,None,None,None,14_AE,24,F,14,2021_Nov_02_1743,Partial repeat,2021.2.3,120.10939781135042,
5,5,0,1,1,2,3,2,2,0,0,0,1,1,1,0,0,27,27,27,1,0,1,0,,,,,,,,,0.7667972980892681,229.7684892863399,None,"[93. 93. 87. 87. 87. 93. 87. 93. 87. 93. 93. 87. 93. 93. 93. 93. 93. 87.
 93. 87. 87. 93. 87. 93. 87. 87. 87. 93. 93. 93. 87. 87. 93. 87.]",230.6094283782695,None,s,1,0.6947996089220396,230.6094283782695,None,None,None,14_AE,24,F,14,2021_Nov_02_1743,Partial repeat,2021.2.3,120.10939781135042,
5,5,0,1,1,2,3,2,2,0,0,0,1,1,1,0,0,27,27,27,,,,,,,,,,,,,,,,,,,,,,,,,,14_AE,24,F,14,2021_Nov_02_1743,Partial repeat,2021.2.3,120.10939781135042,
5,5,0,1,1,2,3,2,3,0,0,0,0,1,1,0,0,28,28,28,0,0,0,0,,,,,,,231.31714589381227,None,0.8356729514519269,232.07481761188683,None,"[93. 93. 93. 87. 87. 93. 93. 87. 93. 93. 93. 87. 93. 93. 93. 93. 93. 87.
 93. 87. 87. 87. 87. 87. 93. 87. 93. 93. 87. 87. 93. 87. 87. 87.]",232.99902824690434,None,s,1,0.6898096728218661,232.99902824690434,None,None,None,14_AE,24,F,14,2021_Nov_02_1743,Partial repeat,2021.2.3,120.10939781135042,
5,5,0,1,1,2,3,2,3,0,0,0,0,1,1,0,0,28,28,28,1,0,1,0,,,,,,,,,0.966168624821321,233.75669547502912,None,"[87. 93. 93. 93. 87. 93. 93. 93. 93. 87. 87. 87. 93. 87. 93. 93. 93. 87.
 93. 87. 87. 93. 87. 87. 93. 87. 93. 87. 87. 87. 87. 93. 87. 93.]",234.80579658738134,None,s,1,0.5304668601384037,234.80579658738134,None,None,None,14_AE,24,F,14,2021_Nov_02_1743,Partial repeat,2021.2.3,120.10939781135042,
5,5,0,1,1,2,3,2,3,0,0,0,0,1,1,0,0,28,28,28,,,,,,,,,,,,,,,,,,,,,,,,,,14_AE,24,F,14,2021_Nov_02_1743,Partial repeat,2021.2.3,120.10939781135042,
5,5,0,1,1,3,2,2,2,1,1,0,1,1,1,0,0,29,29,29,0,0,0,0,,,,,,,235.35532681050609,None,0.9967456982788758,236.12964533257036,None,"[87. 93. 87. 87. 87. 93. 93. 87. 93. 93. 87. 87. 87. 93. 93. 93. 93. 93.
 93. 87. 87. 93. 93. 93. 87. 93. 87. 93. 93. 93. 87. 93. 93. 93.]",237.2120490328016,None,l,1,0.6032383384444984,237.2120490328016,None,None,None,14_AE,24,F,14,2021_Nov_02_1743,Partial repeat,2021.2.3,120.10939781135042,
5,5,0,1,1,3,2,2,2,1,1,0,1,1,1,0,0,29,29,29,1,0,1,0,,,,,,,,,0.8238213764291914,237.88646299833636,None,"[87. 93. 87. 93. 93. 87. 87. 93. 87. 87. 93. 93. 93. 93. 87. 87. 87. 93.
 93. 93. 93. 87. 87. 87. 93. 93. 87. 93. 93. 93. 93. 87. 87. 87.]",238.8023736432333,None,l,1,0.6939606300147716,238.8023736432333,None,None,None,14_AE,24,F,14,2021_Nov_02_1743,Partial repeat,2021.2.3,120.10939781135042,
5,5,0,1,1,3,2,2,2,1,1,0,1,1,1,0,0,29,29,29,,,,,,,,,,,,,,,,,,,,,,,,,,14_AE,24,F,14,2021_Nov_02_1743,Partial repeat,2021.2.3,120.10939781135042,
5,5,0,1,1,3,3,3,2,1,1,1,0,1,1,0,0,30,30,30,0,0,0,0,,,,,,,239.5184190507207,None,0.8740577878903589,240.19279517240648,None,"[87. 93. 93. 93. 87. 87. 87. 93. 87. 93. 87. 87. 87. 93. 87. 87. 87. 87.
 93. 87. 87. 87. 93. 87. 87. 87. 87. 93. 93. 87. 87. 93. 87. 93.]",241.15864526714358,None,l,1,0.49664472109725466,241.15864526714358,None,None,None,14_AE,24,F,14,2021_Nov_02_1743,Partial repeat,2021.2.3,120.10939781135042,
5,5,0,1,1,3,3,3,2,1,1,1,0,1,1,0,0,30,30,30,1,0,1,0,,,,,,,,,0.734419439629054,241.7165187763203,None,"[93. 87. 93. 87. 93. 87. 93. 87. 87. 87. 93. 87. 93. 87. 93. 87. 87. 87.
 87. 87. 93. 93. 93. 87. 93. 87. 93. 87. 93. 87. 93. 93. 87. 87.]",242.54908828392945,None,l,1,0.9472636284008331,242.54908828392945,None,None,None,14_AE,24,F,14,2021_Nov_02_1743,Partial repeat,2021.2.3,120.10939781135042,
5,5,0,1,1,3,3,3,2,1,1,1,0,1,1,0,0,30,30,30,,,,,,,,,,,,,,,,,,,,,,,,,,14_AE,24,F,14,2021_Nov_02_1743,Partial repeat,2021.2.3,120.10939781135042,
5,5,0,1,1,3,2,2,2,0,1,0,1,0,1,0,0,31,31,31,0,0,0,0,,,,,,,243.5149252295305,None,0.943021989318523,244.95534072934606,None,"[87. 87. 93. 93. 87. 93. 87. 87. 87. 87. 87. 93. 93. 87. 87. 87. 93. 87.
 87. 87. 87. 93. 93. 93. 93. 93. 87. 93. 87. 87. 93. 87. 93. 93.]",245.98780016907767,None,s,1,0.563514483095787,245.98780016907767,None,None,None,14_AE,24,F,14,2021_Nov_02_1743,Partial repeat,2021.2.3,120.10939781135042,
5,5,0,1,1,3,2,2,2,0,1,0,1,0,1,0,0,31,31,31,1,0,1,0,,,,,,,,,0.7310698545966585,246.61224614152889,None,"[87. 87. 93. 87. 87. 93. 87. 87. 93. 93. 93. 87. 87. 93. 87. 87. 87. 93.
 87. 93. 93. 93. 93. 93. 87. 93. 93. 87. 87. 87. 87. 87. 87. 87.]",247.44489614749546,None,l,1,0.6904206264989625,247.44489614749546,None,None,None,14_AE,24,F,14,2021_Nov_02_1743,Partial repeat,2021.2.3,120.10939781135042,
5,5,0,1,1,3,2,2,2,0,1,0,1,0,1,0,0,31,31,31,,,,,,,,,,,,,,,,,,,,,,,,,,14_AE,24,F,14,2021_Nov_02_1743,Partial repeat,2021.2.3,120.10939781135042,
5,5,0,1,1,3,3,2,3,1,1,1,0,1,1,0,0,32,32,32,0,0,0,0,,,,,,,248.1609168602663,None,0.8406083323539686,249.21000674775132,None,"[93. 87. 93. 93. 87. 87. 87. 87. 93. 93. 93. 87. 93. 87. 87. 87. 87. 93.
 87. 93. 87. 93. 87. 87. 93. 93. 93. 93. 87. 93. 93. 93. 93. 87.]",250.13419332947524,None,l,1,0.4811313083409914,250.13419332947524,None,None,None,14_AE,24,F,14,2021_Nov_02_1743,Partial repeat,2021.2.3,120.10939781135042,
5,5,0,1,1,3,3,2,3,1,1,1,0,1,1,0,0,32,32,32,1,0,1,0,,,,,,,,,0.8881433820426551,250.68372515615192,None,"[87. 87. 87. 93. 87. 87. 93. 87. 93. 93. 93. 87. 93. 93. 93. 87. 93. 93.
 93. 93. 87. 87. 87. 87. 87. 93. 87. 87. 87. 87. 87. 93. 87. 87.]",251.65787652385552,None,l,1,0.7645785366948985,251.65787652385552,None,None,None,14_AE,24,F,14,2021_Nov_02_1743,Partial repeat,2021.2.3,120.10939781135042,
5,5,0,1,1,3,3,2,3,1,1,1,0,1,1,0,0,32,32,32,,,,,,,,,,,,,,,,,,,,,,,,,,14_AE,24,F,14,2021_Nov_02_1743,Partial repeat,2021.2.3,120.10939781135042,
5,5,0,1,1,2,2,2,3,0,1,1,0,0,1,0,0,33,33,33,0,0,0,0,,,,,,,252.43222006134602,None,0.760297326658936,253.11494556258185,None,"[93. 87. 87. 93. 87. 93. 87. 87. 93. 93. 87. 93. 93. 87. 87. 87. 93. 87.
 93. 93. 93. 87. 93. 93. 87. 93. 87. 93. 93. 93. 87. 87. 87. 87.]",253.96421767782158,None,s,1,0.5541644864933915,253.96421767782158,None,None,None,14_AE,24,F,14,2021_Nov_02_1743,Partial repeat,2021.2.3,120.10939781135042,
5,5,0,1,1,2,2,2,3,0,1,1,0,0,1,0,0,33,33,33,1,0,1,0,,,,,,,,,0.9194543626877776,254.57202422262708,None,"[93. 87. 87. 93. 93. 93. 87. 93. 87. 93. 93. 87. 93. 87. 93. 93. 93. 93.
 87. 87. 87. 87. 87. 87. 93. 87. 93. 93. 87. 93. 87. 93. 87. 87.]",255.57948683739596,None,l,1,0.5388839096267475,255.57948683739596,None,None,None,14_AE,24,F,14,2021_Nov_02_1743,Partial repeat,2021.2.3,120.10939781135042,
5,5,0,1,1,2,2,2,3,0,1,1,0,0,1,0,0,33,33,33,,,,,,,,,,,,,,,,,,,,,,,,,,14_AE,24,F,14,2021_Nov_02_1743,Partial repeat,2021.2.3,120.10939781135042,
5,5,0,1,1,3,2,3,3,1,1,0,1,1,1,0,0,34,34,34,0,0,0,0,,,,,,,256.12900615635954,None,0.9735458945942754,256.7951073033473,None,"[87. 87. 93. 87. 93. 87. 87. 87. 93. 93. 87. 87. 87. 87. 93. 93. 87. 87.
 93. 93. 93. 93. 87. 87. 87. 93. 93. 93. 87. 87. 87. 87. 93. 87.]",257.85253181769804,None,l,1,0.5393165482164477,257.85253181769804,None,None,None,14_AE,24,F,14,2021_Nov_02_1743,Partial repeat,2021.2.3,120.10939781135042,
5,5,0,1,1,3,2,3,3,1,1,0,1,1,1,0,0,34,34,34,1,0,1,0,,,,,,,,,0.8955383441604102,258.45199924568806,None,"[93. 93. 93. 87. 93. 93. 93. 93. 93. 93. 93. 93. 87. 87. 93. 87. 87. 87.
 93. 87. 87. 87. 87. 93. 87. 87. 93. 93. 93. 93. 93. 87. 87. 93.]",259.4344810710172,None,l,1,0.6039150377946498,259.4344810710172,None,None,None,14_AE,24,F,14,2021_Nov_02_1743,Partial repeat,2021.2.3,120.10939781135042,
5,5,0,1,1,3,2,3,3,1,1,0,1,1,1,0,0,34,34,34,,,,,,,,,,,,,,,,,,,,,,,,,,14_AE,24,F,14,2021_Nov_02_1743,Partial repeat,2021.2.3,120.10939781135042,
5,5,0,1,1,2,2,3,3,1,0,1,1,0,1,0,0,35,35,35,0,0,0,0,,,,,,,260.0672674431262,None,0.9850792005032483,260.71670286419976,None,"[87. 87. 87. 87. 87. 93. 93. 93. 87. 87. 87. 87. 87. 87. 87. 87. 87. 93.
 93. 87. 87. 93. 87. 87. 93. 93. 93. 87. 87. 93. 93. 93. 93. 93.]",261.7907761068018,None,l,1,0.6956517369653739,261.7907761068018,None,None,None,14_AE,24,F,14,2021_Nov_02_1743,Partial repeat,2021.2.3,120.10939781135042,
5,5,0,1,1,2,2,3,3,1,0,1,1,0,1,0,0,35,35,35,1,0,1,0,,,,,,,,,0.726030681788616,262.54845423908773,None,"[87. 87. 93. 93. 93. 87. 87. 93. 87. 87. 93. 87. 93. 87. 93. 93. 93. 87.
 93. 87. 93. 87. 93. 93. 93. 87. 87. 87. 87. 93. 87. 93. 87. 93.]",263.3644000338645,None,s,1,0.7860372824106889,263.3644000338645,None,None,None,14_AE,24,F,14,2021_Nov_02_1743,Partial repeat,2021.2.3,120.10939781135042,
5,5,0,1,1,2,2,3,3,1,0,1,1,0,1,0,0,35,35,35,,,,,,,,,,,,,,,,,,,,,,,,,,14_AE,24,F,14,2021_Nov_02_1743,Partial repeat,2021.2.3,120.10939781135042,
5,5,0,1,1,3,3,2,2,0,1,1,1,0,1,0,0,36,36,36,0,0,0,0,,,,,,,264.1720480834956,None,0.8263579572116265,264.9047544062414,None,"[87. 87. 93. 93. 93. 93. 87. 87. 87. 87. 93. 87. 87. 87. 93. 87. 87. 93.
 93. 93. 93. 87. 87. 93. 93. 87. 93. 93. 93. 87. 87. 87. 93. 87.]",265.8122951461082,None,s,1,0.5152154679344676,265.8122951461082,None,None,None,14_AE,24,F,14,2021_Nov_02_1743,Partial repeat,2021.2.3,120.10939781135042,
5,5,0,1,1,3,3,2,2,0,1,1,1,0,1,0,0,36,36,36,1,0,1,0,,,,,,,,,0.7597602371823431,266.3867981409021,None,"[87. 93. 93. 93. 87. 93. 93. 87. 93. 87. 93. 87. 93. 87. 93. 93. 87. 93.
 93. 93. 93. 93. 87. 87. 93. 87. 87. 87. 93. 87. 87. 87. 87. 93.]",267.2360651247727,None,l,1,0.6414795487326046,267.2360651247727,None,None,None,14_AE,24,F,14,2021_Nov_02_1743,Partial repeat,2021.2.3,120.10939781135042,
5,5,0,1,1,3,3,2,2,0,1,1,1,0,1,0,0,36,36,36,,,,,,,,,,,,,,,,,,,,,,,,,,14_AE,24,F,14,2021_Nov_02_1743,Partial repeat,2021.2.3,120.10939781135042,
5,5,0,1,1,2,2,2,2,0,1,1,1,0,1,0,0,37,37,37,0,0,0,0,,,,,,,267.8855082429036,None,0.7726344350813266,268.75141978578904,None,"[93. 87. 87. 87. 93. 87. 93. 87. 93. 87. 93. 93. 93. 87. 87. 93. 87. 93.
 87. 93. 87. 93. 93. 93. 93. 93. 93. 93. 87. 87. 87. 87. 93. 87.]",269.60901209591975,None,s,1,0.5084478330209095,269.60901209591975,None,None,None,14_AE,24,F,14,2021_Nov_02_1743,Partial repeat,2021.2.3,120.10939781135042,
5,5,0,1,1,2,2,2,2,0,1,1,1,0,1,0,0,37,37,37,1,0,1,0,,,,,,,,,0.7512591165767478,270.1835080350829,None,"[87. 87. 87. 93. 93. 93. 93. 93. 93. 93. 93. 93. 87. 93. 87. 93. 93. 93.
 87. 87. 93. 93. 87. 93. 93. 93. 87. 93. 93. 87. 87. 87. 87. 93.]",271.024452258378,None,l,1,0.613041178403364,271.024452258378,None,None,None,14_AE,24,F,14,2021_Nov_02_1743,Partial repeat,2021.2.3,120.10939781135042,
5,5,0,1,1,2,2,2,2,0,1,1,1,0,1,0,0,37,37,37,,,,,,,,,,,,,,,,,,,,,,,,,,14_AE,24,F,14,2021_Nov_02_1743,Partial repeat,2021.2.3,120.10939781135042,
5,5,0,1,1,2,3,3,2,1,1,0,0,1,1,0,0,38,38,38,0,0,0,0,,,,,,,271.65722836774876,None,0.8377998904267208,272.5231630017988,None,"[87. 93. 87. 93. 87. 87. 93. 93. 93. 87. 87. 93. 93. 87. 93. 87. 93. 93.
 87. 87. 93. 87. 87. 93. 87. 93. 93. 93. 87. 87. 93. 93. 87. 87.]",273.44735695986674,None,l,1,0.46211894302541623,273.44735695986674,None,None,None,14_AE,24,F,14,2021_Nov_02_1743,Partial repeat,2021.2.3,120.10939781135042,
5,5,0,1,1,2,3,3,2,1,1,0,0,1,1,0,0,38,38,38,1,0,1,0,,,,,,,,,0.8030316045239733,273.98021311860066,None,"[93. 87. 93. 93. 87. 93. 87. 93. 87. 93. 87. 93. 93. 93. 87. 87. 87. 87.
 93. 93. 93. 87. 93. 93. 87. 87. 93. 93. 87. 93. 87. 87. 87. 87.]",274.8711224485851,None,l,1,0.5757120690432203,274.8711224485851,None,None,None,14_AE,24,F,14,2021_Nov_02_1743,Partial repeat,2021.2.3,120.10939781135042,
5,5,0,1,1,2,3,3,2,1,1,0,0,1,1,0,0,38,38,38,,,,,,,,,,,,,,,,,,,,,,,,,,14_AE,24,F,14,2021_Nov_02_1743,Partial repeat,2021.2.3,120.10939781135042,
5,5,0,1,1,2,3,2,3,1,1,0,0,1,1,0,0,39,39,39,0,0,0,0,,,,,,,275.46227609589914,None,0.9268357204081642,276.3615008101151,None,"[93. 87. 93. 87. 87. 87. 93. 93. 93. 93. 87. 93. 87. 93. 87. 87. 87. 87.
 93. 93. 87. 93. 93. 87. 87. 93. 87. 93. 93. 87. 93. 87. 93. 87.]",277.3772861854559,None,l,1,0.5642399304524588,277.3772861854559,None,None,None,14_AE,24,F,14,2021_Nov_02_1743,Partial repeat,2021.2.3,120.10939781135042,
5,5,0,1,1,2,3,2,3,1,1,0,0,1,1,0,0,39,39,39,1,0,1,0,,,,,,,,,0.8677267466593245,278.0017453070395,None,"[93. 93. 87. 87. 87. 87. 87. 93. 87. 93. 87. 93. 87. 93. 93. 93. 93. 87.
 93. 93. 87. 87. 87. 87. 93. 93. 87. 87. 93. 93. 87. 87. 93. 93.]",278.95925243643796,None,l,1,0.7422676629394118,278.95925243643796,None,None,None,14_AE,24,F,14,2021_Nov_02_1743,Partial repeat,2021.2.3,120.10939781135042,
5,5,0,1,1,2,3,2,3,1,1,0,0,1,1,0,0,39,39,39,,,,,,,,,,,,,,,,,,,,,,,,,,14_AE,24,F,14,2021_Nov_02_1743,Partial repeat,2021.2.3,120.10939781135042,
5,5,0,1,1,3,3,3,3,1,0,1,1,0,1,0,0,40,40,40,0,0,0,0,,,,,,,279.71693409653744,None,0.7360420421319493,280.5245645070863,None,"[87. 87. 93. 93. 93. 93. 87. 87. 93. 87. 93. 87. 93. 93. 87. 87. 93. 87.
 93. 87. 87. 87. 87. 93. 87. 87. 93. 87. 93. 87. 87. 93. 93. 93.]",281.34885198436314,None,l,1,0.46467564786144067,281.34885198436314,None,None,None,14_AE,24,F,14,2021_Nov_02_1743,Partial repeat,2021.2.3,120.10939781135042,
5,5,0,1,1,3,3,3,3,1,0,1,1,0,1,0,0,40,40,40,1,0,1,0,,,,,,,,,0.7385941966558179,281.88171776441595,None,"[93. 87. 93. 87. 87. 87. 87. 93. 87. 93. 93. 87. 93. 87. 93. 87. 87. 93.
 93. 87. 87. 87. 93. 93. 87. 93. 87. 87. 93. 87. 93. 87. 93. 93.]",282.70600941092925,None,s,1,0.914597330338438,282.70600941092925,None,None,None,14_AE,24,F,14,2021_Nov_02_1743,Partial repeat,2021.2.3,120.10939781135042,
5,5,0,1,1,3,3,3,3,1,0,1,1,0,1,0,0,40,40,40,,,,,,,,,,,,,,,,,,,,,,,,,,14_AE,24,F,14,2021_Nov_02_1743,Partial repeat,2021.2.3,120.10939781135042,
5,5,0,1,1,3,3,2,2,0,0,1,1,1,1,0,0,41,41,41,0,0,0,0,,,,,,,283.63854248581265,None,0.9267075755613401,284.26299391034627,None,"[93. 93. 87. 93. 87. 93. 93. 87. 87. 93. 93. 87. 87. 93. 87. 93. 87. 87.
 93. 87. 93. 87. 93. 87. 87. 93. 87. 87. 93. 87. 93. 93. 93. 93.]",285.2787818513716,None,s,1,0.501824517872592,285.2787818513716,None,None,None,14_AE,24,F,14,2021_Nov_02_1743,Partial repeat,2021.2.3,120.10939781135042,
5,5,0,1,1,3,3,2,2,0,0,1,1,1,1,0,0,41,41,41,1,0,1,0,,,,,,,,,0.8478601431786594,285.85328131835195,None,"[87. 87. 93. 93. 87. 93. 87. 93. 93. 87. 93. 93. 87. 93. 93. 87. 93. 93.
 93. 87. 87. 93. 87. 87. 87. 93. 93. 87. 93. 87. 87. 93. 87. 93.]",286.7858102239952,None,s,1,0.5467685795301804,286.7858102239952,None,None,None,14_AE,24,F,14,2021_Nov_02_1743,Partial repeat,2021.2.3,120.10939781135042,
5,5,0,1,1,3,3,2,2,0,0,1,1,1,1,0,0,41,41,41,,,,,,,,,,,,,,,,,,,,,,,,,,14_AE,24,F,14,2021_Nov_02_1743,Partial repeat,2021.2.3,120.10939781135042,
5,5,0,1,1,2,2,3,3,1,1,1,1,1,1,0,0,42,42,42,0,0,0,0,,,,,,,287.36036324964516,None,0.7438033892401852,288.8923204565872,None,"[87. 87. 87. 93. 87. 93. 87. 93. 87. 93. 93. 87. 93. 87. 87. 87. 87. 87.
 93. 93. 93. 87. 93. 93. 93. 93. 87. 93. 93. 87. 87. 93. 93. 93.]",289.733292902416,None,l,1,0.5273296691266296,289.733292902416,None,None,None,14_AE,24,F,14,2021_Nov_02_1743,Partial repeat,2021.2.3,120.10939781135042,
5,5,0,1,1,2,2,3,3,1,1,1,1,1,1,0,0,42,42,42,1,0,1,0,,,,,,,,,0.866462870636644,290.324455529626,None,"[93. 93. 93. 93. 87. 93. 93. 93. 87. 93. 87. 93. 93. 93. 93. 93. 87. 87.
 87. 87. 93. 87. 93. 93. 87. 87. 87. 87. 87. 87. 87. 93. 93. 87.]",291.2735908297291,None,l,1,0.5871367424624623,291.2735908297291,None,None,None,14_AE,24,F,14,2021_Nov_02_1743,Partial repeat,2021.2.3,120.10939781135042,
5,5,0,1,1,2,2,3,3,1,1,1,1,1,1,0,0,42,42,42,,,,,,,,,,,,,,,,,,,,,,,,,,14_AE,24,F,14,2021_Nov_02_1743,Partial repeat,2021.2.3,120.10939781135042,
5,5,0,1,1,3,3,3,2,0,1,1,0,0,1,0,0,43,43,43,0,0,0,0,,,,,,,291.88139352600774,None,0.7102007125578277,293.09700276708827,None,"[87. 87. 93. 93. 93. 87. 93. 93. 87. 87. 87. 87. 87. 87. 87. 87. 93. 93.
 87. 93. 87. 93. 93. 87. 93. 87. 87. 93. 87. 87. 93. 93. 93. 87.]",293.9046800013857,None,s,1,0.4359489587150165,293.9046800013857,None,None,None,14_AE,24,F,14,2021_Nov_02_1743,Partial repeat,2021.2.3,120.10939781135042,
5,5,0,1,1,3,3,3,2,0,1,1,0,0,1,0,0,43,43,43,1,0,1,0,,,,,,,,,0.9849161318327628,294.41255023931444,None,"[93. 93. 93. 87. 87. 87. 87. 93. 93. 87. 93. 87. 87. 87. 87. 93. 93. 87.
 87. 87. 93. 93. 93. 87. 93. 93. 87. 93. 93. 87. 87. 93. 87. 87.]",295.4949577880725,None,l,1,0.6057020372136321,295.4949577880725,None,None,None,14_AE,24,F,14,2021_Nov_02_1743,Partial repeat,2021.2.3,120.10939781135042,
5,5,0,1,1,3,3,3,2,0,1,1,0,0,1,0,0,43,43,43,,,,,,,,,,,,,,,,,,,,,,,,,,14_AE,24,F,14,2021_Nov_02_1743,Partial repeat,2021.2.3,120.10939781135042,
5,5,0,1,1,3,2,2,3,0,0,0,0,1,1,0,0,44,44,44,0,0,0,0,,,,,,,296.1277541022064,None,0.8581575450592263,296.93536494941145,None,"[87. 93. 93. 93. 87. 87. 87. 93. 87. 93. 93. 93. 93. 93. 93. 87. 93. 87.
 87. 93. 93. 87. 93. 87. 87. 87. 93. 87. 87. 87. 87. 87. 93. 93.]",297.8761890345195,None,s,1,0.44812377420748817,297.8761890345195,None,None,None,14_AE,24,F,14,2021_Nov_02_1743,Partial repeat,2021.2.3,120.10939781135042,
5,5,0,1,1,3,2,2,3,0,0,0,0,1,1,0,0,44,44,44,1,0,1,0,,,,,,,,,0.8876300328785147,298.392435912403,None,"[87. 87. 87. 87. 93. 93. 87. 93. 93. 93. 93. 93. 93. 87. 87. 87. 93. 87.
 87. 87. 87. 93. 87. 87. 87. 93. 87. 87. 93. 87. 93. 87. 93. 93.]",299.36661261623885,None,s,1,0.7330106724111829,299.36661261623885,None,None,None,14_AE,24,F,14,2021_Nov_02_1743,Partial repeat,2021.2.3,120.10939781135042,
5,5,0,1,1,3,2,2,3,0,0,0,0,1,1,0,0,44,44,44,,,,,,,,,,,,,,,,,,,,,,,,,,14_AE,24,F,14,2021_Nov_02_1743,Partial repeat,2021.2.3,120.10939781135042,
5,5,0,1,1,2,2,2,3,1,0,1,0,0,1,0,0,45,45,45,0,0,0,0,,,,,,,300.1242686194928,None,0.9492717309767983,300.7570729513973,None,"[93. 87. 87. 87. 93. 87. 87. 93. 87. 87. 87. 93. 93. 87. 87. 93. 87. 87.
 87. 93. 93. 93. 93. 93. 93. 93. 87. 93. 87. 93. 87. 87. 93. 93.]",301.789500640778,None,l,1,0.5671644903413835,301.789500640778,None,None,None,14_AE,24,F,14,2021_Nov_02_1743,Partial repeat,2021.2.3,120.10939781135042,
5,5,0,1,1,2,2,2,3,1,0,1,0,0,1,0,0,45,45,45,1,0,1,0,,,,,,,,,0.7055107931666422,302.40562545620924,None,"[93. 87. 87. 87. 93. 93. 87. 93. 93. 87. 87. 87. 93. 93. 93. 87. 93. 93.
 87. 87. 93. 93. 87. 93. 93. 93. 93. 87. 93. 87. 93. 87. 87. 93.]",303.1966103456107,None,s,1,0.5350639257667353,303.1966103456107,None,None,None,14_AE,24,F,14,2021_Nov_02_1743,Partial repeat,2021.2.3,120.10939781135042,
5,5,0,1,1,2,2,2,3,1,0,1,0,0,1,0,0,45,45,45,,,,,,,,,,,,,,,,,,,,,,,,,,14_AE,24,F,14,2021_Nov_02_1743,Partial repeat,2021.2.3,120.10939781135042,
5,5,0,1,1,3,2,3,2,0,1,0,0,0,1,0,0,46,46,46,0,0,0,0,,,,,,,303.7627825620657,None,0.7952415344384605,305.5445736409238,None,"[87. 87. 93. 87. 93. 87. 87. 93. 87. 93. 87. 87. 87. 87. 93. 87. 93. 87.
 93. 87. 87. 87. 87. 87. 93. 87. 93. 87. 93. 93. 93. 93. 93. 93.]",306.42714866475217,None,s,1,0.53657832117824,306.42714866475217,None,None,None,14_AE,24,F,14,2021_Nov_02_1743,Partial repeat,2021.2.3,120.10939781135042,
5,5,0,1,1,3,2,3,2,0,1,0,0,0,1,0,0,46,46,46,1,0,1,0,,,,,,,,,0.9284909271756033,307.0266212241113,None,"[93. 93. 93. 93. 93. 87. 87. 87. 87. 93. 87. 87. 87. 93. 87. 87. 87. 93.
 93. 87. 87. 93. 87. 87. 93. 87. 87. 93. 93. 87. 87. 93. 93. 87.]",308.04239761955614,None,l,1,0.5853096542195999,308.04239761955614,None,None,None,14_AE,24,F,14,2021_Nov_02_1743,Partial repeat,2021.2.3,120.10939781135042,
5,5,0,1,1,3,2,3,2,0,1,0,0,0,1,0,0,46,46,46,,,,,,,,,,,,,,,,,,,,,,,,,,14_AE,24,F,14,2021_Nov_02_1743,Partial repeat,2021.2.3,120.10939781135042,
5,5,0,1,1,2,3,3,3,1,1,0,1,1,1,0,0,47,47,47,0,0,0,0,,,,,,,308.6502285383649,None,0.7877857378126074,309.22471870473964,None,"[93. 87. 93. 93. 87. 87. 87. 93. 87. 93. 87. 93. 93. 87. 87. 93. 93. 87.
 93. 87. 93. 93. 93. 87. 93. 93. 87. 87. 87. 87. 87. 93. 93. 93.]",310.0989680815983,None,l,1,0.5447904365973955,310.0989680815983,None,None,None,14_AE,24,F,14,2021_Nov_02_1743,Partial repeat,2021.2.3,120.10939781135042,
5,5,0,1,1,2,3,3,3,1,1,0,1,1,1,0,0,47,47,47,1,0,1,0,,,,,,,,,0.7522313962875408,310.7067691743214,None,"[93. 87. 87. 87. 93. 87. 93. 93. 87. 87. 87. 87. 87. 93. 87. 87. 93. 93.
 93. 87. 93. 87. 93. 87. 87. 87. 93. 93. 87. 93. 87. 87. 87. 93.]",311.5393967305463,None,l,1,0.5603497109732416,311.5393967305463,None,None,None,14_AE,24,F,14,2021_Nov_02_1743,Partial repeat,2021.2.3,120.10939781135042,
5,5,0,1,1,2,3,3,3,1,1,0,1,1,1,0,0,47,47,47,,,,,,,,,,,,,,,,,,,,,,,,,,14_AE,24,F,14,2021_Nov_02_1743,Partial repeat,2021.2.3,120.10939781135042,
5,5,0,1,1,2,2,3,3,0,0,1,1,1,1,0,0,48,48,48,0,0,0,0,,,,,,,312.12221286460044,None,0.7573364219858136,312.8382598756398,None,"[93. 87. 93. 87. 87. 87. 87. 87. 87. 87. 93. 87. 87. 93. 87. 87. 93. 87.
 93. 93. 93. 93. 93. 87. 93. 87. 93. 93. 87. 87. 93. 87. 87. 93.]",313.6792050610675,None,s,1,0.451554736122489,313.6792050610675,None,None,None,14_AE,24,F,14,2021_Nov_02_1743,Partial repeat,2021.2.3,120.10939781135042,
5,5,0,1,1,2,2,3,3,0,0,1,1,1,1,0,0,48,48,48,1,0,1,0,,,,,,,,,0.9720651678751384,314.2037432698853,None,"[93. 87. 93. 87. 93. 93. 87. 93. 93. 93. 87. 87. 93. 87. 87. 87. 93. 87.
 93. 93. 87. 87. 87. 87. 93. 87. 93. 87. 93. 87. 87. 87. 93. 87.]",315.2611681049457,None,s,1,0.4539770632254658,315.2611681049457,None,None,None,14_AE,24,F,14,2021_Nov_02_1743,Partial repeat,2021.2.3,120.10939781135042,
5,5,0,1,1,2,2,3,3,0,0,1,1,1,1,0,0,48,48,48,,,,,,,,,,,,,,,,,,,,,,,,,,14_AE,24,F,14,2021_Nov_02_1743,Partial repeat,2021.2.3,120.10939781135042,
5,5,0,1,1,2,2,2,3,1,1,1,0,1,1,0,0,49,49,49,0,0,0,0,,,,,,,315.73575531834285,None,0.7538386645007586,316.5350639304488,None,"[93. 87. 93. 87. 87. 87. 87. 93. 87. 87. 93. 93. 87. 93. 93. 87. 93. 87.
 87. 93. 87. 87. 87. 87. 87. 87. 87. 93. 87. 87. 87. 87. 87. 87.]",317.3760030223748,None,l,1,0.5947879350569565,317.3760030223748,None,None,None,14_AE,24,F,14,2021_Nov_02_1743,Partial repeat,2021.2.3,120.10939781135042,
5,5,0,1,1,2,2,2,3,1,1,1,0,1,1,0,0,49,49,49,1,0,1,0,,,,,,,,,0.8972615352173368,318.0337672975256,None,"[93. 93. 87. 93. 87. 87. 87. 87. 93. 93. 93. 93. 87. 87. 87. 93. 87. 87.
 87. 87. 93. 93. 93. 93. 87. 93. 93. 93. 87. 93. 93. 93. 93. 93.]",319.0162545749372,None,l,1,0.7945338681238354,319.0162545749372,None,None,None,14_AE,24,F,14,2021_Nov_02_1743,Partial repeat,2021.2.3,120.10939781135042,
5,5,0,1,1,2,2,2,3,1,1,1,0,1,1,0,0,49,49,49,,,,,,,,,,,,,,,,,,,,,,,,,,14_AE,24,F,14,2021_Nov_02_1743,Partial repeat,2021.2.3,120.10939781135042,
5,5,0,1,1,2,3,3,3,1,0,0,1,0,1,0,0,50,50,50,0,0,0,0,,,,,,,319.84887058557797,None,0.8477855225891731,320.7147866184132,None,"[93. 93. 93. 93. 87. 87. 87. 93. 87. 87. 93. 87. 93. 87. 93. 93. 93. 93.
 93. 93. 87. 87. 87. 87. 93. 87. 93. 87. 87. 87. 93. 87. 87. 87.]",321.64731071340066,None,l,1,0.7394877435290255,321.64731071340066,None,None,None,14_AE,24,F,14,2021_Nov_02_1743,Partial repeat,2021.2.3,120.10939781135042,
5,5,0,1,1,2,3,3,3,1,0,0,1,0,1,0,0,50,50,50,1,0,1,0,,,,,,,,,0.8939677150225266,322.4466090627684,None,"[87. 93. 93. 87. 87. 87. 87. 93. 87. 93. 87. 87. 87. 87. 93. 93. 87. 93.
 93. 93. 93. 93. 87. 87. 87. 93. 93. 87. 87. 87. 87. 93. 93. 87.]",323.42910018870316,None,s,1,0.4457248589824303,323.42910018870316,None,None,None,14_AE,24,F,14,2021_Nov_02_1743,Partial repeat,2021.2.3,120.10939781135042,
5,5,0,1,1,2,3,3,3,1,0,0,1,0,1,0,0,50,50,50,,,,,,,,,,,,,,,,,,,,,,,,,,14_AE,24,F,14,2021_Nov_02_1743,Partial repeat,2021.2.3,120.10939781135042,
5,5,0,1,1,2,2,3,2,1,0,1,0,0,1,0,0,51,51,51,0,0,0,0,,,,,,,323.8953566237615,None,0.7067085350949858,324.6030751014405,None,"[93. 93. 93. 93. 93. 87. 87. 87. 87. 87. 93. 93. 93. 87. 87. 93. 87. 87.
 93. 87. 93. 87. 87. 93. 87. 87. 93. 93. 87. 93. 87. 87. 87. 93.]",325.3940670464726,None,l,1,0.592013788434997,325.3940670464726,None,None,None,14_AE,24,F,14,2021_Nov_02_1743,Partial repeat,2021.2.3,120.10939781135042,
5,5,0,1,1,2,2,3,2,1,0,1,0,0,1,0,0,51,51,51,1,0,1,0,,,,,,,,,0.7562418223690651,326.0518284352256,None,"[93. 93. 87. 87. 93. 87. 93. 87. 87. 93. 87. 87. 87. 93. 93. 93. 93. 93.
 87. 87. 87. 93. 93. 93. 87. 93. 87. 87. 93. 87. 87. 87. 93. 87.]",326.89276816857455,None,s,1,0.534071326481353,326.89276816857455,None,None,None,14_AE,24,F,14,2021_Nov_02_1743,Partial repeat,2021.2.3,120.10939781135042,
5,5,0,1,1,2,2,3,2,1,0,1,0,0,1,0,0,51,51,51,,,,,,,,,,,,,,,,,,,,,,,,,,14_AE,24,F,14,2021_Nov_02_1743,Partial repeat,2021.2.3,120.10939781135042,
5,5,0,1,1,3,2,2,3,1,1,0,0,1,1,0,0,52,52,52,0,0,0,0,,,,,,,327.45061249308856,None,0.8697696758339837,328.21662557294985,None,"[87. 93. 93. 93. 87. 87. 87. 87. 87. 93. 93. 93. 87. 93. 87. 93. 87. 87.
 87. 87. 93. 93. 87. 87. 87. 87. 87. 87. 93. 87. 87. 87. 93. 87.]",329.1741278916852,None,l,1,0.5557651530580188,329.1741278916852,None,None,None,14_AE,24,F,14,2021_Nov_02_1743,Partial repeat,2021.2.3,120.10939781135042,
5,5,0,1,1,3,2,2,3,1,1,0,0,1,1,0,0,52,52,52,1,0,1,0,,,,,,,,,0.7753468092664361,329.7902616870124,None,"[87. 93. 93. 87. 93. 87. 87. 93. 87. 87. 87. 93. 93. 93. 93. 93. 87. 87.
 87. 87. 93. 87. 93. 93. 87. 93. 87. 87. 93. 93. 93. 93. 87. 93.]",330.65617964411285,None,l,1,0.5936805213823391,330.65617964411285,None,None,None,14_AE,24,F,14,2021_Nov_02_1743,Partial repeat,2021.2.3,120.10939781135042,
5,5,0,1,1,3,2,2,3,1,1,0,0,1,1,0,0,52,52,52,,,,,,,,,,,,,,,,,,,,,,,,,,14_AE,24,F,14,2021_Nov_02_1743,Partial repeat,2021.2.3,120.10939781135042,
5,5,0,1,1,2,3,3,2,1,0,0,0,0,1,0,0,53,53,53,0,0,0,0,,,,,,,331.2639858682087,None,0.7957926010945979,332.03830823879616,None,"[87. 93. 87. 87. 93. 93. 87. 93. 87. 87. 93. 93. 93. 87. 93. 87. 93. 87.
 87. 93. 93. 87. 93. 93. 93. 93. 87. 93. 87. 93. 93. 87. 87. 93.]",332.9208861490224,None,l,1,0.6009750837984029,332.9208861490224,None,None,None,14_AE,24,F,14,2021_Nov_02_1743,Partial repeat,2021.2.3,120.10939781135042,
5,5,0,1,1,2,3,3,2,1,0,0,0,0,1,0,0,53,53,53,1,0,1,0,,,,,,,,,0.8542693126461316,333.5786462549331,None,"[87. 87. 87. 93. 87. 87. 87. 87. 93. 87. 93. 93. 87. 93. 87. 87. 93. 87.
 93. 87. 93. 93. 93. 87. 93. 93. 87. 93. 93. 93. 87. 93. 93. 87.]",334.5195008075498,None,s,1,0.6023865311144618,334.5195008075498,None,None,None,14_AE,24,F,14,2021_Nov_02_1743,Partial repeat,2021.2.3,120.10939781135042,
5,5,0,1,1,2,3,3,2,1,0,0,0,0,1,0,0,53,53,53,,,,,,,,,,,,,,,,,,,,,,,,,,14_AE,24,F,14,2021_Nov_02_1743,Partial repeat,2021.2.3,120.10939781135042,
5,5,0,1,1,3,2,2,2,1,0,0,1,0,1,0,0,54,54,54,0,0,0,0,,,,,,,335.14395864629114,None,0.8936566942862991,335.88500344442946,None,"[87. 93. 87. 93. 93. 93. 93. 87. 87. 87. 93. 87. 87. 87. 87. 87. 87. 93.
 93. 87. 87. 87. 87. 93. 87. 93. 87. 87. 87. 93. 87. 87. 87. 87.]",336.8758452327638,None,l,1,0.6140828464049264,336.8758452327638,None,None,None,14_AE,24,F,14,2021_Nov_02_1743,Partial repeat,2021.2.3,120.10939781135042,
5,5,0,1,1,3,2,2,2,1,0,0,1,0,1,0,0,54,54,54,1,0,1,0,,,,,,,,,0.849201994141578,337.54186620210385,None,"[93. 87. 93. 87. 93. 87. 93. 93. 93. 87. 93. 87. 93. 87. 87. 87. 93. 87.
 93. 93. 87. 93. 87. 87. 87. 93. 93. 87. 93. 87. 93. 87. 87. 87.]",338.4827441665948,None,s,1,0.5271382049031672,338.4827441665948,None,None,None,14_AE,24,F,14,2021_Nov_02_1743,Partial repeat,2021.2.3,120.10939781135042,
5,5,0,1,1,3,2,2,2,1,0,0,1,0,1,0,0,54,54,54,,,,,,,,,,,,,,,,,,,,,,,,,,14_AE,24,F,14,2021_Nov_02_1743,Partial repeat,2021.2.3,120.10939781135042,
5,5,0,1,1,3,2,3,2,1,1,0,0,1,1,0,0,55,55,55,0,0,0,0,,,,,,,339.03226027845085,None,0.7617136208834244,339.7233162373195,None,"[87. 93. 93. 87. 93. 87. 93. 87. 87. 87. 93. 93. 93. 93. 87. 87. 87. 93.
 87. 87. 87. 93. 93. 87. 87. 93. 87. 87. 93. 93. 93. 87. 93. 87.]",340.57260406737987,None,l,1,0.5175075865336112,340.57260406737987,None,None,None,14_AE,24,F,14,2021_Nov_02_1743,Partial repeat,2021.2.3,120.10939781135042,
5,5,0,1,1,3,2,3,2,1,1,0,0,1,1,0,0,55,55,55,1,0,1,0,,,,,,,,,0.9587081628066809,341.1637253229237,None,"[93. 87. 87. 93. 87. 87. 87. 87. 87. 87. 93. 93. 87. 87. 93. 87. 87. 93.
 93. 87. 87. 87. 87. 93. 87. 93. 87. 87. 93. 93. 93. 93. 93. 93.]",342.2212030752271,None,l,1,1.7167397412340506,342.2212030752271,None,None,None,14_AE,24,F,14,2021_Nov_02_1743,Partial repeat,2021.2.3,120.10939781135042,
5,5,0,1,1,3,2,3,2,1,1,0,0,1,1,0,0,55,55,55,,,,,,,,,,,,,,,,,,,,,,,,,,14_AE,24,F,14,2021_Nov_02_1743,Partial repeat,2021.2.3,120.10939781135042,
5,5,0,1,1,3,3,3,2,1,0,1,0,0,1,0,0,56,56,56,0,0,0,0,,,,,,,343.96133865883894,None,0.9874680983861606,344.552499682497,None,"[93. 93. 87. 87. 87. 93. 93. 87. 93. 87. 93. 93. 87. 93. 93. 87. 87. 93.
 93. 87. 93. 93. 87. 87. 93. 87. 93. 93. 87. 93. 93. 87. 93. 87.]",345.6348854229327,None,l,1,0.5100815327750752,345.6348854229327,None,None,None,14_AE,24,F,14,2021_Nov_02_1743,Partial repeat,2021.2.3,120.10939781135042,
5,5,0,1,1,3,3,3,2,1,0,1,0,0,1,0,0,56,56,56,1,0,1,0,,,,,,,,,0.7960692859954863,346.21770861261757,None,"[93. 93. 87. 93. 87. 93. 87. 87. 93. 87. 87. 87. 93. 87. 87. 93. 87. 87.
 93. 93. 93. 93. 87. 93. 93. 93. 87. 87. 87. 93. 93. 93. 93. 87.]",347.1002781843672,None,s,1,0.6926842018547177,347.1002781843672,None,None,None,14_AE,24,F,14,2021_Nov_02_1743,Partial repeat,2021.2.3,120.10939781135042,
5,5,0,1,1,3,3,3,2,1,0,1,0,0,1,0,0,56,56,56,,,,,,,,,,,,,,,,,,,,,,,,,,14_AE,24,F,14,2021_Nov_02_1743,Partial repeat,2021.2.3,120.10939781135042,
5,5,0,1,1,3,2,2,3,1,0,0,0,0,1,0,0,57,57,57,0,0,0,0,,,,,,,347.81632551611983,None,0.8169196452318572,348.49071927688783,None,"[93. 87. 87. 87. 93. 87. 93. 93. 87. 93. 87. 87. 93. 93. 87. 93. 87. 87.
 87. 87. 93. 87. 87. 93. 87. 93. 87. 93. 87. 87. 87. 87. 87. 93.]",349.389962592315,None,l,1,0.48349334185331827,349.389962592315,None,None,None,14_AE,24,F,14,2021_Nov_02_1743,Partial repeat,2021.2.3,120.10939781135042,
5,5,0,1,1,3,2,2,3,1,0,0,0,0,1,0,0,57,57,57,1,0,1,0,,,,,,,,,0.9037702204662472,349.9311546607569,None,"[93. 87. 87. 87. 87. 87. 93. 87. 93. 87. 87. 87. 87. 87. 93. 93. 87. 87.
 87. 93. 87. 93. 93. 87. 87. 93. 93. 87. 87. 93. 87. 87. 93. 93.]",350.92197111295536,None,s,1,0.6150276598091295,350.92197111295536,None,None,None,14_AE,24,F,14,2021_Nov_02_1743,Partial repeat,2021.2.3,120.10939781135042,
5,5,0,1,1,3,2,2,3,1,0,0,0,0,1,0,0,57,57,57,,,,,,,,,,,,,,,,,,,,,,,,,,14_AE,24,F,14,2021_Nov_02_1743,Partial repeat,2021.2.3,120.10939781135042,
5,5,0,1,1,2,3,2,2,1,1,0,1,1,1,0,0,58,58,58,0,0,0,0,,,,,,,351.5547533158242,None,0.7742468271353528,352.2957849648301,None,"[93. 87. 87. 93. 87. 93. 93. 93. 93. 93. 87. 93. 93. 87. 87. 87. 87. 87.
 93. 87. 87. 93. 87. 93. 87. 87. 93. 93. 93. 87. 93. 93. 87. 87.]",353.15337246430136,None,l,1,0.7357921953735058,353.15337246430136,None,None,None,14_AE,24,F,14,2021_Nov_02_1743,Partial repeat,2021.2.3,120.10939781135042,
5,5,0,1,1,2,3,2,2,1,1,0,1,1,1,0,0,58,58,58,1,0,1,0,,,,,,,,,0.7660164298273356,353.9526967912243,None,"[93. 93. 93. 87. 87. 87. 87. 87. 87. 87. 93. 93. 93. 87. 87. 87. 87. 87.
 93. 93. 93. 93. 93. 93. 87. 87. 87. 87. 93. 87. 87. 93. 87. 87.]",354.80194870169726,None,l,1,0.9430610367999179,354.80194870169726,None,None,None,14_AE,24,F,14,2021_Nov_02_1743,Partial repeat,2021.2.3,120.10939781135042,
5,5,0,1,1,2,3,2,2,1,1,0,1,1,1,0,0,58,58,58,,,,,,,,,,,,,,,,,,,,,,,,,,14_AE,24,F,14,2021_Nov_02_1743,Partial repeat,2021.2.3,120.10939781135042,
5,5,0,1,1,3,2,2,3,0,1,0,0,0,1,0,0,59,59,59,0,0,0,0,,,,,,,355.7594503790133,None,0.8775597800421705,356.4255463946356,None,"[93. 93. 93. 87. 87. 87. 93. 93. 87. 93. 87. 87. 93. 93. 87. 87. 87. 87.
 93. 93. 93. 87. 93. 93. 93. 87. 87. 93. 93. 93. 87. 93. 93. 87.]",357.3913701911042,None,s,1,0.481648293814942,357.3913701911042,None,None,None,14_AE,24,F,14,2021_Nov_02_1743,Partial repeat,2021.2.3,120.10939781135042,
5,5,0,1,1,3,2,2,3,0,1,0,0,0,1,0,0,59,59,59,1,0,1,0,,,,,,,,,0.9461341305610347,357.9325337163027,None,"[87. 93. 87. 87. 93. 87. 93. 93. 87. 87. 93. 87. 87. 87. 93. 93. 87. 87.
 87. 87. 87. 87. 93. 87. 93. 93. 93. 87. 87. 87. 87. 93. 87. 93.]",358.96501304009143,None,l,1,0.5244660442513123,358.96501304009143,None,None,None,14_AE,24,F,14,2021_Nov_02_1743,Partial repeat,2021.2.3,120.10939781135042,
5,5,0,1,1,3,2,2,3,0,1,0,0,0,1,0,0,59,59,59,,,,,,,,,,,,,,,,,,,,,,,,,,14_AE,24,F,14,2021_Nov_02_1743,Partial repeat,2021.2.3,120.10939781135042,
5,5,0,1,1,2,3,2,2,0,1,0,1,0,1,0,0,60,60,60,0,0,0,0,,,,,,,359.49788619648825,None,0.8549647664492435,360.26389190000555,None,"[87. 93. 93. 87. 87. 93. 93. 87. 93. 87. 93. 93. 87. 93. 87. 93. 93. 87.
 93. 93. 93. 87. 93. 87. 93. 93. 87. 93. 93. 93. 87. 93. 93. 87.]",361.20473811414195,None,s,1,0.5713709304654913,361.20473811414195,None,None,None,14_AE,24,F,14,2021_Nov_02_1743,Partial repeat,2021.2.3,120.10939781135042,
5,5,0,1,1,2,3,2,2,0,1,0,1,0,1,0,0,60,60,60,1,0,1,0,,,,,,,,,0.7270468993775006,361.82918953867556,None,"[87. 87. 93. 93. 87. 87. 93. 87. 93. 93. 87. 87. 93. 87. 87. 93. 87. 93.
 87. 87. 93. 87. 87. 87. 87. 87. 87. 93. 93. 87. 87. 87. 93. 93.]",362.6368308533856,None,l,1,0.531233037741913,362.6368308533856,None,None,None,14_AE,24,F,14,2021_Nov_02_1743,Partial repeat,2021.2.3,120.10939781135042,
5,5,0,1,1,2,3,2,2,0,1,0,1,0,1,0,0,60,60,60,,,,,,,,,,,,,,,,,,,,,,,,,,14_AE,24,F,14,2021_Nov_02_1743,Partial repeat,2021.2.3,120.10939781135042,
5,5,0,1,1,3,3,2,3,1,0,1,0,0,1,0,0,61,61,61,0,0,0,0,,,,,,,363.1863492102166,None,0.7907431693122766,363.77750895103236,None,"[87. 93. 93. 93. 93. 87. 93. 87. 93. 87. 93. 87. 87. 93. 93. 93. 93. 87.
 87. 93. 87. 93. 93. 93. 87. 87. 87. 87. 93. 87. 87. 87. 93. 93.]",364.6517634592601,None,l,1,0.7081103813325171,364.6517634592601,None,None,None,14_AE,24,F,14,2021_Nov_02_1743,Partial repeat,2021.2.3,120.10939781135042,
5,5,0,1,1,3,3,2,3,1,0,1,0,0,1,0,0,61,61,61,1,0,1,0,,,,,,,,,0.7980756396309956,365.4094306873849,None,"[87. 87. 93. 93. 93. 87. 87. 93. 87. 87. 93. 93. 93. 87. 93. 93. 93. 93.
 93. 93. 93. 87. 87. 93. 87. 87. 87. 93. 93. 93. 93. 87. 87. 87.]",366.2920140496899,None,s,1,0.4930829092627391,366.2920140496899,None,None,None,14_AE,24,F,14,2021_Nov_02_1743,Partial repeat,2021.2.3,120.10939781135042,
5,5,0,1,1,3,3,2,3,1,0,1,0,0,1,0,0,61,61,61,,,,,,,,,,,,,,,,,,,,,,,,,,14_AE,24,F,14,2021_Nov_02_1743,Partial repeat,2021.2.3,120.10939781135042,
5,5,0,1,1,2,3,2,3,1,0,0,0,0,1,0,0,62,62,62,0,0,0,0,,,,,,,366.7998935882242,None,0.7339790089657502,367.6574807669858,None,"[87. 93. 87. 87. 93. 93. 93. 87. 87. 87. 87. 87. 87. 93. 87. 93. 87. 93.
 87. 93. 87. 93. 87. 93. 93. 93. 87. 93. 87. 93. 93. 93. 87. 93.]",368.4817804312661,None,l,1,0.5261273251162493,368.4817804312661,None,None,None,14_AE,24,F,14,2021_Nov_02_1743,Partial repeat,2021.2.3,120.10939781135042,
5,5,0,1,1,2,3,2,3,1,0,0,0,0,1,0,0,62,62,62,1,0,1,0,,,,,,,,,0.9648330828473182,369.0729257401035,None,"[87. 87. 93. 93. 93. 87. 87. 93. 93. 87. 87. 93. 93. 93. 87. 87. 87. 87.
 87. 87. 93. 93. 93. 87. 93. 87. 93. 93. 93. 87. 87. 93. 93. 93.]",370.1220197968214,None,s,1,0.6300731558148982,370.1220197968214,None,None,None,14_AE,24,F,14,2021_Nov_02_1743,Partial repeat,2021.2.3,120.10939781135042,
5,5,0,1,1,2,3,2,3,1,0,0,0,0,1,0,0,62,62,62,,,,,,,,,,,,,,,,,,,,,,,,,,14_AE,24,F,14,2021_Nov_02_1743,Partial repeat,2021.2.3,120.10939781135042,
5,5,0,1,1,2,3,2,2,1,0,0,1,0,1,0,0,63,63,63,0,0,0,0,,,,,,,370.7714520107911,None,0.8871572713456409,371.4458791254583,None,"[93. 93. 93. 93. 87. 93. 87. 87. 87. 93. 87. 87. 87. 93. 87. 93. 87. 87.
 93. 87. 93. 87. 87. 93. 93. 93. 87. 87. 87. 93. 87. 87. 93. 93.]",372.42008116543366,None,l,1,0.6360431834873452,372.42008116543366,None,None,None,14_AE,24,F,14,2021_Nov_02_1743,Partial repeat,2021.2.3,120.10939781135042,
5,5,0,1,1,2,3,2,2,1,0,0,1,0,1,0,0,63,63,63,1,0,1,0,,,,,,,,,0.8062752348601375,373.1194194753407,None,"[87. 87. 93. 87. 93. 87. 87. 87. 93. 87. 93. 87. 87. 93. 87. 93. 93. 87.
 87. 93. 93. 93. 93. 93. 87. 87. 93. 87. 87. 93. 87. 93. 87. 93.]",374.01032046685214,None,s,1,0.4857998924308049,374.01032046685214,None,None,None,14_AE,24,F,14,2021_Nov_02_1743,Partial repeat,2021.2.3,120.10939781135042,
5,5,0,1,1,2,3,2,2,1,0,0,1,0,1,0,0,63,63,63,,,,,,,,,,,,,,,,,,,,,,,,,,14_AE,24,F,14,2021_Nov_02_1743,Partial repeat,2021.2.3,120.10939781135042,
1,7,0,1,1,2,2,2,3,0,0,1,0,1,0,0,0,64,64,64,0,0,0,0,,,,,,,377.3324373748401,None,0.7221420778161175,377.49063492999994,None,"[87. 87. 93. 93. 87. 93. 87. 93. 87. 87. 87. 93. 87. 93. 87. 87. 93. 87.
 93. 93. 93. 87. 87. 93. 93. 93. 93. 93. 87. 87. 87. 87. 93. 87.]",378.2982775275523,None,s,1,1.3969139897162677,378.2982775275523,None,None,None,14_AE,24,F,14,2021_Nov_02_1743,Partial repeat,2021.2.3,120.10939781135042,
1,7,0,1,1,2,2,2,3,0,0,1,0,1,0,0,0,64,64,64,1,0,1,0,,,,,,,,,0.9354861513190263,379.7553423970421,None,"[93. 93. 87. 87. 87. 87. 87. 93. 87. 87. 87. 93. 87. 93. 93. 87. 93. 87.
 93. 93. 87. 87. 87. 93. 93. 87. 93. 93. 87. 87. 87. 93. 87. 87.]",380.77946271995825,None,s,1,1.1249263922327373,380.77946271995825,None,None,None,14_AE,24,F,14,2021_Nov_02_1743,Partial repeat,2021.2.3,120.10939781135042,
1,7,0,1,1,2,2,2,3,0,0,1,0,1,0,0,0,64,64,64,,,,,,,,,,,,,,,,,,,,,,,,,,14_AE,24,F,14,2021_Nov_02_1743,Partial repeat,2021.2.3,120.10939781135042,
2,4,0,1,1,3,3,3,2,1,1,1,0,1,0,0,0,65,65,65,0,0,0,0,,,,,,,381.92014017618567,None,0.8239355880079562,382.51962331899267,None,"[87. 87. 87. 93. 87. 87. 87. 93. 87. 87. 93. 87. 93. 87. 87. 93. 93. 93.
 93. 93. 93. 87. 87. 87. 87. 87. 93. 93. 87. 87. 87. 93. 87. 93.]",383.42717079378417,None,l,1,0.8120353658450767,383.42717079378417,None,None,None,14_AE,24,F,14,2021_Nov_02_1743,Partial repeat,2021.2.3,120.10939781135042,
2,4,0,1,1,3,3,3,2,1,1,1,0,1,0,0,0,65,65,65,1,0,1,0,,,,,,,,,0.734302758803729,384.2930836195119,None,"[87. 93. 87. 87. 87. 87. 87. 87. 87. 93. 87. 93. 93. 87. 87. 93. 87. 87.
 93. 93. 93. 93. 87. 87. 93. 93. 87. 93. 93. 87. 93. 87. 93. 87.]",385.12574003968984,None,l,1,0.6654828122809704,385.12574003968984,None,None,None,14_AE,24,F,14,2021_Nov_02_1743,Partial repeat,2021.2.3,120.10939781135042,
2,4,0,1,1,3,3,3,2,1,1,1,0,1,0,0,0,65,65,65,,,,,,,,,,,,,,,,,,,,,,,,,,14_AE,24,F,14,2021_Nov_02_1743,Partial repeat,2021.2.3,120.10939781135042,
4,3,0,1,1,3,3,2,2,0,1,1,1,0,0,0,0,66,66,66,0,0,0,0,,,,,,,385.8084761243772,None,0.8216725634305889,386.7742832438962,None,"[93. 87. 93. 87. 93. 87. 93. 93. 93. 87. 93. 87. 87. 87. 93. 93. 93. 93.
 93. 93. 93. 87. 87. 87. 87. 93. 87. 87. 87. 87. 93. 87. 93. 93.]",387.69850831089207,None,l,0,1.7887241957505466,387.69850831089207,None,389.5052375246778,None,14_AE,24,F,14,2021_Nov_02_1743,Partial repeat,2021.2.3,120.10939781135042,
4,3,0,1,1,3,3,2,2,0,1,1,1,0,0,0,0,66,66,66,1,0,1,0,,,,,,,,,0.7441589625098349,390.03812607518194,None,"[87. 93. 93. 87. 93. 93. 87. 93. 87. 93. 87. 93. 87. 93. 93. 93. 93. 87.
 93. 93. 87. 93. 93. 93. 87. 93. 87. 87. 93. 93. 87. 87. 93. 93.]",390.879078316244,None,l,1,0.8152120042577735,390.879078316244,None,None,None,14_AE,24,F,14,2021_Nov_02_1743,Partial repeat,2021.2.3,120.10939781135042,
4,3,0,1,1,3,3,2,2,0,1,1,1,0,0,0,0,66,66,66,,,,,,,,,,,,,,,,,,,,,,,,,,14_AE,24,F,14,2021_Nov_02_1743,Partial repeat,2021.2.3,120.10939781135042,
5,2,0,1,1,3,3,2,2,1,0,1,1,0,0,0,0,67,67,67,0,0,0,0,,,,,,,391.7116677079066,None,0.7027285421553617,392.57755936673493,None,"[93. 93. 93. 87. 93. 93. 87. 93. 93. 93. 87. 93. 87. 87. 87. 87. 87. 87.
 93. 93. 87. 87. 87. 93. 87. 93. 93. 87. 93. 93. 87. 87. 93. 87.]",393.38524301524376,None,l,1,0.5653367606792017,393.38524301524376,None,None,None,14_AE,24,F,14,2021_Nov_02_1743,Partial repeat,2021.2.3,120.10939781135042,
5,2,0,1,1,3,3,2,2,1,0,1,1,0,0,0,0,67,67,67,1,0,1,0,,,,,,,,,0.9790608726915957,394.009711116727,None,"[87. 93. 93. 87. 93. 93. 93. 87. 87. 93. 87. 93. 93. 87. 93. 87. 93. 87.
 87. 93. 87. 93. 87. 93. 93. 93. 93. 87. 93. 87. 87. 93. 87. 93.]",395.0754173406931,None,s,1,0.6508289039084048,395.0754173406931,None,None,None,14_AE,24,F,14,2021_Nov_02_1743,Partial repeat,2021.2.3,120.10939781135042,
5,2,0,1,1,3,3,2,2,1,0,1,1,0,0,0,0,67,67,67,,,,,,,,,,,,,,,,,,,,,,,,,,14_AE,24,F,14,2021_Nov_02_1743,Partial repeat,2021.2.3,120.10939781135042,
2,2,0,1,1,2,3,2,3,0,0,0,0,1,0,0,0,68,68,68,0,0,0,0,,,,,,,395.75818196862383,None,0.8664165951669286,396.4492369653599,None,"[87. 87. 87. 87. 93. 87. 93. 93. 93. 87. 87. 93. 87. 93. 87. 93. 93. 93.
 87. 93. 93. 93. 87. 93. 87. 87. 93. 93. 93. 87. 87. 87. 93. 93.]",397.398387338857,None,s,1,0.5678546595372609,397.398387338857,None,None,None,14_AE,24,F,14,2021_Nov_02_1743,Partial repeat,2021.2.3,120.10939781135042,
2,2,0,1,1,2,3,2,3,0,0,0,0,1,0,0,0,68,68,68,1,0,1,0,,,,,,,,,0.7322237147099532,398.0311984056825,None,"[87. 93. 93. 93. 87. 87. 87. 93. 93. 87. 87. 87. 87. 87. 93. 87. 93. 93.
 87. 93. 87. 93. 93. 87. 87. 93. 93. 87. 93. 93. 93. 87. 93. 87.]",398.8471698573085,None,s,1,0.8802604507982323,398.8471698573085,None,None,None,14_AE,24,F,14,2021_Nov_02_1743,Partial repeat,2021.2.3,120.10939781135042,
2,2,0,1,1,2,3,2,3,0,0,0,0,1,0,0,0,68,68,68,,,,,,,,,,,,,,,,,,,,,,,,,,14_AE,24,F,14,2021_Nov_02_1743,Partial repeat,2021.2.3,120.10939781135042,
6,5,0,1,1,3,3,3,2,0,1,1,0,0,0,0,0,69,69,69,0,0,0,0,,,,,,,399.7463759703096,None,0.7533400915413351,400.4540963722502,None,"[87. 87. 87. 93. 93. 87. 93. 93. 87. 93. 93. 93. 87. 87. 87. 87. 87. 93.
 93. 93. 87. 93. 93. 93. 87. 87. 93. 87. 87. 93. 87. 87. 93. 87.]",401.2950450854951,None,s,1,1.1672903371763823,401.2950450854951,None,None,None,14_AE,24,F,14,2021_Nov_02_1743,Partial repeat,2021.2.3,120.10939781135042,
6,5,0,1,1,3,3,3,2,0,1,1,0,0,0,0,0,69,69,69,1,0,1,0,,,,,,,,,0.7383695161542174,402.52730305483055,None,"[93. 93. 87. 87. 87. 93. 87. 93. 93. 93. 87. 93. 93. 87. 87. 87. 87. 87.
 93. 93. 87. 87. 93. 87. 93. 93. 87. 93. 93. 87. 87. 87. 87. 87.]",403.3516123404297,None,l,1,0.6626955165265827,403.3516123404297,None,None,None,14_AE,24,F,14,2021_Nov_02_1743,Partial repeat,2021.2.3,120.10939781135042,
6,5,0,1,1,3,3,3,2,0,1,1,0,0,0,0,0,69,69,69,,,,,,,,,,,,,,,,,,,,,,,,,,14_AE,24,F,14,2021_Nov_02_1743,Partial repeat,2021.2.3,120.10939781135042,
5,1,0,1,1,2,3,2,3,0,1,0,0,0,0,0,0,70,70,70,0,0,0,0,,,,,,,404.03433399314235,None,0.783545359517118,404.7420630542656,None,"[87. 87. 93. 87. 93. 93. 93. 87. 87. 93. 93. 87. 87. 93. 87. 93. 93. 93.
 93. 93. 93. 87. 87. 87. 87. 87. 87. 87. 93. 93. 93. 93. 87. 87.]",405.6079774835489,None,s,1,0.6143596196488943,405.6079774835489,None,None,None,14_AE,24,F,14,2021_Nov_02_1743,Partial repeat,2021.2.3,120.10939781135042,
5,1,0,1,1,2,3,2,3,0,1,0,0,0,0,0,0,70,70,70,1,0,1,0,,,,,,,,,0.911197180291478,406.2824026739545,None,"[93. 87. 93. 87. 93. 87. 87. 87. 87. 93. 93. 87. 87. 87. 87. 93. 87. 87.
 87. 93. 93. 93. 93. 93. 93. 87. 87. 93. 93. 93. 93. 87. 93. 93.]",407.281523926933,None,l,1,1.2278558910657011,407.281523926933,None,None,None,14_AE,24,F,14,2021_Nov_02_1743,Partial repeat,2021.2.3,120.10939781135042,
5,1,0,1,1,2,3,2,3,0,1,0,0,0,0,0,0,70,70,70,,,,,,,,,,,,,,,,,,,,,,,,,,14_AE,24,F,14,2021_Nov_02_1743,Partial repeat,2021.2.3,120.10939781135042,
7,2,0,1,1,2,2,3,2,1,1,1,0,1,0,0,0,71,71,71,0,0,0,0,,,,,,,408.5387697413389,None,0.7063291315527951,409.3297488579483,None,"[87. 93. 87. 93. 93. 93. 87. 93. 93. 93. 87. 87. 87. 87. 87. 93. 93. 93.
 93. 87. 87. 87. 87. 87. 87. 87. 93. 93. 93. 93. 93. 87. 93. 93.]",410.1207526692742,None,l,1,0.6286155261768727,410.1207526692742,None,None,None,14_AE,24,F,14,2021_Nov_02_1743,Partial repeat,2021.2.3,120.10939781135042,
7,2,0,1,1,2,2,3,2,1,1,1,0,1,0,0,0,71,71,71,1,0,1,0,,,,,,,,,0.8539729432955385,410.8117945168742,None,"[87. 87. 87. 93. 87. 93. 87. 93. 87. 93. 87. 87. 87. 93. 87. 93. 93. 87.
 93. 87. 93. 93. 87. 93. 93. 87. 93. 87. 87. 93. 93. 93. 87. 87.]",411.7526525973044,None,s,0,0.6447097458149074,411.7526525973044,None,412.41874284013466,None,14_AE,24,F,14,2021_Nov_02_1743,Partial repeat,2021.2.3,120.10939781135042,
7,2,0,1,1,2,2,3,2,1,1,1,0,1,0,0,0,71,71,71,,,,,,,,,,,,,,,,,,,,,,,,,,14_AE,24,F,14,2021_Nov_02_1743,Partial repeat,2021.2.3,120.10939781135042,
4,6,0,1,1,2,3,2,2,1,1,0,1,1,0,0,0,72,72,72,0,0,0,0,,,,,,,412.9183204642868,None,0.9028096637352658,413.18474212944056,None,"[93. 93. 93. 87. 93. 93. 93. 93. 87. 87. 93. 87. 87. 87. 93. 93. 93. 93.
 87. 93. 87. 93. 93. 93. 93. 87. 93. 87. 93. 87. 93. 93. 93. 93.]",414.17555954376803,None,l,1,0.5418328435189323,414.17555954376803,None,None,None,14_AE,24,F,14,2021_Nov_02_1743,Partial repeat,2021.2.3,120.10939781135042,
4,6,0,1,1,2,3,2,2,1,1,0,1,1,0,0,0,72,72,72,1,0,1,0,,,,,,,,,0.8818287705342729,414.7750369137866,None,"[87. 87. 87. 93. 93. 87. 87. 87. 87. 87. 93. 93. 93. 93. 87. 93. 87. 93.
 87. 87. 93. 93. 93. 87. 87. 87. 87. 87. 93. 93. 87. 87. 87. 93.]",415.74086904873184,None,l,1,0.7366157801770896,415.74086904873184,None,None,None,14_AE,24,F,14,2021_Nov_02_1743,Partial repeat,2021.2.3,120.10939781135042,
4,6,0,1,1,2,3,2,2,1,1,0,1,1,0,0,0,72,72,72,,,,,,,,,,,,,,,,,,,,,,,,,,14_AE,24,F,14,2021_Nov_02_1743,Partial repeat,2021.2.3,120.10939781135042,
5,5,0,1,1,2,3,3,2,1,0,0,0,0,0,0,0,73,73,73,0,0,0,0,,,,,,,416.49854301177766,None,0.7580899209938343,417.29785451028147,None,"[93. 93. 93. 93. 87. 87. 93. 87. 87. 93. 93. 87. 87. 87. 93. 87. 93. 93.
 87. 87. 93. 93. 93. 93. 87. 87. 93. 87. 93. 87. 87. 87. 93. 87.]",418.1388006578418,None,l,1,0.7066168321071018,418.1388006578418,None,None,None,14_AE,24,F,14,2021_Nov_02_1743,Partial repeat,2021.2.3,120.10939781135042,
5,5,0,1,1,2,3,3,2,1,0,0,0,0,0,0,0,73,73,73,1,0,1,0,,,,,,,,,0.7556805898118677,418.90478776014425,None,"[87. 87. 93. 87. 87. 87. 87. 87. 87. 93. 87. 87. 93. 87. 93. 93. 87. 87.
 87. 87. 93. 93. 93. 87. 93. 93. 93. 87. 87. 93. 93. 93. 93. 87.]",419.7457342284142,None,s,1,0.5883987386441731,419.7457342284142,None,None,None,14_AE,24,F,14,2021_Nov_02_1743,Partial repeat,2021.2.3,120.10939781135042,
5,5,0,1,1,2,3,3,2,1,0,0,0,0,0,0,0,73,73,73,,,,,,,,,,,,,,,,,,,,,,,,,,14_AE,24,F,14,2021_Nov_02_1743,Partial repeat,2021.2.3,120.10939781135042,
5,7,0,1,1,3,3,3,3,1,1,1,1,1,0,0,0,74,74,74,0,0,0,0,,,,,,,420.3535449424562,None,0.9387663034860381,421.21945456108006,None,"[87. 87. 93. 93. 93. 87. 87. 87. 93. 93. 87. 93. 87. 93. 93. 93. 87. 93.
 93. 93. 93. 93. 93. 87. 93. 87. 93. 93. 93. 93. 87. 87. 87. 93.]",422.24357616683847,None,l,1,0.5859068173449486,422.24357616683847,None,None,None,14_AE,24,F,14,2021_Nov_02_1743,Partial repeat,2021.2.3,120.10939781135042,
5,7,0,1,1,3,3,3,3,1,1,1,1,1,0,0,0,74,74,74,1,0,1,0,,,,,,,,,0.7764458600320706,422.8930035701487,None,"[87. 93. 87. 93. 93. 93. 87. 93. 87. 93. 93. 87. 93. 87. 93. 87. 93. 93.
 93. 93. 93. 93. 87. 87. 93. 87. 87. 93. 87. 93. 93. 87. 87. 87.]",423.7589276207509,None,l,1,0.5735360476719507,423.7589276207509,None,None,None,14_AE,24,F,14,2021_Nov_02_1743,Partial repeat,2021.2.3,120.10939781135042,
5,7,0,1,1,3,3,3,3,1,1,1,1,1,0,0,0,74,74,74,,,,,,,,,,,,,,,,,,,,,,,,,,14_AE,24,F,14,2021_Nov_02_1743,Partial repeat,2021.2.3,120.10939781135042,
7,8,0,1,1,2,3,2,2,0,0,0,1,1,0,0,0,75,75,75,0,0,0,0,,,,,,,424.3584072357444,None,0.7053810576049967,425.4074955196702,None,"[93. 87. 87. 87. 87. 93. 93. 93. 93. 87. 93. 93. 87. 87. 93. 87. 93. 93.
 93. 93. 93. 87. 93. 93. 87. 93. 93. 93. 87. 93. 93. 87. 93. 93.]",426.1984861818637,None,s,1,0.567412720341963,426.1984861818637,None,None,None,14_AE,24,F,14,2021_Nov_02_1743,Partial repeat,2021.2.3,120.10939781135042,
7,8,0,1,1,2,3,2,2,0,0,0,1,1,0,0,0,75,75,75,1,0,1,0,,,,,,,,,0.8771233444041558,426.8146113180046,None,"[93. 87. 93. 87. 87. 93. 93. 93. 93. 87. 87. 87. 87. 93. 87. 93. 87. 87.
 87. 93. 87. 87. 87. 87. 93. 93. 87. 93. 93. 93. 93. 87. 87. 87.]",427.78044730147667,None,s,1,0.744032533330028,427.78044730147667,None,None,None,14_AE,24,F,14,2021_Nov_02_1743,Partial repeat,2021.2.3,120.10939781135042,
7,8,0,1,1,2,3,2,2,0,0,0,1,1,0,0,0,75,75,75,,,,,,,,,,,,,,,,,,,,,,,,,,14_AE,24,F,14,2021_Nov_02_1743,Partial repeat,2021.2.3,120.10939781135042,
4,5,0,1,1,2,3,2,3,1,1,0,0,1,0,0,0,76,76,76,0,0,0,0,,,,,,,428.53813537578753,None,0.7801462602786212,429.4123821869616,None,"[93. 87. 87. 93. 87. 93. 87. 87. 93. 87. 93. 93. 93. 87. 93. 87. 87. 87.
 87. 87. 87. 93. 87. 87. 93. 87. 93. 93. 87. 93. 93. 93. 87. 87.]",430.2782946919833,None,l,1,0.566198830751091,430.2782946919833,None,None,None,14_AE,24,F,14,2021_Nov_02_1743,Partial repeat,2021.2.3,120.10939781135042,
4,5,0,1,1,2,3,2,3,1,1,0,0,1,0,0,0,76,76,76,1,0,1,0,,,,,,,,,0.8252222340037217,430.90274355082875,None,"[93. 87. 93. 87. 87. 87. 93. 93. 93. 87. 87. 87. 87. 93. 87. 87. 93. 93.
 93. 87. 93. 93. 93. 93. 93. 93. 87. 93. 87. 93. 93. 87. 93. 93.]",431.81029615698935,None,l,1,0.6340175753830408,431.81029615698935,None,None,None,14_AE,24,F,14,2021_Nov_02_1743,Partial repeat,2021.2.3,120.10939781135042,
4,5,0,1,1,2,3,2,3,1,1,0,0,1,0,0,0,76,76,76,,,,,,,,,,,,,,,,,,,,,,,,,,14_AE,24,F,14,2021_Nov_02_1743,Partial repeat,2021.2.3,120.10939781135042,
6,7,0,1,1,3,3,3,2,1,0,1,0,0,0,0,0,77,77,77,0,0,0,0,,,,,,,432.46805337650585,None,0.9031109170641995,433.10917790329404,None,"[93. 93. 93. 87. 87. 93. 87. 93. 93. 93. 93. 93. 87. 93. 87. 93. 93. 87.
 93. 93. 87. 93. 93. 93. 87. 93. 87. 87. 93. 93. 87. 87. 93. 93.]",434.10833283088505,None,l,1,0.6561664902947086,434.10833283088505,None,None,None,14_AE,24,F,14,2021_Nov_02_1743,Partial repeat,2021.2.3,120.10939781135042,
6,7,0,1,1,3,3,3,2,1,0,1,0,0,0,0,0,77,77,77,1,0,1,0,,,,,,,,,0.9144343692240675,434.8243480915771,None,"[87. 87. 87. 93. 87. 93. 87. 93. 87. 87. 93. 87. 87. 87. 87. 93. 87. 87.
 87. 93. 87. 87. 87. 93. 87. 93. 87. 93. 93. 93. 93. 93. 87. 87.]",435.8318293075572,None,s,1,0.6127005837552133,435.8318293075572,None,None,None,14_AE,24,F,14,2021_Nov_02_1743,Partial repeat,2021.2.3,120.10939781135042,
6,7,0,1,1,3,3,3,2,1,0,1,0,0,0,0,0,77,77,77,,,,,,,,,,,,,,,,,,,,,,,,,,14_AE,24,F,14,2021_Nov_02_1743,Partial repeat,2021.2.3,120.10939781135042,
7,6,0,1,1,2,2,3,3,1,0,1,1,0,0,0,0,78,78,78,0,0,0,0,,,,,,,436.46462658382734,None,0.9891666721815711,437.26390729411287,None,"[87. 93. 93. 93. 87. 87. 93. 87. 93. 87. 87. 93. 87. 87. 93. 87. 93. 87.
 93. 87. 87. 93. 87. 87. 87. 87. 87. 87. 87. 87. 93. 93. 87. 93.]",438.3379519934715,None,l,1,0.5216530916477495,438.3379519934715,None,None,None,14_AE,24,F,14,2021_Nov_02_1743,Partial repeat,2021.2.3,120.10939781135042,
7,6,0,1,1,2,2,3,3,1,0,1,1,0,0,0,0,78,78,78,1,0,1,0,,,,,,,,,0.7680252260624159,438.92081751695514,None,"[87. 87. 87. 93. 87. 87. 93. 93. 93. 87. 87. 93. 93. 87. 93. 93. 93. 87.
 87. 87. 87. 87. 87. 93. 93. 93. 93. 87. 93. 93. 87. 87. 87. 93.]",439.7867386811595,None,l,0,1.3768015870628005,439.7867386811595,None,441.17718971570866,None,14_AE,24,F,14,2021_Nov_02_1743,Partial repeat,2021.2.3,120.10939781135042,
7,6,0,1,1,2,2,3,3,1,0,1,1,0,0,0,0,78,78,78,,,,,,,,,,,,,,,,,,,,,,,,,,14_AE,24,F,14,2021_Nov_02_1743,Partial repeat,2021.2.3,120.10939781135042,
5,4,0,1,1,3,3,2,3,1,0,1,0,0,0,0,0,79,79,79,0,0,0,0,,,,,,,441.6767670191475,None,0.9466992143220306,442.53436830917417,None,"[87. 93. 87. 87. 87. 93. 87. 93. 93. 87. 93. 93. 93. 93. 87. 87. 93. 93.
 93. 87. 93. 93. 93. 93. 93. 87. 87. 87. 87. 93. 93. 87. 93. 93.]",443.56678188728984,None,l,1,0.4767577779966814,443.56678188728984,None,None,None,14_AE,24,F,14,2021_Nov_02_1743,Partial repeat,2021.2.3,120.10939781135042,
5,4,0,1,1,3,3,2,3,1,0,1,0,0,0,0,0,79,79,79,1,0,1,0,,,,,,,,,0.7684616562801293,444.10798229420834,None,"[87. 93. 93. 87. 87. 93. 93. 87. 87. 93. 93. 87. 87. 93. 87. 87. 93. 87.
 87. 93. 87. 93. 93. 93. 87. 87. 93. 93. 93. 93. 87. 87. 93. 87.]",444.96556819012767,None,s,1,0.7423391814008937,444.96556819012767,None,None,None,14_AE,24,F,14,2021_Nov_02_1743,Partial repeat,2021.2.3,120.10939781135042,
5,4,0,1,1,3,3,2,3,1,0,1,0,0,0,0,0,79,79,79,,,,,,,,,,,,,,,,,,,,,,,,,,14_AE,24,F,14,2021_Nov_02_1743,Partial repeat,2021.2.3,120.10939781135042,
1,4,0,1,1,3,3,3,3,0,0,1,1,1,0,0,0,80,80,80,0,0,0,0,,,,,,,445.7398931263997,None,0.9041595675876104,446.84728659596294,None,"[93. 87. 87. 87. 87. 87. 93. 93. 93. 93. 93. 87. 87. 93. 87. 93. 93. 87.
 87. 87. 93. 93. 87. 93. 87. 93. 87. 93. 93. 87. 87. 93. 87. 93.]",447.8380947096848,None,s,1,0.509530551978969,447.8380947096848,None,None,None,14_AE,24,F,14,2021_Nov_02_1743,Partial repeat,2021.2.3,120.10939781135042,
1,4,0,1,1,3,3,3,3,0,0,1,1,1,0,0,0,80,80,80,1,0,1,0,,,,,,,,,0.9122637068093988,448.40427815101066,None,"[93. 93. 87. 93. 87. 87. 93. 87. 93. 87. 87. 93. 93. 87. 87. 93. 93. 93.
 87. 93. 93. 87. 93. 93. 87. 87. 93. 87. 93. 93. 93. 87. 87. 87.]",449.403395876172,None,l,0,0.7522199540326255,449.403395876172,None,450.17772626453007,None,14_AE,24,F,14,2021_Nov_02_1743,Partial repeat,2021.2.3,120.10939781135042,
1,4,0,1,1,3,3,3,3,0,0,1,1,1,0,0,0,80,80,80,,,,,,,,,,,,,,,,,,,,,,,,,,14_AE,24,F,14,2021_Nov_02_1743,Partial repeat,2021.2.3,120.10939781135042,
8,1,0,1,1,3,2,3,3,1,0,0,1,0,0,0,0,81,81,81,0,0,0,0,,,,,,,450.6773058129438,None,0.8959853027950957,451.2934267798446,None,"[93. 87. 87. 87. 87. 87. 93. 93. 87. 93. 87. 93. 93. 93. 93. 93. 87. 87.
 87. 87. 93. 93. 93. 93. 93. 93. 87. 87. 87. 93. 87. 87. 87. 87.]",452.2759114915716,None,l,1,0.7117263932595961,452.2759114915716,None,None,None,14_AE,24,F,14,2021_Nov_02_1743,Partial repeat,2021.2.3,120.10939781135042,
8,1,0,1,1,3,2,3,3,1,0,0,1,0,0,0,0,81,81,81,1,0,1,0,,,,,,,,,0.8045235082165519,453.05023322073976,None,"[87. 87. 87. 93. 93. 93. 87. 87. 87. 87. 87. 87. 93. 87. 87. 87. 93. 93.
 87. 93. 87. 87. 93. 87. 93. 87. 93. 93. 87. 93. 93. 87. 93. 93.]",453.94113677793575,None,s,1,0.6135292999242665,453.94113677793575,None,None,None,14_AE,24,F,14,2021_Nov_02_1743,Partial repeat,2021.2.3,120.10939781135042,
8,1,0,1,1,3,2,3,3,1,0,0,1,0,0,0,0,81,81,81,,,,,,,,,,,,,,,,,,,,,,,,,,14_AE,24,F,14,2021_Nov_02_1743,Partial repeat,2021.2.3,120.10939781135042,
7,4,0,1,1,3,2,2,2,0,1,0,1,0,0,0,0,82,82,82,0,0,0,0,,,,,,,454.56559654094235,None,0.8076431679134225,455.3565724504442,None,"[87. 93. 93. 93. 87. 87. 87. 87. 93. 87. 87. 87. 93. 93. 93. 93. 87. 93.
 93. 93. 93. 93. 87. 87. 93. 93. 93. 93. 87. 93. 93. 93. 93. 93.]",456.2474728005327,None,s,1,0.787218780231342,456.2474728005327,None,None,None,14_AE,24,F,14,2021_Nov_02_1743,Partial repeat,2021.2.3,120.10939781135042,
7,4,0,1,1,3,2,2,2,0,1,0,1,0,0,0,0,82,82,82,1,0,1,0,,,,,,,,,0.9306376489853062,457.0967368980091,None,"[87. 87. 93. 93. 93. 87. 87. 93. 87. 87. 93. 87. 93. 87. 87. 87. 93. 93.
 93. 93. 93. 87. 93. 93. 93. 87. 87. 87. 87. 87. 93. 87. 87. 87.]",458.11252900827094,None,l,1,0.5701454952941276,458.11252900827094,None,None,None,14_AE,24,F,14,2021_Nov_02_1743,Partial repeat,2021.2.3,120.10939781135042,
7,4,0,1,1,3,2,2,2,0,1,0,1,0,0,0,0,82,82,82,,,,,,,,,,,,,,,,,,,,,,,,,,14_AE,24,F,14,2021_Nov_02_1743,Partial repeat,2021.2.3,120.10939781135042,
5,3,0,1,1,3,2,3,3,1,1,0,1,1,0,0,0,83,83,83,0,0,0,0,,,,,,,458.6953647056689,None,0.9440940588159727,460.060834950782,None,"[87. 93. 93. 93. 87. 87. 93. 87. 87. 93. 87. 93. 87. 87. 87. 87. 87. 93.
 93. 93. 87. 87. 93. 93. 87. 93. 93. 87. 87. 93. 93. 87. 93. 87.]",461.0932796378256,None,l,1,0.5174206739648071,461.0932796378256,None,None,None,14_AE,24,F,14,2021_Nov_02_1743,Partial repeat,2021.2.3,120.10939781135042,
5,3,0,1,1,3,2,3,3,1,1,0,1,1,0,0,0,83,83,83,1,0,1,0,,,,,,,,,0.860222629467291,461.67610635532765,None,"[93. 87. 87. 87. 87. 87. 93. 87. 93. 93. 87. 93. 93. 87. 87. 87. 87. 93.
 87. 93. 93. 93. 87. 87. 93. 93. 93. 93. 93. 87. 87. 87. 93. 93.]",462.62527917857005,None,l,1,0.9054804903353215,462.62527917857005,None,None,None,14_AE,24,F,14,2021_Nov_02_1743,Partial repeat,2021.2.3,120.10939781135042,
5,3,0,1,1,3,2,3,3,1,1,0,1,1,0,0,0,83,83,83,,,,,,,,,,,,,,,,,,,,,,,,,,14_AE,24,F,14,2021_Nov_02_1743,Partial repeat,2021.2.3,120.10939781135042,
8,6,0,1,1,2,2,2,3,0,1,1,0,0,0,0,0,84,84,84,0,0,0,0,,,,,,,463.541160318091,None,0.9253944630004951,464.3238141084439,None,"[93. 87. 87. 93. 87. 87. 87. 93. 93. 93. 93. 93. 87. 87. 93. 87. 93. 93.
 87. 93. 87. 87. 87. 93. 93. 87. 93. 93. 93. 87. 93. 93. 93. 93.]",465.33961968855147,None,s,1,0.5751049638893164,465.33961968855147,None,None,None,14_AE,24,F,14,2021_Nov_02_1743,Partial repeat,2021.2.3,120.10939781135042,
8,6,0,1,1,2,2,2,3,0,1,1,0,0,0,0,0,84,84,84,1,0,1,0,,,,,,,,,0.8829197699054301,465.98070669220397,None,"[87. 87. 87. 93. 93. 87. 87. 87. 87. 93. 93. 93. 87. 93. 93. 87. 93. 87.
 87. 93. 93. 93. 93. 93. 87. 93. 93. 87. 93. 87. 93. 93. 93. 93.]",466.94654556207024,None,l,1,0.5997076355379249,466.94654556207024,None,None,None,14_AE,24,F,14,2021_Nov_02_1743,Partial repeat,2021.2.3,120.10939781135042,
8,6,0,1,1,2,2,2,3,0,1,1,0,0,0,0,0,84,84,84,,,,,,,,,,,,,,,,,,,,,,,,,,14_AE,24,F,14,2021_Nov_02_1743,Partial repeat,2021.2.3,120.10939781135042,
3,4,0,1,1,2,3,3,2,0,0,0,0,1,0,0,0,85,85,85,0,0,0,0,,,,,,,467.55435082403346,None,0.9547836441851507,468.1121964313861,None,"[87. 87. 87. 93. 93. 93. 87. 87. 93. 93. 87. 93. 93. 87. 87. 87. 93. 87.
 87. 93. 87. 87. 87. 87. 87. 93. 93. 93. 93. 87. 93. 93. 93. 87.]",469.15296933108766,None,s,1,0.5207910215758602,469.15296933108766,None,None,None,14_AE,24,F,14,2021_Nov_02_1743,Partial repeat,2021.2.3,120.10939781135042,
3,4,0,1,1,2,3,3,2,0,0,0,0,1,0,0,0,85,85,85,1,0,1,0,,,,,,,,,0.9704319294476779,469.7357905965073,None,"[93. 93. 93. 87. 87. 93. 93. 87. 87. 87. 93. 93. 87. 87. 87. 87. 87. 87.
 93. 87. 87. 93. 93. 87. 93. 87. 93. 87. 87. 93. 87. 93. 93. 87.]",470.78488914317495,None,l,0,0.5528733056526107,470.78488914317495,None,471.35939823147055,None,14_AE,24,F,14,2021_Nov_02_1743,Partial repeat,2021.2.3,120.10939781135042,
3,4,0,1,1,2,3,3,2,0,0,0,0,1,0,0,0,85,85,85,,,,,,,,,,,,,,,,,,,,,,,,,,14_AE,24,F,14,2021_Nov_02_1743,Partial repeat,2021.2.3,120.10939781135042,
8,3,0,1,1,2,2,3,2,1,0,1,0,0,0,0,0,86,86,86,0,0,0,0,,,,,,,471.85895853725015,None,0.908117546616911,473.39929462912187,None,"[93. 93. 87. 87. 93. 93. 93. 87. 87. 93. 93. 87. 87. 93. 93. 87. 87. 93.
 87. 93. 87. 93. 93. 93. 87. 87. 87. 87. 93. 93. 87. 87. 87. 93.]",474.39010594995125,None,l,1,0.9156701072679425,474.39010594995125,None,None,None,14_AE,24,F,14,2021_Nov_02_1743,Partial repeat,2021.2.3,120.10939781135042,
8,3,0,1,1,2,2,3,2,1,0,1,0,0,0,0,0,86,86,86,1,0,1,0,,,,,,,,,0.8894664433466966,475.3559387263158,None,"[87. 87. 93. 93. 87. 87. 87. 93. 87. 93. 93. 87. 87. 87. 87. 93. 87. 93.
 93. 93. 93. 87. 93. 87. 87. 93. 87. 87. 87. 87. 87. 93. 87. 87.]",476.33008945259644,None,s,1,0.6396922286003246,476.33008945259644,None,None,None,14_AE,24,F,14,2021_Nov_02_1743,Partial repeat,2021.2.3,120.10939781135042,
8,3,0,1,1,2,2,3,2,1,0,1,0,0,0,0,0,86,86,86,,,,,,,,,,,,,,,,,,,,,,,,,,14_AE,24,F,14,2021_Nov_02_1743,Partial repeat,2021.2.3,120.10939781135042,
6,4,0,1,1,2,3,3,3,1,0,0,1,0,0,0,0,87,87,87,0,0,0,0,,,,,,,476.99617937471703,None,0.9131966367910092,477.64562249284427,None,"[93. 87. 93. 87. 87. 93. 93. 87. 87. 93. 87. 93. 93. 93. 87. 93. 93. 93.
 93. 87. 93. 87. 87. 93. 93. 93. 87. 93. 87. 93. 93. 93. 87. 93.]",478.64475657424555,None,l,1,0.6930539811692142,478.64475657424555,None,None,None,14_AE,24,F,14,2021_Nov_02_1743,Partial repeat,2021.2.3,120.10939781135042,
6,4,0,1,1,2,3,3,3,1,0,0,1,0,0,0,0,87,87,87,1,0,1,0,,,,,,,,,0.914489499940226,479.4024292544491,None,"[87. 87. 87. 93. 87. 87. 93. 87. 93. 87. 93. 87. 87. 93. 93. 93. 87. 93.
 93. 87. 87. 93. 93. 93. 93. 93. 87. 87. 87. 87. 93. 87. 93. 87.]",480.40156878792914,None,s,1,0.6175471622227633,480.40156878792914,None,None,None,14_AE,24,F,14,2021_Nov_02_1743,Partial repeat,2021.2.3,120.10939781135042,
6,4,0,1,1,2,3,3,3,1,0,0,1,0,0,0,0,87,87,87,,,,,,,,,,,,,,,,,,,,,,,,,,14_AE,24,F,14,2021_Nov_02_1743,Partial repeat,2021.2.3,120.10939781135042,
6,6,0,1,1,3,3,3,2,0,0,1,0,1,0,0,0,88,88,88,0,0,0,0,,,,,,,481.0343513115113,None,0.9508190735790613,481.72541240174905,None,"[93. 93. 87. 93. 87. 87. 87. 93. 87. 93. 93. 93. 87. 87. 93. 87. 87. 87.
 87. 93. 87. 93. 87. 93. 93. 87. 93. 93. 93. 87. 93. 87. 93. 93.]",482.7745596964269,None,s,1,0.5632357855902228,482.7745596964269,None,None,None,14_AE,24,F,14,2021_Nov_02_1743,Partial repeat,2021.2.3,120.10939781135042,
6,6,0,1,1,3,3,3,2,0,0,1,0,1,0,0,0,88,88,88,1,0,1,0,,,,,,,,,0.9353968706304175,483.398970070004,None,"[87. 93. 87. 87. 93. 87. 87. 87. 93. 93. 87. 87. 93. 93. 87. 93. 93. 93.
 93. 87. 87. 87. 87. 93. 87. 93. 87. 87. 93. 93. 87. 87. 93. 87.]",484.4314295097356,None,s,1,0.6024679916044988,484.4314295097356,None,None,None,14_AE,24,F,14,2021_Nov_02_1743,Partial repeat,2021.2.3,120.10939781135042,
6,6,0,1,1,3,3,3,2,0,0,1,0,1,0,0,0,88,88,88,,,,,,,,,,,,,,,,,,,,,,,,,,14_AE,24,F,14,2021_Nov_02_1743,Partial repeat,2021.2.3,120.10939781135042,
4,1,0,1,1,3,3,2,2,1,1,1,1,1,0,0,0,89,89,89,0,0,0,0,,,,,,,485.06422229605596,None,0.8033200346376946,485.6970134788244,None,"[93. 87. 93. 93. 87. 87. 87. 93. 87. 87. 93. 93. 87. 87. 93. 87. 93. 93.
 93. 93. 93. 93. 87. 93. 87. 87. 87. 87. 87. 93. 87. 93. 93. 87.]",486.5878535353186,None,l,1,0.6049650442728307,486.5878535353186,None,None,None,14_AE,24,F,14,2021_Nov_02_1743,Partial repeat,2021.2.3,120.10939781135042,
4,1,0,1,1,3,3,2,2,1,1,1,1,1,0,0,0,89,89,89,1,0,1,0,,,,,,,,,0.8204614206905021,487.2539678314424,None,"[93. 87. 93. 87. 87. 87. 87. 93. 93. 93. 87. 93. 93. 87. 93. 87. 87. 87.
 87. 93. 93. 87. 93. 93. 93. 87. 87. 87. 87. 93. 87. 93. 93. 93.]",488.1698319733041,None,l,1,0.6870156421427964,488.1698319733041,None,None,None,14_AE,24,F,14,2021_Nov_02_1743,Partial repeat,2021.2.3,120.10939781135042,
4,1,0,1,1,3,3,2,2,1,1,1,1,1,0,0,0,89,89,89,,,,,,,,,,,,,,,,,,,,,,,,,,14_AE,24,F,14,2021_Nov_02_1743,Partial repeat,2021.2.3,120.10939781135042,
1,5,0,1,1,3,3,2,2,0,0,1,1,1,0,0,0,90,90,90,0,0,0,0,,,,,,,488.8859270909343,None,0.9273355093772269,491.29214554103237,None,"[93. 93. 87. 87. 87. 87. 93. 87. 87. 87. 93. 87. 87. 87. 93. 93. 93. 93.
 87. 93. 87. 93. 87. 93. 87. 93. 87. 87. 87. 87. 87. 87. 93. 93.]",492.30790429739136,None,s,1,0.5969803126608895,492.30790429739136,None,None,None,14_AE,24,F,14,2021_Nov_02_1743,Partial repeat,2021.2.3,120.10939781135042,
1,5,0,1,1,3,3,2,2,0,0,1,1,1,0,0,0,90,90,90,1,0,1,0,,,,,,,,,0.7054895983504073,492.96568043883235,None,"[93. 87. 87. 87. 93. 87. 93. 93. 87. 93. 93. 93. 87. 93. 93. 93. 93. 93.
 93. 87. 87. 87. 93. 93. 87. 87. 87. 93. 87. 87. 93. 87. 93. 93.]",493.7566884193948,None,s,1,0.700180170526437,493.7566884193948,None,None,None,14_AE,24,F,14,2021_Nov_02_1743,Partial repeat,2021.2.3,120.10939781135042,
1,5,0,1,1,3,3,2,2,0,0,1,1,1,0,0,0,90,90,90,,,,,,,,,,,,,,,,,,,,,,,,,,14_AE,24,F,14,2021_Nov_02_1743,Partial repeat,2021.2.3,120.10939781135042,
6,3,0,1,1,2,2,3,3,0,1,1,1,0,0,0,0,91,91,91,0,0,0,0,,,,,,,494.48934118347097,None,0.9353556933101846,495.1970910907876,None,"[87. 93. 87. 87. 87. 93. 87. 87. 93. 87. 93. 87. 93. 93. 93. 87. 87. 87.
 93. 93. 93. 93. 93. 87. 87. 87. 87. 93. 87. 93. 93. 93. 93. 93.]",496.2212072444672,None,s,1,0.5891418250830611,496.2212072444672,None,None,None,14_AE,24,F,14,2021_Nov_02_1743,Partial repeat,2021.2.3,120.10939781135042,
6,3,0,1,1,2,2,3,3,0,1,1,1,0,0,0,0,91,91,91,1,0,1,0,,,,,,,,,0.9359609735479063,496.86231605643843,None,"[87. 87. 87. 87. 93. 93. 93. 93. 93. 93. 87. 93. 87. 87. 87. 93. 87. 87.
 93. 87. 87. 93. 87. 93. 93. 93. 87. 93. 93. 87. 93. 87. 93. 87.]",497.8864318894084,None,l,1,0.650192614095431,497.8864318894084,None,None,None,14_AE,24,F,14,2021_Nov_02_1743,Partial repeat,2021.2.3,120.10939781135042,
6,3,0,1,1,2,2,3,3,0,1,1,1,0,0,0,0,91,91,91,,,,,,,,,,,,,,,,,,,,,,,,,,14_AE,24,F,14,2021_Nov_02_1743,Partial repeat,2021.2.3,120.10939781135042,
6,1,0,1,1,2,2,2,2,1,1,1,1,1,0,0,0,92,92,92,0,0,0,0,,,,,,,498.5525186044215,None,0.90658723692851,499.1353450012102,None,"[87. 93. 87. 87. 87. 93. 93. 87. 87. 93. 93. 93. 93. 87. 87. 93. 93. 93.
 87. 87. 87. 87. 93. 87. 87. 93. 93. 87. 87. 93. 87. 93. 87. 93.]",500.1261592084338,None,l,1,0.6977976115340425,500.1261592084338,None,None,None,14_AE,24,F,14,2021_Nov_02_1743,Partial repeat,2021.2.3,120.10939781135042,
6,1,0,1,1,2,2,2,2,1,1,1,1,1,0,0,0,92,92,92,1,0,1,0,,,,,,,,,0.7241818840835502,500.8838344543219,None,"[87. 87. 93. 87. 87. 87. 93. 87. 93. 93. 87. 87. 93. 87. 87. 87. 87. 87.
 87. 87. 93. 93. 93. 93. 93. 87. 93. 87. 93. 87. 87. 93. 87. 93.]",501.69147031694956,None,l,1,0.7324677093783976,501.69147031694956,None,None,None,14_AE,24,F,14,2021_Nov_02_1743,Partial repeat,2021.2.3,120.10939781135042,
6,1,0,1,1,2,2,2,2,1,1,1,1,1,0,0,0,92,92,92,,,,,,,,,,,,,,,,,,,,,,,,,,14_AE,24,F,14,2021_Nov_02_1743,Partial repeat,2021.2.3,120.10939781135042,
8,2,0,1,1,2,2,2,3,1,0,1,0,0,0,0,0,93,93,93,0,0,0,0,,,,,,,502.4491462042606,None,0.9020809126525313,504.622260650478,None,"[93. 93. 93. 87. 87. 93. 93. 87. 93. 93. 87. 87. 87. 93. 93. 93. 93. 87.
 87. 93. 87. 93. 93. 87. 87. 87. 87. 87. 87. 93. 93. 87. 87. 87.]",505.61307357485566,None,l,1,0.6028833118216426,505.61307357485566,None,None,None,14_AE,24,F,14,2021_Nov_02_1743,Partial repeat,2021.2.3,120.10939781135042,
8,2,0,1,1,2,2,2,3,1,0,1,0,0,0,0,0,93,93,93,1,0,1,0,,,,,,,,,0.7244316649313666,506.27916061058204,None,"[93. 87. 87. 93. 93. 87. 87. 87. 93. 93. 87. 93. 93. 93. 93. 87. 87. 87.
 87. 87. 93. 87. 93. 93. 93. 87. 93. 93. 87. 93. 87. 87. 87. 87.]",507.08678941757535,None,s,1,0.5532219180640823,507.08678941757535,None,None,None,14_AE,24,F,14,2021_Nov_02_1743,Partial repeat,2021.2.3,120.10939781135042,
8,2,0,1,1,2,2,2,3,1,0,1,0,0,0,0,0,93,93,93,,,,,,,,,,,,,,,,,,,,,,,,,,14_AE,24,F,14,2021_Nov_02_1743,Partial repeat,2021.2.3,120.10939781135042,
4,2,0,1,1,3,2,3,3,0,1,0,1,0,0,0,0,94,94,94,0,0,0,0,,,,,,,507.66129946800356,None,0.7207566273571175,509.72617473082573,None,"[93. 87. 87. 87. 87. 93. 87. 93. 87. 93. 93. 93. 93. 93. 87. 87. 93. 87.
 93. 93. 87. 93. 87. 87. 87. 93. 87. 87. 87. 87. 93. 87. 87. 93.]",510.5338218183242,None,l,0,0.46618138409394305,510.5338218183242,None,511.01672922661237,None,14_AE,24,F,14,2021_Nov_02_1743,Partial repeat,2021.2.3,120.10939781135042,
4,2,0,1,1,3,2,3,3,0,1,0,1,0,0,0,0,94,94,94,1,0,1,0,,,,,,,,,0.7003493002481369,511.5495943652422,None,"[87. 87. 93. 93. 93. 87. 93. 87. 87. 93. 87. 93. 93. 93. 93. 93. 87. 87.
 87. 93. 87. 87. 93. 87. 93. 87. 87. 93. 87. 87. 87. 93. 93. 87.]",512.3322574562008,None,l,1,0.5237482939446636,512.3322574562008,None,None,None,14_AE,24,F,14,2021_Nov_02_1743,Partial repeat,2021.2.3,120.10939781135042,
4,2,0,1,1,3,2,3,3,0,1,0,1,0,0,0,0,94,94,94,,,,,,,,,,,,,,,,,,,,,,,,,,14_AE,24,F,14,2021_Nov_02_1743,Partial repeat,2021.2.3,120.10939781135042,
1,8,0,1,1,3,2,2,2,0,0,0,1,1,0,0,0,95,95,95,0,0,0,0,,,,,,,512.8734569009866,None,0.784278957380019,513.4396348902337,None,"[93. 93. 87. 93. 93. 87. 93. 93. 93. 93. 93. 93. 93. 93. 93. 93. 93. 87.
 93. 87. 93. 87. 93. 87. 93. 93. 87. 87. 93. 87. 87. 93. 93. 93.]",514.3138858706443,None,s,1,0.5581316765164956,514.3138858706443,None,None,None,14_AE,24,F,14,2021_Nov_02_1743,Partial repeat,2021.2.3,120.10939781135042,
1,8,0,1,1,3,2,2,2,0,0,0,1,1,0,0,0,95,95,95,1,0,1,0,,,,,,,,,0.9603005791153978,514.9300187038389,None,"[87. 93. 87. 93. 87. 87. 87. 93. 87. 87. 93. 93. 87. 87. 87. 93. 87. 87.
 87. 87. 87. 87. 93. 93. 93. 87. 87. 93. 87. 93. 87. 93. 87. 93.]",515.9791092327432,None,s,1,0.603962823675829,515.9791092327432,None,None,None,14_AE,24,F,14,2021_Nov_02_1743,Partial repeat,2021.2.3,120.10939781135042,
1,8,0,1,1,3,2,2,2,0,0,0,1,1,0,0,0,95,95,95,,,,,,,,,,,,,,,,,,,,,,,,,,14_AE,24,F,14,2021_Nov_02_1743,Partial repeat,2021.2.3,120.10939781135042,
8,5,0,1,1,2,2,3,2,0,1,1,0,0,0,0,0,96,96,96,0,0,0,0,,,,,,,516.6118882285082,None,0.7957896792089048,517.7692134508579,None,"[87. 93. 93. 87. 93. 87. 87. 93. 93. 93. 93. 87. 93. 87. 87. 93. 93. 87.
 93. 87. 87. 93. 87. 87. 87. 93. 87. 93. 93. 87. 87. 93. 87. 87.]",518.651781419052,None,s,1,0.5232566446065903,518.651781419052,None,None,None,14_AE,24,F,14,2021_Nov_02_1743,Partial repeat,2021.2.3,120.10939781135042,
8,5,0,1,1,2,2,3,2,0,1,1,0,0,0,0,0,96,96,96,1,0,1,0,,,,,,,,,0.877249112497248,519.2262799238997,None,"[87. 93. 87. 93. 93. 93. 93. 87. 93. 87. 93. 87. 87. 87. 93. 87. 87. 87.
 93. 93. 87. 87. 93. 93. 87. 93. 87. 93. 93. 87. 93. 87. 93. 87.]",520.1921239251387,None,l,1,0.6309227181700408,520.1921239251387,None,None,None,14_AE,24,F,14,2021_Nov_02_1743,Partial repeat,2021.2.3,120.10939781135042,
8,5,0,1,1,2,2,3,2,0,1,1,0,0,0,0,0,96,96,96,,,,,,,,,,,,,,,,,,,,,,,,,,14_AE,24,F,14,2021_Nov_02_1743,Partial repeat,2021.2.3,120.10939781135042,
3,6,0,1,1,2,2,2,2,0,0,1,1,1,0,0,0,97,97,97,0,0,0,0,,,,,,,520.8415583840797,None,0.8570724519134957,522.2986322334655,None,"[87. 87. 87. 93. 93. 93. 93. 93. 93. 87. 87. 93. 93. 93. 87. 93. 93. 87.
 93. 87. 93. 87. 87. 93. 93. 93. 87. 93. 87. 87. 87. 93. 87. 93.]",523.2394855032398,None,s,1,0.6076060959967435,523.2394855032398,None,None,None,14_AE,24,F,14,2021_Nov_02_1743,Partial repeat,2021.2.3,120.10939781135042,
3,6,0,1,1,2,2,2,2,0,0,1,1,1,0,0,0,97,97,97,1,0,1,0,,,,,,,,,0.8474408105396047,523.9055664454609,None,"[93. 93. 93. 87. 93. 87. 93. 93. 93. 93. 87. 93. 93. 87. 93. 87. 93. 93.
 93. 93. 93. 87. 93. 87. 87. 87. 87. 87. 93. 87. 93. 87. 87. 93.]",524.8380991996346,None,s,1,0.6570134869689355,524.8380991996346,None,None,None,14_AE,24,F,14,2021_Nov_02_1743,Partial repeat,2021.2.3,120.10939781135042,
3,6,0,1,1,2,2,2,2,0,0,1,1,1,0,0,0,97,97,97,,,,,,,,,,,,,,,,,,,,,,,,,,14_AE,24,F,14,2021_Nov_02_1743,Partial repeat,2021.2.3,120.10939781135042,
7,1,0,1,1,3,3,2,3,0,0,1,0,1,0,0,0,98,98,98,0,0,0,0,,,,,,,525.5125186172481,None,0.8010179185282027,526.1869255271522,None,"[87. 87. 93. 87. 87. 87. 87. 87. 87. 93. 87. 93. 87. 87. 87. 87. 93. 87.
 93. 93. 93. 87. 93. 93. 87. 93. 87. 93. 93. 87. 93. 87. 87. 93.]",527.0778364606886,None,s,1,0.5782925064631854,527.0778364606886,None,None,None,14_AE,24,F,14,2021_Nov_02_1743,Partial repeat,2021.2.3,120.10939781135042,
7,1,0,1,1,3,3,2,3,0,0,1,0,1,0,0,0,98,98,98,1,0,1,0,,,,,,,,,0.9082750670937233,527.7106067972672,None,"[93. 93. 93. 93. 87. 87. 87. 93. 93. 93. 87. 93. 87. 87. 93. 93. 93. 87.
 87. 93. 93. 93. 93. 93. 93. 87. 93. 93. 93. 93. 87. 87. 93. 87.]",528.7014213252005,None,s,1,0.8250834762839077,528.7014213252005,None,None,None,14_AE,24,F,14,2021_Nov_02_1743,Partial repeat,2021.2.3,120.10939781135042,
7,1,0,1,1,3,3,2,3,0,0,1,0,1,0,0,0,98,98,98,,,,,,,,,,,,,,,,,,,,,,,,,,14_AE,24,F,14,2021_Nov_02_1743,Partial repeat,2021.2.3,120.10939781135042,
6,8,0,1,1,3,3,3,3,1,0,1,1,0,0,0,0,99,99,99,0,0,0,0,,,,,,,529.5590283880192,None,0.9802121559112493,530.1251848896536,None,"[87. 93. 93. 93. 87. 87. 87. 93. 93. 87. 93. 93. 93. 87. 87. 87. 93. 87.
 87. 87. 93. 87. 87. 93. 93. 87. 93. 87. 87. 93. 87. 87. 87. 87.]",531.1992680742842,None,s,0,0.6468960299207538,531.1992680742842,None,531.8653676177237,None,14_AE,24,F,14,2021_Nov_02_1743,Partial repeat,2021.2.3,120.10939781135042,
6,8,0,1,1,3,3,3,3,1,0,1,1,0,0,0,0,99,99,99,1,0,1,0,,,,,,,,,0.9644377042044918,532.4065510269793,None,"[93. 87. 93. 93. 93. 87. 93. 93. 93. 87. 87. 93. 87. 87. 87. 93. 93. 93.
 87. 93. 87. 93. 93. 93. 87. 87. 93. 93. 87. 93. 93. 87. 87. 87.]",533.4639928596989,None,s,1,0.5101315636275103,533.4639928596989,None,None,None,14_AE,24,F,14,2021_Nov_02_1743,Partial repeat,2021.2.3,120.10939781135042,
6,8,0,1,1,3,3,3,3,1,0,1,1,0,0,0,0,99,99,99,,,,,,,,,,,,,,,,,,,,,,,,,,14_AE,24,F,14,2021_Nov_02_1743,Partial repeat,2021.2.3,120.10939781135042,
2,5,0,1,1,2,2,2,3,1,1,1,0,1,0,0,0,100,100,100,0,0,0,0,,,,,,,533.9968509426944,None,0.734744251908709,534.5214096769923,None,"[93. 93. 87. 87. 93. 93. 87. 93. 87. 87. 87. 93. 87. 87. 93. 93. 93. 87.
 87. 93. 87. 93. 87. 87. 87. 87. 87. 93. 87. 93. 93. 93. 93. 93.]",535.345654179051,None,l,1,0.5810987241457042,535.345654179051,None,None,None,14_AE,24,F,14,2021_Nov_02_1743,Partial repeat,2021.2.3,120.10939781135042,
2,5,0,1,1,2,2,2,3,1,1,1,0,1,0,0,0,100,100,100,1,0,1,0,,,,,,,,,0.9398630207617484,535.9951088427588,None,"[87. 93. 87. 93. 87. 87. 93. 87. 93. 87. 87. 93. 93. 87. 93. 93. 87. 93.
 93. 87. 93. 87. 93. 93. 87. 87. 87. 93. 87. 93. 87. 87. 93. 93.]",537.0275811109132,None,l,1,0.706550765724387,537.0275811109132,None,None,None,14_AE,24,F,14,2021_Nov_02_1743,Partial repeat,2021.2.3,120.10939781135042,
2,5,0,1,1,2,2,2,3,1,1,1,0,1,0,0,0,100,100,100,,,,,,,,,,,,,,,,,,,,,,,,,,14_AE,24,F,14,2021_Nov_02_1743,Partial repeat,2021.2.3,120.10939781135042,
7,3,0,1,1,3,2,3,3,0,0,0,1,1,0,0,0,101,101,101,0,0,0,0,,,,,,,537.7602572868636,None,0.8480515098663822,538.5595582019159,None,"[87. 87. 87. 87. 87. 87. 87. 93. 87. 87. 87. 93. 93. 87. 93. 93. 87. 93.
 87. 87. 93. 87. 87. 87. 87. 93. 93. 93. 87. 87. 93. 87. 93. 87.]",539.5087605305307,None,s,1,0.6577796645724447,539.5087605305307,None,None,None,14_AE,24,F,14,2021_Nov_02_1743,Partial repeat,2021.2.3,120.10939781135042,
7,3,0,1,1,3,2,3,3,0,0,0,1,1,0,0,0,101,101,101,1,0,1,0,,,,,,,,,0.8088858060907796,540.2331434512816,None,"[93. 87. 87. 87. 93. 93. 87. 87. 93. 87. 87. 93. 87. 93. 87. 93. 87. 93.
 93. 87. 87. 87. 93. 93. 87. 87. 93. 87. 93. 93. 93. 93. 93. 93.]",541.1323040233765,None,s,1,0.8418964083575702,541.1323040233765,None,None,None,14_AE,24,F,14,2021_Nov_02_1743,Partial repeat,2021.2.3,120.10939781135042,
7,3,0,1,1,3,2,3,3,0,0,0,1,1,0,0,0,101,101,101,,,,,,,,,,,,,,,,,,,,,,,,,,14_AE,24,F,14,2021_Nov_02_1743,Partial repeat,2021.2.3,120.10939781135042,
4,4,0,1,1,2,3,2,2,1,0,0,1,0,0,0,0,102,102,102,0,0,0,0,,,,,,,541.9899130104568,None,0.96320716832706,542.6643414079699,None,"[93. 93. 93. 93. 93. 87. 93. 93. 87. 93. 93. 93. 93. 93. 87. 93. 93. 87.
 93. 87. 87. 93. 93. 87. 87. 93. 93. 87. 93. 93. 93. 87. 87. 93.]",543.7134248812399,None,l,1,0.5327349254439468,543.7134248812399,None,None,None,14_AE,24,F,14,2021_Nov_02_1743,Partial repeat,2021.2.3,120.10939781135042,
4,4,0,1,1,2,3,2,2,1,0,0,1,0,0,0,0,102,102,102,1,0,1,0,,,,,,,,,0.8028219682841743,544.2962503158997,None,"[93. 93. 87. 93. 87. 93. 93. 93. 93. 93. 93. 87. 87. 87. 93. 87. 87. 93.
 87. 93. 93. 93. 87. 93. 87. 93. 87. 87. 87. 87. 87. 87. 93. 87.]",545.1871535523824,None,s,1,0.7230936594824016,545.1871535523824,None,None,None,14_AE,24,F,14,2021_Nov_02_1743,Partial repeat,2021.2.3,120.10939781135042,
4,4,0,1,1,2,3,2,2,1,0,0,1,0,0,0,0,102,102,102,,,,,,,,,,,,,,,,,,,,,,,,,,14_AE,24,F,14,2021_Nov_02_1743,Partial repeat,2021.2.3,120.10939781135042,
2,3,0,1,1,2,2,2,2,0,1,1,1,0,0,0,0,103,103,103,0,0,0,0,,,,,,,545.9281874463595,None,0.9427207103600928,547.351950690103,None,"[87. 93. 93. 87. 87. 93. 93. 93. 87. 87. 87. 93. 87. 87. 93. 93. 87. 93.
