prime_tar_pos,probe_tar_pos,dimension,tar_color,tar_shape,prime_dist_color,probe_dist_color,prime_dist_shape,probe_dist_shape,prime_tar_ori,probe_tar_ori,col_rep,shape_rep,resp_rep,pos_fixed,sparse,MainLoop.thisRepN,MainLoop.thisTrialN,MainLoop.thisN,MainLoop.thisIndex,PrimeProbe.thisRepN,PrimeProbe.thisTrialN,PrimeProbe.thisN,PrimeProbe.thisIndex,Instruction.started,Instruction.stopped,instruction_key.keys,instruction_key.rt,instruction_key.started,instruction_key.stopped,PairStartText.started,PairStartText.stopped,fixdur,FixCross.started,FixCross.stopped,dist_ori,SearchFixCross.started,SearchFixCross.stopped,key_resp.keys,key_resp.corr,key_resp.rt,key_resp.started,key_resp.stopped,feedback_text.started,feedback_text.stopped,participant,age,gender,group,date,expName,psychopyVersion,frameRate,
,,,,,,,,,,,,,,,,,,,,,,,,30.947766019064375,None,space,3.585403134002945,30.947766019064375,None,,,,,,,,,,,,,,,,15_SS,23,F,15,2021_Nov_03_1011,Partial repeat,2021.2.3,120.10669933139167,
3,1,0,1,1,2,2,3,2,0,1,1,0,0,0,0,0,0,0,0,0,0,0,0,,,,,,,143.67614636765234,None,0.8911253460477941,213.98168448005913,None,"[93. 87. 87. 87. 93. 87. 93. 87. 93. 87. 93. 93. 87. 87. 87. 87. 93. 87.
 93. 87. 93. 87. 87. 87. 87. 93. 93. 87. 87. 93. 87. 93. 87. 93.]",214.95584923475008,None,s,1,1.008351846441883,214.95584923475008,None,None,None,15_SS,23,F,15,2021_Nov_03_1011,Partial repeat,2021.2.3,120.10669933139167,
3,1,0,1,1,2,2,3,2,0,1,1,0,0,0,0,0,0,0,0,1,0,1,0,,,,,,,,,0.7992333764811795,216.03825319925886,None,"[93. 87. 93. 87. 93. 87. 87. 93. 87. 87. 93. 87. 93. 93. 87. 93. 93. 93.
 93. 87. 93. 87. 93. 93. 87. 93. 93. 87. 93. 87. 87. 87. 87. 87.]",216.92082977076188,None,l,1,0.7551359106664677,216.92082977076188,None,None,None,15_SS,23,F,15,2021_Nov_03_1011,Partial repeat,2021.2.3,120.10669933139167,
3,1,0,1,1,2,2,3,2,0,1,1,0,0,0,0,0,0,0,0,,,,,,,,,,,,,,,,,,,,,,,,,,15_SS,23,F,15,2021_Nov_03_1011,Partial repeat,2021.2.3,120.10669933139167,
4,5,0,1,1,3,3,3,2,0,0,1,0,1,0,0,0,1,1,1,0,0,0,0,,,,,,,217.6951642460424,None,0.9622113378417434,219.09394830000406,None,"[93. 87. 87. 87. 87. 87. 93. 87. 93. 93. 87. 93. 93. 93. 93. 87. 87. 93.
 87. 93. 93. 87. 87. 93. 87. 93. 93. 87. 93. 93. 87. 93. 87. 93.]",220.13471716121467,None,s,1,0.692255586773399,220.13471716121467,None,None,None,15_SS,23,F,15,2021_Nov_03_1011,Partial repeat,2021.2.3,120.10669933139167,
4,5,0,1,1,3,3,3,2,0,0,1,0,1,0,0,0,1,1,1,1,0,1,0,,,,,,,,,0.8861349381432293,220.89239676132593,None,"[93. 87. 93. 87. 87. 87. 87. 93. 93. 87. 87. 87. 93. 93. 93. 87. 93. 93.
 87. 87. 87. 93. 87. 93. 93. 93. 87. 87. 93. 93. 87. 87. 87. 87.]",221.85823455949935,None,s,1,0.7767117849423357,221.85823455949935,None,None,None,15_SS,23,F,15,2021_Nov_03_1011,Partial repeat,2021.2.3,120.10669933139167,
4,5,0,1,1,3,3,3,2,0,0,1,0,1,0,0,0,1,1,1,,,,,,,,,,,,,,,,,,,,,,,,,,15_SS,23,F,15,2021_Nov_03_1011,Partial repeat,2021.2.3,120.10669933139167,
4,3,0,1,1,3,3,2,2,1,1,1,1,1,0,0,0,2,2,2,0,0,0,0,,,,,,,222.6658717294631,None,0.773221414986443,223.91481610716392,None,"[93. 93. 87. 87. 93. 93. 87. 93. 93. 87. 87. 87. 93. 93. 87. 87. 87. 93.
 87. 87. 93. 93. 87. 87. 87. 87. 93. 93. 87. 93. 93. 87. 87. 93.]",224.77238711432028,None,l,1,0.662617663778974,224.77238711432028,None,None,None,15_SS,23,F,15,2021_Nov_03_1011,Partial repeat,2021.2.3,120.10669933139167,
4,3,0,1,1,3,3,2,2,1,1,1,1,1,0,0,0,2,2,2,1,0,1,0,,,,,,,,,0.8309824820655265,225.5050970697862,None,"[87. 87. 87. 93. 87. 87. 87. 87. 87. 87. 93. 93. 87. 93. 93. 87. 93. 87.
 87. 87. 93. 93. 93. 87. 93. 87. 87. 93. 87. 87. 87. 87. 87. 93.]",226.41265066230176,None,s,0,0.7823579130229064,226.41265066230176,None,227.20362878784476,None,15_SS,23,F,15,2021_Nov_03_1011,Partial repeat,2021.2.3,120.10669933139167,
4,3,0,1,1,3,3,2,2,1,1,1,1,1,0,0,0,2,2,2,,,,,,,,,,,,,,,,,,,,,,,,,,15_SS,23,F,15,2021_Nov_03_1011,Partial repeat,2021.2.3,120.10669933139167,
3,4,0,1,1,3,2,2,3,0,0,0,0,1,0,0,0,3,3,3,0,0,0,0,,,,,,,227.70319518573388,None,0.9352404989362387,229.7680825229486,None,"[93. 93. 87. 93. 87. 93. 93. 87. 87. 87. 93. 87. 93. 93. 87. 93. 93. 93.
 87. 93. 87. 87. 93. 93. 93. 87. 93. 87. 87. 93. 93. 87. 87. 87.]",230.78388622947705,None,s,1,0.6511730695976894,230.78388622947705,None,None,None,15_SS,23,F,15,2021_Nov_03_1011,Partial repeat,2021.2.3,120.10669933139167,
3,4,0,1,1,3,2,2,3,0,0,0,0,1,0,0,0,3,3,3,1,0,1,0,,,,,,,,,0.88625752483747,231.49991918067167,None,"[93. 93. 93. 87. 87. 87. 93. 87. 87. 93. 93. 87. 87. 87. 87. 93. 93. 93.
 93. 93. 87. 87. 87. 87. 87. 93. 87. 93. 87. 93. 93. 87. 87. 93.]",232.46576884517526,None,s,1,0.6653360154750771,232.46576884517526,None,None,None,15_SS,23,F,15,2021_Nov_03_1011,Partial repeat,2021.2.3,120.10669933139167,
3,4,0,1,1,3,2,2,3,0,0,0,0,1,0,0,0,3,3,3,,,,,,,,,,,,,,,,,,,,,,,,,,15_SS,23,F,15,2021_Nov_03_1011,Partial repeat,2021.2.3,120.10669933139167,
2,2,0,1,1,2,3,2,3,0,0,0,0,1,0,0,0,4,4,4,0,0,0,0,,,,,,,233.1401782386904,None,0.9279376652869012,234.18927822566934,None,"[93. 87. 87. 87. 93. 93. 87. 93. 93. 93. 87. 93. 93. 93. 93. 93. 87. 93.
 93. 87. 87. 93. 93. 87. 87. 87. 93. 93. 87. 87. 93. 93. 87. 93.]",235.20506653804,None,s,1,0.6450272728122854,235.20506653804,None,None,None,15_SS,23,F,15,2021_Nov_03_1011,Partial repeat,2021.2.3,120.10669933139167,
2,2,0,1,1,2,3,2,3,0,0,0,0,1,0,0,0,4,4,4,1,0,1,0,,,,,,,,,0.7780574905099412,235.91278568189387,None,"[93. 93. 87. 93. 93. 93. 93. 87. 87. 87. 87. 87. 87. 93. 93. 93. 87. 87.
 93. 93. 87. 93. 87. 87. 93. 87. 93. 93. 93. 93. 87. 87. 93. 87.]",236.77038876021243,None,s,1,0.9847439433381169,236.77038876021243,None,None,None,15_SS,23,F,15,2021_Nov_03_1011,Partial repeat,2021.2.3,120.10669933139167,
2,2,0,1,1,2,3,2,3,0,0,0,0,1,0,0,0,4,4,4,,,,,,,,,,,,,,,,,,,,,,,,,,15_SS,23,F,15,2021_Nov_03_1011,Partial repeat,2021.2.3,120.10669933139167,
3,7,0,1,1,2,2,2,2,0,0,1,1,1,0,0,0,5,5,5,0,0,0,0,,,,,,,237.77785171962364,None,0.9556820146035049,239.31818922370485,None,"[93. 87. 87. 93. 93. 87. 87. 87. 93. 87. 87. 93. 93. 93. 87. 87. 87. 93.
 93. 93. 87. 87. 87. 87. 87. 93. 93. 87. 87. 87. 87. 87. 93. 87.]",240.35064363615152,None,s,1,0.971487649212122,240.35064363615152,None,None,None,15_SS,23,F,15,2021_Nov_03_1011,Partial repeat,2021.2.3,120.10669933139167,
3,7,0,1,1,2,2,2,2,0,0,1,1,1,0,0,0,5,5,5,1,0,1,0,,,,,,,,,0.8840046088871871,241.39140415886004,None,"[87. 93. 93. 93. 93. 93. 93. 93. 87. 87. 87. 87. 93. 87. 93. 87. 87. 87.
 87. 93. 87. 93. 93. 87. 93. 87. 87. 87. 93. 93. 93. 87. 87. 93.]",242.35723746707095,None,s,1,0.8689276007717126,242.35723746707095,None,None,None,15_SS,23,F,15,2021_Nov_03_1011,Partial repeat,2021.2.3,120.10669933139167,
3,7,0,1,1,2,2,2,2,0,0,1,1,1,0,0,0,5,5,5,,,,,,,,,,,,,,,,,,,,,,,,,,15_SS,23,F,15,2021_Nov_03_1011,Partial repeat,2021.2.3,120.10669933139167,
5,5,0,1,1,2,3,3,3,0,1,0,1,0,0,0,0,6,6,6,0,0,0,0,,,,,,,243.24813682584022,None,0.9223338500077117,244.42213346349968,None,"[93. 87. 93. 93. 87. 87. 93. 93. 93. 87. 93. 87. 93. 93. 93. 87. 87. 87.
 93. 87. 87. 93. 87. 93. 93. 93. 93. 87. 93. 87. 87. 87. 87. 93.]",245.42126690070063,None,s,1,0.6529081194651098,245.42126690070063,None,None,None,15_SS,23,F,15,2021_Nov_03_1011,Partial repeat,2021.2.3,120.10669933139167,
5,5,0,1,1,2,3,3,3,0,1,0,1,0,0,0,0,6,6,6,1,0,1,0,,,,,,,,,0.7385444673121377,246.14564220257057,None,"[93. 93. 87. 87. 93. 87. 87. 87. 93. 87. 93. 93. 87. 93. 87. 87. 93. 93.
 87. 93. 87. 93. 93. 93. 87. 87. 93. 87. 93. 87. 87. 93. 87. 93.]",246.96160504620502,None,l,1,0.7137868821339453,246.96160504620502,None,None,None,15_SS,23,F,15,2021_Nov_03_1011,Partial repeat,2021.2.3,120.10669933139167,
5,5,0,1,1,2,3,3,3,0,1,0,1,0,0,0,0,6,6,6,,,,,,,,,,,,,,,,,,,,,,,,,,15_SS,23,F,15,2021_Nov_03_1011,Partial repeat,2021.2.3,120.10669933139167,
2,3,0,1,1,2,3,2,2,1,0,0,1,0,0,0,0,7,7,7,0,0,0,0,,,,,,,247.69430441818758,None,0.7438148386978835,248.73508450430495,None,"[93. 93. 93. 93. 93. 87. 87. 93. 87. 93. 87. 87. 93. 87. 93. 93. 87. 93.
 93. 87. 87. 93. 93. 93. 93. 87. 87. 93. 87. 87. 93. 87. 93. 93.]",249.55936885235928,None,l,1,0.8517807539765272,249.55936885235928,None,None,None,15_SS,23,F,15,2021_Nov_03_1011,Partial repeat,2021.2.3,120.10669933139167,
2,3,0,1,1,2,3,2,2,1,0,0,1,0,0,0,0,7,7,7,1,0,1,0,,,,,,,,,0.8143487158632512,250.4752426664479,None,"[87. 93. 87. 93. 87. 93. 87. 87. 87. 87. 87. 87. 87. 93. 93. 87. 87. 87.
 87. 87. 93. 87. 87. 93. 87. 87. 93. 87. 93. 87. 87. 87. 87. 87.]",251.36615260870053,None,s,1,0.6591302456163248,251.36615260870053,None,None,None,15_SS,23,F,15,2021_Nov_03_1011,Partial repeat,2021.2.3,120.10669933139167,
2,3,0,1,1,2,3,2,2,1,0,0,1,0,0,0,0,7,7,7,,,,,,,,,,,,,,,,,,,,,,,,,,15_SS,23,F,15,2021_Nov_03_1011,Partial repeat,2021.2.3,120.10669933139167,
2,8,0,1,1,2,2,2,2,1,0,1,1,0,0,0,0,8,8,8,0,0,0,0,,,,,,,252.04891012569988,None,0.842262109741128,253.63085771757255,None,"[93. 93. 93. 93. 87. 93. 93. 87. 93. 93. 87. 87. 93. 87. 93. 87. 87. 93.
 87. 87. 87. 93. 93. 87. 93. 93. 93. 93. 93. 93. 87. 87. 87. 93.]",254.5550620160061,None,s,0,0.6222144138155272,254.5550620160061,None,255.1961770533403,None,15_SS,23,F,15,2021_Nov_03_1011,Partial repeat,2021.2.3,120.10669933139167,
2,8,0,1,1,2,2,2,2,1,0,1,1,0,0,0,0,8,8,8,1,0,1,0,,,,,,,,,0.980176191689854,255.73737727168077,None,"[87. 87. 87. 87. 93. 93. 93. 87. 93. 93. 93. 93. 93. 87. 87. 93. 87. 93.
 93. 93. 87. 87. 93. 87. 87. 87. 93. 93. 93. 93. 87. 87. 93. 93.]",256.803124757462,None,s,1,0.7741832945257556,256.803124757462,None,None,None,15_SS,23,F,15,2021_Nov_03_1011,Partial repeat,2021.2.3,120.10669933139167,
2,8,0,1,1,2,2,2,2,1,0,1,1,0,0,0,0,8,8,8,,,,,,,,,,,,,,,,,,,,,,,,,,15_SS,23,F,15,2021_Nov_03_1011,Partial repeat,2021.2.3,120.10669933139167,
1,5,0,1,1,2,3,3,3,1,0,0,1,0,0,0,0,9,9,9,0,0,0,0,,,,,,,257.60243400877357,None,0.8499406066006266,258.42673567525526,None,"[93. 87. 93. 93. 87. 87. 87. 87. 87. 87. 87. 93. 87. 87. 87. 93. 93. 87.
 93. 87. 93. 93. 93. 87. 87. 93. 87. 93. 93. 93. 93. 87. 87. 87.]",259.3509338801682,None,l,1,0.6743858559852924,259.3509338801682,None,None,None,15_SS,23,F,15,2021_Nov_03_1011,Partial repeat,2021.2.3,120.10669933139167,
1,5,0,1,1,2,3,3,3,1,0,0,1,0,0,0,0,9,9,9,1,0,1,0,,,,,,,,,0.8161806224091155,260.0919794513652,None,"[87. 87. 93. 87. 87. 93. 93. 87. 87. 93. 93. 87. 93. 93. 93. 87. 93. 87.
 93. 87. 93. 87. 93. 87. 87. 93. 87. 87. 87. 93. 87. 93. 93. 93.]",260.9828691887858,None,s,1,0.818493453451083,260.9828691887858,None,None,None,15_SS,23,F,15,2021_Nov_03_1011,Partial repeat,2021.2.3,120.10669933139167,
1,5,0,1,1,2,3,3,3,1,0,0,1,0,0,0,0,9,9,9,,,,,,,,,,,,,,,,,,,,,,,,,,15_SS,23,F,15,2021_Nov_03_1011,Partial repeat,2021.2.3,120.10669933139167,
7,8,0,1,1,2,3,2,2,0,1,0,1,0,0,0,0,10,10,10,0,0,0,0,,,,,,,261.83210586305745,None,0.754001269907121,262.63143756418253,None,"[93. 93. 93. 87. 87. 87. 87. 87. 87. 87. 93. 87. 87. 93. 93. 87. 87. 93.
 87. 87. 93. 87. 87. 93. 93. 93. 93. 93. 93. 93. 93. 87. 87. 87.]",263.4640379645589,None,s,1,0.6893361488910159,263.4640379645589,None,None,None,15_SS,23,F,15,2021_Nov_03_1011,Partial repeat,2021.2.3,120.10669933139167,
7,8,0,1,1,2,3,2,2,0,1,0,1,0,0,0,0,10,10,10,1,0,1,0,,,,,,,,,0.7904853394414797,264.2134092094268,None,"[93. 93. 87. 87. 93. 93. 93. 87. 87. 87. 87. 93. 93. 93. 87. 93. 87. 87.
 87. 87. 93. 93. 87. 93. 87. 93. 93. 87. 93. 93. 93. 87. 93. 93.]",265.07932769864397,None,l,1,0.83404508064541,265.07932769864397,None,None,None,15_SS,23,F,15,2021_Nov_03_1011,Partial repeat,2021.2.3,120.10669933139167,
7,8,0,1,1,2,3,2,2,0,1,0,1,0,0,0,0,10,10,10,,,,,,,,,,,,,,,,,,,,,,,,,,15_SS,23,F,15,2021_Nov_03_1011,Partial repeat,2021.2.3,120.10669933139167,
8,2,0,1,1,2,2,2,3,1,0,1,0,0,0,0,0,11,11,11,0,0,0,0,,,,,,,265.94526286486575,None,0.9182017169730778,267.119236732,None,"[87. 93. 93. 93. 87. 87. 87. 93. 93. 87. 87. 87. 93. 87. 87. 87. 87. 87.
 93. 93. 93. 93. 93. 93. 87. 87. 93. 87. 93. 87. 87. 87. 87. 87.]",268.11837818699155,None,l,1,0.8020252324447483,268.11837818699155,None,None,None,15_SS,23,F,15,2021_Nov_03_1011,Partial repeat,2021.2.3,120.10669933139167,
8,2,0,1,1,2,2,2,3,1,0,1,0,0,0,0,0,11,11,11,1,0,1,0,,,,,,,,,0.817331865707173,268.98428929984175,None,"[87. 93. 87. 93. 93. 87. 87. 93. 87. 87. 87. 93. 93. 87. 93. 93. 87. 93.
 87. 87. 87. 93. 93. 87. 87. 93. 93. 93. 87. 87. 93. 93. 93. 93.]",269.8835245950536,None,s,1,0.7489099359756892,269.8835245950536,None,None,None,15_SS,23,F,15,2021_Nov_03_1011,Partial repeat,2021.2.3,120.10669933139167,
8,2,0,1,1,2,2,2,3,1,0,1,0,0,0,0,0,11,11,11,,,,,,,,,,,,,,,,,,,,,,,,,,15_SS,23,F,15,2021_Nov_03_1011,Partial repeat,2021.2.3,120.10669933139167,
5,8,0,1,1,3,3,2,3,1,1,1,0,1,0,0,0,12,12,12,0,0,0,0,,,,,,,270.65785361823646,None,0.9173098800048431,271.69862536585197,None,"[93. 93. 93. 87. 93. 93. 93. 87. 93. 87. 93. 93. 93. 93. 87. 87. 93. 87.
 87. 93. 87. 87. 87. 93. 87. 87. 93. 87. 93. 93. 87. 87. 93. 93.]",272.69776457586227,None,l,1,0.8306965306148868,272.69776457586227,None,None,None,15_SS,23,F,15,2021_Nov_03_1011,Partial repeat,2021.2.3,120.10669933139167,
5,8,0,1,1,3,3,2,3,1,1,1,0,1,0,0,0,12,12,12,1,0,1,0,,,,,,,,,0.9904913176682674,273.5970005124973,None,"[87. 93. 87. 93. 87. 93. 87. 93. 93. 93. 93. 87. 93. 93. 87. 87. 93. 93.
 93. 93. 93. 93. 87. 87. 93. 93. 87. 87. 93. 87. 87. 87. 93. 87.]",274.6627399804879,None,l,1,0.8977319942644044,274.6627399804879,None,None,None,15_SS,23,F,15,2021_Nov_03_1011,Partial repeat,2021.2.3,120.10669933139167,
5,8,0,1,1,3,3,2,3,1,1,1,0,1,0,0,0,12,12,12,,,,,,,,,,,,,,,,,,,,,,,,,,15_SS,23,F,15,2021_Nov_03_1011,Partial repeat,2021.2.3,120.10669933139167,
2,6,0,1,1,2,2,2,3,0,0,1,0,1,0,0,0,13,13,13,0,0,0,0,,,,,,,275.57861507742314,None,0.8714588312672864,276.39458754240627,None,"[87. 93. 87. 93. 93. 93. 93. 93. 87. 93. 87. 93. 87. 93. 87. 93. 87. 93.
 87. 93. 93. 93. 87. 87. 87. 93. 93. 93. 87. 87. 93. 87. 87. 87.]",277.34376212690813,None,s,1,0.680732738956749,277.34376212690813,None,None,None,15_SS,23,F,15,2021_Nov_03_1011,Partial repeat,2021.2.3,120.10669933139167,
2,6,0,1,1,2,2,2,3,0,0,1,0,1,0,0,0,13,13,13,1,0,1,0,,,,,,,,,0.7285032005822055,278.0931166947719,None,"[87. 87. 87. 93. 87. 87. 87. 93. 93. 93. 87. 87. 87. 93. 87. 93. 93. 93.
 87. 87. 93. 93. 87. 93. 93. 87. 87. 93. 93. 93. 93. 93. 87. 87.]",278.9007557890052,None,s,1,0.7717702602919871,278.9007557890052,None,None,None,15_SS,23,F,15,2021_Nov_03_1011,Partial repeat,2021.2.3,120.10669933139167,
2,6,0,1,1,2,2,2,3,0,0,1,0,1,0,0,0,13,13,13,,,,,,,,,,,,,,,,,,,,,,,,,,15_SS,23,F,15,2021_Nov_03_1011,Partial repeat,2021.2.3,120.10669933139167,
8,1,0,1,1,2,2,2,2,0,1,1,1,0,0,0,0,14,14,14,0,0,0,0,,,,,,,279.6917345559716,None,0.9311312184710514,280.4993758951864,None,"[87. 87. 93. 93. 93. 93. 93. 87. 93. 93. 93. 87. 87. 93. 93. 93. 93. 87.
 93. 87. 93. 93. 93. 87. 93. 93. 93. 93. 87. 87. 93. 93. 87. 93.]",281.5068404581559,None,s,1,0.6456917872899339,281.5068404581559,None,None,None,15_SS,23,F,15,2021_Nov_03_1011,Partial repeat,2021.2.3,120.10669933139167,
8,1,0,1,1,2,2,2,2,0,1,1,1,0,0,0,0,14,14,14,1,0,1,0,,,,,,,,,0.8794374684134907,282.2145647333957,None,"[93. 93. 87. 87. 93. 93. 87. 93. 87. 87. 93. 93. 87. 93. 93. 93. 87. 93.
 93. 93. 87. 87. 93. 87. 87. 93. 87. 87. 93. 87. 93. 93. 93. 87.]",283.1720742922055,None,l,1,0.6114904586459033,283.1720742922055,None,None,None,15_SS,23,F,15,2021_Nov_03_1011,Partial repeat,2021.2.3,120.10669933139167,
8,1,0,1,1,2,2,2,2,0,1,1,1,0,0,0,0,14,14,14,,,,,,,,,,,,,,,,,,,,,,,,,,15_SS,23,F,15,2021_Nov_03_1011,Partial repeat,2021.2.3,120.10669933139167,
8,5,0,1,1,3,2,2,2,1,1,0,1,1,0,0,0,15,15,15,0,0,0,0,,,,,,,283.8048607694643,None,0.9489458944395943,284.5792122424607,None,"[93. 93. 87. 93. 87. 93. 93. 93. 87. 93. 87. 93. 87. 93. 93. 93. 87. 93.
 93. 93. 87. 93. 87. 87. 93. 93. 93. 93. 87. 93. 93. 87. 93. 93.]",285.6033140414604,None,l,1,0.9813367030806148,285.6033140414604,None,None,None,15_SS,23,F,15,2021_Nov_03_1011,Partial repeat,2021.2.3,120.10669933139167,
8,5,0,1,1,3,2,2,2,1,1,0,1,1,0,0,0,15,15,15,1,0,1,0,,,,,,,,,0.8008105948118219,286.64408226124783,None,"[93. 93. 87. 93. 93. 93. 87. 87. 87. 93. 87. 93. 87. 87. 93. 93. 87. 93.
 93. 93. 87. 87. 93. 93. 87. 87. 87. 87. 87. 93. 87. 93. 93. 87.]",287.52665787061596,None,l,1,0.6739663651853789,287.52665787061596,None,None,None,15_SS,23,F,15,2021_Nov_03_1011,Partial repeat,2021.2.3,120.10669933139167,
8,5,0,1,1,3,2,2,2,1,1,0,1,1,0,0,0,15,15,15,,,,,,,,,,,,,,,,,,,,,,,,,,15_SS,23,F,15,2021_Nov_03_1011,Partial repeat,2021.2.3,120.10669933139167,
1,4,0,1,1,3,2,2,3,0,1,0,0,0,0,0,0,16,16,16,0,0,0,0,,,,,,,288.2260510200874,None,0.8223611772084164,289.58321664775553,None,"[93. 93. 87. 93. 93. 87. 93. 87. 93. 87. 93. 87. 87. 93. 93. 93. 93. 93.
 87. 93. 93. 87. 93. 87. 87. 93. 87. 93. 93. 87. 93. 87. 93. 93.]",290.4907766545032,None,s,1,0.8288550044892418,290.4907766545032,None,None,None,15_SS,23,F,15,2021_Nov_03_1011,Partial repeat,2021.2.3,120.10669933139167,
1,4,0,1,1,3,2,2,3,0,1,0,0,0,0,0,0,16,16,16,1,0,1,0,,,,,,,,,0.8057505248268404,291.38999527271085,None,"[93. 93. 87. 93. 93. 93. 87. 93. 93. 87. 93. 87. 87. 93. 87. 87. 93. 87.
 87. 87. 87. 87. 93. 93. 87. 87. 93. 87. 93. 93. 87. 87. 93. 93.]",292.27256639211623,None,l,1,0.8870955933671212,292.27256639211623,None,None,None,15_SS,23,F,15,2021_Nov_03_1011,Partial repeat,2021.2.3,120.10669933139167,
1,4,0,1,1,3,2,2,3,0,1,0,0,0,0,0,0,16,16,16,,,,,,,,,,,,,,,,,,,,,,,,,,15_SS,23,F,15,2021_Nov_03_1011,Partial repeat,2021.2.3,120.10669933139167,
4,7,0,1,1,2,3,3,2,0,1,0,0,0,0,0,0,17,17,17,0,0,0,0,,,,,,,293.18011453253393,None,0.9826803133741893,294.0210572835854,None,"[93. 87. 87. 93. 87. 93. 87. 87. 87. 87. 87. 93. 93. 87. 93. 93. 87. 93.
 87. 87. 93. 87. 93. 93. 87. 93. 87. 87. 87. 87. 87. 87. 87. 93.]",295.0784787749842,None,s,1,0.7861644392478411,295.0784787749842,None,None,None,15_SS,23,F,15,2021_Nov_03_1011,Partial repeat,2021.2.3,120.10669933139167,
4,7,0,1,1,2,3,3,2,0,1,0,0,0,0,0,0,17,17,17,1,0,1,0,,,,,,,,,0.9134182891534518,295.92774784112976,None,"[87. 87. 87. 87. 93. 87. 93. 87. 87. 93. 93. 87. 87. 93. 87. 93. 87. 93.
 93. 87. 87. 93. 93. 87. 93. 93. 87. 87. 87. 93. 93. 87. 93. 87.]",296.9185588117764,None,s,0,1.0081549295068726,296.9185588117764,None,297.94268017418494,None,15_SS,23,F,15,2021_Nov_03_1011,Partial repeat,2021.2.3,120.10669933139167,
4,7,0,1,1,2,3,3,2,0,1,0,0,0,0,0,0,17,17,17,,,,,,,,,,,,,,,,,,,,,,,,,,15_SS,23,F,15,2021_Nov_03_1011,Partial repeat,2021.2.3,120.10669933139167,
6,7,0,1,1,2,3,2,2,1,1,0,1,1,0,0,0,18,18,18,0,0,0,0,,,,,,,298.4422484963436,None,0.9080012946275028,299.8327116873088,None,"[87. 93. 87. 87. 93. 87. 87. 93. 87. 93. 87. 93. 87. 87. 93. 93. 93. 87.
 87. 93. 93. 93. 87. 87. 93. 93. 87. 87. 87. 87. 93. 87. 87. 87.]",300.8152066056332,None,l,1,0.711532279441144,300.8152066056332,None,None,None,15_SS,23,F,15,2021_Nov_03_1011,Partial repeat,2021.2.3,120.10669933139167,
6,7,0,1,1,2,3,2,2,1,1,0,1,1,0,0,0,18,18,18,1,0,1,0,,,,,,,,,0.8367369830599104,301.58953819450903,None,"[93. 93. 87. 87. 93. 93. 93. 87. 93. 87. 93. 87. 93. 93. 87. 93. 93. 87.
 93. 87. 87. 93. 93. 87. 93. 87. 93. 87. 87. 87. 87. 93. 93. 87.]",302.50543606196925,None,l,1,1.0535490937099894,302.50543606196925,None,None,None,15_SS,23,F,15,2021_Nov_03_1011,Partial repeat,2021.2.3,120.10669933139167,
6,7,0,1,1,2,3,2,2,1,1,0,1,1,0,0,0,18,18,18,,,,,,,,,,,,,,,,,,,,,,,,,,15_SS,23,F,15,2021_Nov_03_1011,Partial repeat,2021.2.3,120.10669933139167,
7,7,0,1,1,3,2,3,2,1,1,0,0,1,0,0,0,19,19,19,0,0,0,0,,,,,,,303.57948997872404,None,0.8235274272959714,304.545324890493,None,"[93. 93. 93. 87. 93. 87. 93. 93. 87. 87. 87. 87. 93. 87. 93. 93. 93. 87.
 93. 87. 87. 87. 93. 87. 87. 93. 93. 93. 87. 87. 93. 87. 93. 87.]",305.44455377147256,None,l,1,0.9782043126824647,305.44455377147256,None,None,None,15_SS,23,F,15,2021_Nov_03_1011,Partial repeat,2021.2.3,120.10669933139167,
7,7,0,1,1,3,2,3,2,1,1,0,0,1,0,0,0,19,19,19,1,0,1,0,,,,,,,,,0.8803658051807726,306.4853203877019,None,"[87. 93. 93. 87. 93. 93. 87. 93. 87. 93. 93. 87. 87. 93. 93. 87. 93. 93.
 87. 87. 87. 93. 93. 93. 93. 87. 87. 93. 87. 87. 93. 87. 93. 93.]",307.4428286636653,None,l,1,0.7399489325846389,307.4428286636653,None,None,None,15_SS,23,F,15,2021_Nov_03_1011,Partial repeat,2021.2.3,120.10669933139167,
7,7,0,1,1,3,2,3,2,1,1,0,0,1,0,0,0,19,19,19,,,,,,,,,,,,,,,,,,,,,,,,,,15_SS,23,F,15,2021_Nov_03_1011,Partial repeat,2021.2.3,120.10669933139167,
6,3,0,1,1,2,2,3,3,1,1,1,1,1,0,0,0,20,20,20,0,0,0,0,,,,,,,308.2088512558746,None,0.9352592194117353,309.15801557760483,None,"[93. 87. 87. 93. 93. 87. 87. 87. 93. 87. 87. 93. 87. 93. 93. 87. 87. 87.
 87. 87. 87. 93. 93. 93. 87. 87. 87. 93. 93. 93. 93. 93. 93. 93.]",310.1737968343198,None,l,1,0.6170224133895772,310.1737968343198,None,None,None,15_SS,23,F,15,2021_Nov_03_1011,Partial repeat,2021.2.3,120.10669933139167,
6,3,0,1,1,2,2,3,3,1,1,1,1,1,0,0,0,20,20,20,1,0,1,0,,,,,,,,,0.9801168142100231,310.85655274776104,None,"[93. 93. 87. 93. 87. 87. 93. 87. 87. 93. 93. 93. 93. 93. 93. 87. 93. 87.
 93. 93. 93. 93. 93. 87. 93. 87. 87. 87. 93. 93. 93. 93. 93. 93.]",311.9139780876992,None,l,1,0.668844600604416,311.9139780876992,None,None,None,15_SS,23,F,15,2021_Nov_03_1011,Partial repeat,2021.2.3,120.10669933139167,
6,3,0,1,1,2,2,3,3,1,1,1,1,1,0,0,0,20,20,20,,,,,,,,,,,,,,,,,,,,,,,,,,15_SS,23,F,15,2021_Nov_03_1011,Partial repeat,2021.2.3,120.10669933139167,
4,6,0,1,1,2,3,3,2,0,0,0,0,1,0,0,0,21,21,21,0,0,0,0,,,,,,,312.60504716705805,None,0.9629293903118469,313.39603587608485,None,"[93. 87. 87. 87. 93. 87. 87. 93. 87. 93. 93. 93. 87. 87. 93. 87. 93. 93.
 87. 93. 87. 93. 87. 87. 87. 93. 93. 87. 87. 87. 93. 93. 87. 87.]",314.4368024923142,None,s,1,0.7690621713677501,314.4368024923142,None,None,None,15_SS,23,F,15,2021_Nov_03_1011,Partial repeat,2021.2.3,120.10669933139167,
4,6,0,1,1,2,3,3,2,0,0,0,0,1,0,0,0,21,21,21,1,0,1,0,,,,,,,,,0.8034304328188349,315.2694166832903,None,"[87. 93. 87. 93. 93. 87. 93. 93. 93. 93. 93. 87. 87. 87. 87. 87. 93. 93.
 93. 93. 87. 93. 87. 93. 93. 87. 87. 87. 93. 93. 87. 87. 87. 87.]",316.1519913305235,None,s,1,1.069869787370635,316.1519913305235,None,None,None,15_SS,23,F,15,2021_Nov_03_1011,Partial repeat,2021.2.3,120.10669933139167,
4,6,0,1,1,2,3,3,2,0,0,0,0,1,0,0,0,21,21,21,,,,,,,,,,,,,,,,,,,,,,,,,,15_SS,23,F,15,2021_Nov_03_1011,Partial repeat,2021.2.3,120.10669933139167,
8,7,0,1,1,3,3,3,2,1,1,1,0,1,0,0,0,22,22,22,0,0,0,0,,,,,,,317.2510421524112,None,0.8076592221830351,318.4583369947911,None,"[93. 87. 93. 93. 93. 93. 87. 93. 93. 93. 87. 93. 93. 87. 87. 87. 93. 87.
 93. 93. 93. 87. 93. 87. 87. 87. 87. 87. 87. 93. 93. 87. 93. 93.]",319.34091292487074,None,l,1,1.0327217603567078,319.34091292487074,None,None,None,15_SS,23,F,15,2021_Nov_03_1011,Partial repeat,2021.2.3,120.10669933139167,
8,7,0,1,1,3,3,3,2,1,1,1,0,1,0,0,0,22,22,22,1,0,1,0,,,,,,,,,0.7654913360610223,320.4316367902411,None,"[87. 93. 87. 87. 93. 87. 87. 93. 93. 87. 93. 93. 87. 93. 87. 93. 87. 93.
 87. 87. 93. 93. 93. 93. 93. 93. 87. 87. 87. 87. 87. 93. 87. 93.]",321.27259621829694,None,l,1,0.9417095752392015,321.27259621829694,None,None,None,15_SS,23,F,15,2021_Nov_03_1011,Partial repeat,2021.2.3,120.10669933139167,
8,7,0,1,1,3,3,3,2,1,1,1,0,1,0,0,0,22,22,22,,,,,,,,,,,,,,,,,,,,,,,,,,15_SS,23,F,15,2021_Nov_03_1011,Partial repeat,2021.2.3,120.10669933139167,
8,3,0,1,1,3,3,3,3,1,1,1,1,1,0,0,0,23,23,23,0,0,0,0,,,,,,,322.23840002103884,None,0.9502728018814627,323.487338946642,None,"[93. 87. 87. 87. 93. 93. 93. 93. 93. 87. 87. 93. 93. 93. 93. 87. 93. 93.
 93. 87. 87. 87. 93. 93. 87. 93. 93. 93. 87. 87. 93. 87. 87. 93.]",324.5197827756051,None,l,1,0.6057218187261242,324.5197827756051,None,None,None,15_SS,23,F,15,2021_Nov_03_1011,Partial repeat,2021.2.3,120.10669933139167,
8,3,0,1,1,3,3,3,3,1,1,1,1,1,0,0,0,23,23,23,1,0,1,0,,,,,,,,,0.7795128041761273,325.1858844553003,None,"[93. 87. 93. 93. 87. 87. 87. 87. 87. 93. 93. 93. 93. 93. 93. 87. 87. 87.
 93. 87. 87. 93. 93. 87. 93. 93. 93. 87. 87. 93. 93. 87. 93. 93.]",326.04347021519106,None,l,1,0.6184832548212853,326.04347021519106,None,None,None,15_SS,23,F,15,2021_Nov_03_1011,Partial repeat,2021.2.3,120.10669933139167,
8,3,0,1,1,3,3,3,3,1,1,1,1,1,0,0,0,23,23,23,,,,,,,,,,,,,,,,,,,,,,,,,,15_SS,23,F,15,2021_Nov_03_1011,Partial repeat,2021.2.3,120.10669933139167,
4,2,0,1,1,3,2,3,3,0,1,0,1,0,0,0,0,24,24,24,0,0,0,0,,,,,,,326.6845897424878,None,0.8248596183696989,327.6670689459429,None,"[93. 93. 93. 93. 93. 93. 87. 87. 93. 93. 87. 93. 93. 87. 87. 93. 87. 87.
 93. 87. 87. 93. 93. 87. 93. 93. 93. 93. 87. 93. 87. 93. 93. 93.]",328.5662923748248,None,s,1,1.0074195377608248,328.5662923748248,None,None,None,15_SS,23,F,15,2021_Nov_03_1011,Partial repeat,2021.2.3,120.10669933139167,
4,2,0,1,1,3,2,3,3,0,1,0,1,0,0,0,0,24,24,24,1,0,1,0,,,,,,,,,0.7024485019913643,329.6320417848758,None,"[93. 93. 93. 93. 87. 93. 87. 93. 93. 93. 93. 93. 87. 93. 87. 93. 93. 93.
 87. 93. 93. 93. 93. 87. 93. 93. 87. 87. 93. 93. 87. 87. 87. 87.]",330.4147025752502,None,l,1,0.7433006897313135,330.4147025752502,None,None,None,15_SS,23,F,15,2021_Nov_03_1011,Partial repeat,2021.2.3,120.10669933139167,
4,2,0,1,1,3,2,3,3,0,1,0,1,0,0,0,0,24,24,24,,,,,,,,,,,,,,,,,,,,,,,,,,15_SS,23,F,15,2021_Nov_03_1011,Partial repeat,2021.2.3,120.10669933139167,
3,2,0,1,1,3,3,3,2,1,0,1,0,0,0,0,0,25,25,25,0,0,0,0,,,,,,,331.1807123389949,None,0.8617757545472791,332.32972233429314,None,"[93. 93. 93. 87. 93. 93. 87. 87. 93. 93. 93. 93. 93. 93. 87. 93. 87. 93.
 93. 87. 93. 93. 87. 93. 93. 87. 93. 87. 93. 93. 87. 87. 87. 93.]",333.27057669722194,None,l,1,0.8304396406067553,333.27057669722194,None,None,None,15_SS,23,F,15,2021_Nov_03_1011,Partial repeat,2021.2.3,120.10669933139167,
3,2,0,1,1,3,3,3,2,1,0,1,0,0,0,0,0,25,25,25,1,0,1,0,,,,,,,,,0.8872855473118486,334.1614747731446,None,"[87. 93. 87. 93. 87. 93. 93. 93. 93. 87. 87. 87. 93. 93. 87. 93. 93. 93.
 93. 87. 87. 87. 87. 93. 87. 87. 87. 93. 87. 87. 93. 93. 87. 87.]",335.12730808135575,None,s,1,0.7017217109669218,335.12730808135575,None,None,None,15_SS,23,F,15,2021_Nov_03_1011,Partial repeat,2021.2.3,120.10669933139167,
3,2,0,1,1,3,3,3,2,1,0,1,0,0,0,0,0,25,25,25,,,,,,,,,,,,,,,,,,,,,,,,,,15_SS,23,F,15,2021_Nov_03_1011,Partial repeat,2021.2.3,120.10669933139167,
1,7,0,1,1,3,3,2,2,0,0,1,1,1,0,0,0,26,26,26,0,0,0,0,,,,,,,335.86000905689616,None,0.8479879694974117,338.15802968891626,None,"[87. 93. 87. 87. 87. 87. 93. 93. 87. 87. 87. 87. 87. 87. 93. 93. 93. 87.
 93. 93. 87. 87. 87. 87. 87. 87. 93. 87. 87. 87. 87. 93. 87. 93.]",339.0822352701964,None,l,0,0.7308484196382778,339.0822352701964,None,339.8232516566359,None,15_SS,23,F,15,2021_Nov_03_1011,Partial repeat,2021.2.3,120.10669933139167,
1,7,0,1,1,3,3,2,2,0,0,1,1,1,0,0,0,26,26,26,1,0,1,0,,,,,,,,,0.7543289678479502,340.3727961499212,None,"[93. 93. 93. 93. 93. 87. 87. 93. 93. 93. 93. 87. 87. 93. 93. 93. 93. 93.
 87. 93. 93. 87. 87. 93. 87. 87. 93. 87. 87. 93. 93. 87. 93. 93.]",341.20540520951135,None,s,1,0.783818113031657,341.20540520951135,None,None,None,15_SS,23,F,15,2021_Nov_03_1011,Partial repeat,2021.2.3,120.10669933139167,
1,7,0,1,1,3,3,2,2,0,0,1,1,1,0,0,0,26,26,26,,,,,,,,,,,,,,,,,,,,,,,,,,15_SS,23,F,15,2021_Nov_03_1011,Partial repeat,2021.2.3,120.10669933139167,
2,1,0,1,1,2,2,3,2,1,0,1,0,0,0,0,0,27,27,27,0,0,0,0,,,,,,,342.00471349868803,None,0.9380790371202334,343.1537231732748,None,"[93. 87. 87. 93. 87. 93. 87. 87. 93. 93. 87. 87. 87. 93. 87. 87. 93. 93.
 93. 93. 87. 93. 93. 93. 93. 93. 87. 87. 93. 87. 93. 87. 87. 87.]",344.16951757916604,None,l,1,1.1786391334974269,344.16951757916604,None,None,None,15_SS,23,F,15,2021_Nov_03_1011,Partial repeat,2021.2.3,120.10669933139167,
2,1,0,1,1,2,2,3,2,1,0,1,0,0,0,0,0,27,27,27,1,0,1,0,,,,,,,,,0.8493394672179869,345.41844078989993,None,"[87. 93. 87. 93. 87. 93. 87. 87. 87. 93. 87. 87. 87. 93. 87. 87. 93. 93.
 93. 93. 93. 87. 87. 87. 87. 87. 87. 93. 93. 93. 87. 93. 93. 87.]",346.3426521439894,None,s,1,1.1174858416814004,346.3426521439894,None,None,None,15_SS,23,F,15,2021_Nov_03_1011,Partial repeat,2021.2.3,120.10669933139167,
2,1,0,1,1,2,2,3,2,1,0,1,0,0,0,0,0,27,27,27,,,,,,,,,,,,,,,,,,,,,,,,,,15_SS,23,F,15,2021_Nov_03_1011,Partial repeat,2021.2.3,120.10669933139167,
7,2,0,1,1,3,3,2,2,0,1,1,1,0,0,0,0,28,28,28,0,0,0,0,,,,,,,347.4916521972275,None,0.827919758158679,348.39920514831965,None,"[87. 87. 93. 87. 93. 93. 93. 93. 93. 87. 93. 93. 87. 87. 87. 87. 87. 93.
 93. 93. 87. 87. 93. 93. 87. 93. 93. 87. 87. 87. 93. 87. 87. 93.]",349.3067584201233,None,s,1,0.9694065515059265,349.3067584201233,None,None,None,15_SS,23,F,15,2021_Nov_03_1011,Partial repeat,2021.2.3,120.10669933139167,
7,2,0,1,1,3,3,2,2,0,1,1,1,0,0,0,0,28,28,28,1,0,1,0,,,,,,,,,0.9584840198782673,350.3392022490866,None,"[87. 93. 87. 87. 87. 93. 93. 87. 87. 93. 87. 93. 87. 87. 93. 93. 93. 93.
 87. 93. 87. 93. 87. 93. 93. 87. 87. 93. 87. 93. 87. 93. 93. 93.]",351.3716460780497,None,s,0,0.8577113532644489,351.3716460780497,None,352.2375738679041,None,15_SS,23,F,15,2021_Nov_03_1011,Partial repeat,2021.2.3,120.10669933139167,
7,2,0,1,1,3,3,2,2,0,1,1,1,0,0,0,0,28,28,28,,,,,,,,,,,,,,,,,,,,,,,,,,15_SS,23,F,15,2021_Nov_03_1011,Partial repeat,2021.2.3,120.10669933139167,
8,6,0,1,1,2,3,3,3,0,0,0,1,1,0,0,0,29,29,29,0,0,0,0,,,,,,,352.737130965156,None,0.7002736889397762,354.09429787567046,None,"[87. 93. 93. 87. 87. 87. 93. 93. 87. 93. 87. 93. 93. 93. 87. 87. 87. 93.
 93. 87. 93. 87. 93. 93. 93. 87. 87. 93. 87. 87. 93. 93. 87. 87.]",354.8686326716627,None,s,1,0.8156128216749039,354.8686326716627,None,None,None,15_SS,23,F,15,2021_Nov_03_1011,Partial repeat,2021.2.3,120.10669933139167,
8,6,0,1,1,2,3,3,3,0,0,0,1,1,0,0,0,29,29,29,1,0,1,0,,,,,,,,,0.9550532829473637,355.742897680806,None,"[93. 87. 87. 87. 93. 87. 93. 93. 93. 93. 87. 87. 87. 93. 93. 87. 87. 87.
 93. 87. 93. 93. 87. 87. 87. 87. 93. 93. 87. 93. 93. 93. 93. 87.]",356.77532354991854,None,s,1,0.988930512833349,356.77532354991854,None,None,None,15_SS,23,F,15,2021_Nov_03_1011,Partial repeat,2021.2.3,120.10669933139167,
8,6,0,1,1,2,3,3,3,0,0,0,1,1,0,0,0,29,29,29,,,,,,,,,,,,,,,,,,,,,,,,,,15_SS,23,F,15,2021_Nov_03_1011,Partial repeat,2021.2.3,120.10669933139167,
2,5,0,1,1,3,2,2,3,1,1,0,0,1,0,0,0,30,30,30,0,0,0,0,,,,,,,357.77446019423587,None,0.8621185328662233,358.5987506358108,None,"[93. 87. 87. 93. 87. 87. 87. 93. 87. 87. 93. 93. 87. 87. 93. 87. 93. 87.
 87. 93. 87. 93. 93. 93. 87. 87. 87. 87. 93. 93. 93. 93. 93. 87.]",359.5396075644326,None,l,1,0.7036992188195654,359.5396075644326,None,None,None,15_SS,23,F,15,2021_Nov_03_1011,Partial repeat,2021.2.3,120.10669933139167,
2,5,0,1,1,3,2,2,3,1,1,0,0,1,0,0,0,30,30,30,1,0,1,0,,,,,,,,,0.74935453887104,360.3139648102383,None,"[93. 87. 87. 93. 93. 93. 87. 87. 87. 87. 93. 93. 93. 93. 93. 93. 87. 87.
 93. 87. 93. 87. 87. 93. 93. 87. 93. 93. 93. 93. 87. 87. 93. 87.]",361.1382299155953,None,l,1,1.0890723956542843,361.1382299155953,None,None,None,15_SS,23,F,15,2021_Nov_03_1011,Partial repeat,2021.2.3,120.10669933139167,
2,5,0,1,1,3,2,2,3,1,1,0,0,1,0,0,0,30,30,30,,,,,,,,,,,,,,,,,,,,,,,,,,15_SS,23,F,15,2021_Nov_03_1011,Partial repeat,2021.2.3,120.10669933139167,
6,2,0,1,1,2,2,2,3,0,1,1,0,0,0,0,0,31,31,31,0,0,0,0,,,,,,,362.2372839445991,None,0.9842286701692837,363.17814023179767,None,"[93. 87. 87. 87. 93. 93. 87. 87. 87. 87. 87. 87. 87. 93. 87. 93. 87. 93.
 93. 93. 93. 87. 93. 87. 87. 93. 93. 93. 87. 93. 87. 93. 93. 87.]",364.2438870761557,None,s,1,0.8154739535430053,364.2438870761557,None,None,None,15_SS,23,F,15,2021_Nov_03_1011,Partial repeat,2021.2.3,120.10669933139167,
6,2,0,1,1,2,2,2,3,0,1,1,0,0,0,0,0,31,31,31,1,0,1,0,,,,,,,,,0.841550331653517,365.1181305976206,None,"[87. 87. 93. 93. 87. 93. 93. 93. 93. 87. 93. 93. 93. 87. 87. 93. 93. 93.
 87. 87. 93. 93. 93. 87. 93. 93. 87. 93. 93. 93. 87. 87. 87. 87.]",366.0340573291264,None,l,1,0.7372831775940085,366.0340573291264,None,None,None,15_SS,23,F,15,2021_Nov_03_1011,Partial repeat,2021.2.3,120.10669933139167,
6,2,0,1,1,2,2,2,3,0,1,1,0,0,0,0,0,31,31,31,,,,,,,,,,,,,,,,,,,,,,,,,,15_SS,23,F,15,2021_Nov_03_1011,Partial repeat,2021.2.3,120.10669933139167,
5,1,0,1,1,2,3,2,3,1,1,0,0,1,0,0,0,32,32,32,0,0,0,0,,,,,,,366.7833644316702,None,0.8832810473008248,367.87408797632906,None,"[93. 87. 93. 93. 87. 93. 87. 87. 93. 93. 87. 93. 93. 93. 93. 93. 87. 93.
 93. 93. 93. 87. 93. 93. 87. 87. 93. 87. 87. 87. 87. 93. 87. 87.]",368.83159015877163,None,l,1,0.6921850302169332,368.83159015877163,None,None,None,15_SS,23,F,15,2021_Nov_03_1011,Partial repeat,2021.2.3,120.10669933139167,
5,1,0,1,1,2,3,2,3,1,1,0,0,1,0,0,0,32,32,32,1,0,1,0,,,,,,,,,0.962128664319986,369.58928643588683,None,"[87. 87. 87. 87. 93. 87. 87. 93. 87. 93. 87. 93. 87. 93. 87. 93. 87. 87.
 93. 87. 93. 93. 93. 87. 87. 93. 87. 87. 93. 93. 93. 87. 87. 93.]",370.6300697291206,None,l,1,0.621324439068303,370.6300697291206,None,None,None,15_SS,23,F,15,2021_Nov_03_1011,Partial repeat,2021.2.3,120.10669933139167,
5,1,0,1,1,2,3,2,3,1,1,0,0,1,0,0,0,32,32,32,,,,,,,,,,,,,,,,,,,,,,,,,,15_SS,23,F,15,2021_Nov_03_1011,Partial repeat,2021.2.3,120.10669933139167,
4,1,0,1,1,3,2,3,2,1,0,0,0,0,0,0,0,33,33,33,0,0,0,0,,,,,,,371.2711661651806,None,0.7126368138843961,372.39519785662014,None,"[87. 93. 93. 87. 87. 87. 93. 87. 87. 87. 87. 87. 93. 87. 93. 93. 87. 87.
 93. 93. 87. 87. 87. 87. 93. 87. 87. 93. 87. 87. 93. 87. 93. 87.]",373.1861811135493,None,l,1,0.641185147597298,373.1861811135493,None,None,None,15_SS,23,F,15,2021_Nov_03_1011,Partial repeat,2021.2.3,120.10669933139167,
4,1,0,1,1,3,2,3,2,1,0,0,0,0,0,0,0,33,33,33,1,0,1,0,,,,,,,,,0.9610845352060828,373.8939060302123,None,"[87. 93. 93. 93. 93. 87. 93. 93. 87. 87. 93. 93. 87. 93. 87. 87. 93. 87.
 93. 87. 93. 87. 93. 87. 87. 93. 87. 87. 93. 93. 87. 87. 93. 93.]",374.9346768156929,None,l,0,1.019778801484108,374.9346768156929,None,375.9671078161912,None,15_SS,23,F,15,2021_Nov_03_1011,Partial repeat,2021.2.3,120.10669933139167,
4,1,0,1,1,3,2,3,2,1,0,0,0,0,0,0,0,33,33,33,,,,,,,,,,,,,,,,,,,,,,,,,,15_SS,23,F,15,2021_Nov_03_1011,Partial repeat,2021.2.3,120.10669933139167,
4,8,0,1,1,2,2,3,2,1,1,1,0,1,0,0,0,34,34,34,0,0,0,0,,,,,,,376.46669089108445,None,0.9376242424982875,378.41500949627107,None,"[87. 87. 93. 93. 87. 93. 93. 87. 87. 87. 93. 87. 87. 87. 93. 87. 87. 93.
 87. 93. 93. 93. 87. 87. 87. 93. 93. 87. 87. 87. 93. 93. 93. 93.]",379.4308022986045,None,l,1,0.7316601407499093,379.4308022986045,None,None,None,15_SS,23,F,15,2021_Nov_03_1011,Partial repeat,2021.2.3,120.10669933139167,
4,8,0,1,1,2,2,3,2,1,1,1,0,1,0,0,0,34,34,34,1,0,1,0,,,,,,,,,0.8824731690101388,380.22178491411023,None,"[93. 93. 87. 93. 93. 93. 87. 93. 93. 87. 87. 87. 93. 87. 87. 87. 93. 93.
 87. 87. 87. 93. 87. 87. 87. 87. 87. 93. 93. 93. 93. 87. 93. 93.]",381.1792980007481,None,l,1,0.7751983468047001,381.1792980007481,None,None,None,15_SS,23,F,15,2021_Nov_03_1011,Partial repeat,2021.2.3,120.10669933139167,
4,8,0,1,1,2,2,3,2,1,1,1,0,1,0,0,0,34,34,34,,,,,,,,,,,,,,,,,,,,,,,,,,15_SS,23,F,15,2021_Nov_03_1011,Partial repeat,2021.2.3,120.10669933139167,
1,3,0,1,1,2,3,3,3,1,1,0,1,1,0,0,0,35,35,35,0,0,0,0,,,,,,,381.9786021206737,None,0.813617826257403,383.0443518514362,None,"[93. 87. 93. 93. 87. 93. 87. 87. 87. 93. 87. 87. 93. 87. 93. 93. 87. 93.
 93. 87. 87. 93. 87. 87. 87. 93. 93. 93. 93. 93. 93. 87. 93. 87.]",383.9352508894938,None,l,1,0.9807350480803052,383.9352508894938,None,None,None,15_SS,23,F,15,2021_Nov_03_1011,Partial repeat,2021.2.3,120.10669933139167,
1,3,0,1,1,2,3,3,3,1,1,0,1,1,0,0,0,35,35,35,1,0,1,0,,,,,,,,,0.7368771074882937,384.96769568059176,None,"[93. 87. 93. 87. 93. 93. 93. 93. 93. 87. 93. 93. 93. 87. 87. 87. 87. 93.
 87. 93. 87. 93. 93. 87. 93. 93. 93. 87. 93. 93. 93. 93. 87. 87.]",385.7836607692077,None,l,1,1.2908580538153274,385.7836607692077,None,None,None,15_SS,23,F,15,2021_Nov_03_1011,Partial repeat,2021.2.3,120.10669933139167,
1,3,0,1,1,2,3,3,3,1,1,0,1,1,0,0,0,35,35,35,,,,,,,,,,,,,,,,,,,,,,,,,,15_SS,23,F,15,2021_Nov_03_1011,Partial repeat,2021.2.3,120.10669933139167,
5,7,0,1,1,3,3,3,3,0,1,1,1,0,0,0,0,36,36,36,0,0,0,0,,,,,,,387.0992294582604,None,0.7682411933039249,388.7644116577392,None,"[93. 87. 93. 93. 93. 93. 87. 87. 93. 93. 93. 87. 93. 87. 93. 93. 87. 93.
 87. 87. 93. 93. 93. 87. 93. 87. 87. 87. 93. 93. 93. 87. 87. 93.]",389.6136957973308,None,s,1,1.0448744857958445,389.6136957973308,None,None,None,15_SS,23,F,15,2021_Nov_03_1011,Partial repeat,2021.2.3,120.10669933139167,
5,7,0,1,1,3,3,3,3,0,1,1,1,0,0,0,0,36,36,36,1,0,1,0,,,,,,,,,0.8075241290332282,390.7210706893313,None,"[87. 87. 93. 87. 93. 87. 87. 87. 87. 87. 93. 87. 93. 93. 87. 93. 93. 87.
 87. 87. 87. 93. 87. 87. 93. 93. 93. 93. 87. 93. 93. 93. 87. 87.]",391.60364597798775,None,l,1,0.79798394531349,391.60364597798775,None,None,None,15_SS,23,F,15,2021_Nov_03_1011,Partial repeat,2021.2.3,120.10669933139167,
5,7,0,1,1,3,3,3,3,0,1,1,1,0,0,0,0,36,36,36,,,,,,,,,,,,,,,,,,,,,,,,,,15_SS,23,F,15,2021_Nov_03_1011,Partial repeat,2021.2.3,120.10669933139167,
7,6,0,1,1,3,3,2,3,1,0,1,0,0,0,0,0,37,37,37,0,0,0,0,,,,,,,392.4196091423339,None,0.7946024077774586,393.2522297475423,None,"[87. 87. 93. 87. 93. 87. 87. 87. 93. 93. 87. 93. 93. 87. 93. 87. 93. 87.
 87. 93. 93. 87. 87. 93. 93. 87. 93. 93. 87. 93. 87. 87. 93. 87.]",394.12649796380197,None,l,1,0.6271158495130749,394.12649796380197,None,None,None,15_SS,23,F,15,2021_Nov_03_1011,Partial repeat,2021.2.3,120.10669933139167,
7,6,0,1,1,3,3,2,3,1,0,1,0,0,0,0,0,37,37,37,1,0,1,0,,,,,,,,,0.9800542314466065,394.8258612870927,None,"[93. 87. 87. 87. 93. 93. 93. 87. 87. 93. 93. 87. 93. 87. 87. 87. 93. 87.
 93. 93. 93. 87. 87. 87. 87. 87. 87. 93. 93. 87. 87. 93. 93. 87.]",395.88329432411,None,s,1,0.9183143039397237,395.88329432411,None,None,None,15_SS,23,F,15,2021_Nov_03_1011,Partial repeat,2021.2.3,120.10669933139167,
7,6,0,1,1,3,3,2,3,1,0,1,0,0,0,0,0,37,37,37,,,,,,,,,,,,,,,,,,,,,,,,,,15_SS,23,F,15,2021_Nov_03_1011,Partial repeat,2021.2.3,120.10669933139167,
7,1,0,1,1,3,2,3,2,0,1,0,0,0,0,0,0,38,38,38,0,0,0,0,,,,,,,396.8241445177878,None,0.8749659601837853,397.8982205636444,None,"[93. 87. 87. 93. 93. 93. 87. 93. 93. 93. 87. 93. 87. 93. 87. 87. 87. 93.
 93. 93. 93. 87. 87. 87. 93. 93. 87. 93. 93. 87. 87. 87. 87. 93.]",398.84740252451365,None,s,1,1.1222570684610673,398.84740252451365,None,None,None,15_SS,23,F,15,2021_Nov_03_1011,Partial repeat,2021.2.3,120.10669933139167,
7,1,0,1,1,3,2,3,2,0,1,0,0,0,0,0,0,38,38,38,1,0,1,0,,,,,,,,,0.8769666208462397,400.0380360774916,None,"[93. 87. 87. 93. 93. 87. 87. 87. 93. 93. 87. 87. 93. 87. 87. 93. 87. 87.
 87. 93. 87. 87. 87. 93. 93. 87. 87. 93. 87. 87. 87. 87. 87. 93.]",400.99555686120834,None,l,1,0.8621182516430963,400.99555686120834,None,None,None,15_SS,23,F,15,2021_Nov_03_1011,Partial repeat,2021.2.3,120.10669933139167,
7,1,0,1,1,3,2,3,2,0,1,0,0,0,0,0,0,38,38,38,,,,,,,,,,,,,,,,,,,,,,,,,,15_SS,23,F,15,2021_Nov_03_1011,Partial repeat,2021.2.3,120.10669933139167,
2,7,0,1,1,2,2,3,2,0,0,1,0,1,0,0,0,39,39,39,0,0,0,0,,,,,,,401.886448202187,None,0.9195354469533967,402.9938317534011,None,"[87. 87. 87. 93. 87. 93. 93. 93. 87. 87. 93. 87. 93. 87. 93. 93. 93. 87.
 93. 87. 93. 87. 87. 93. 87. 93. 87. 93. 87. 93. 87. 87. 93. 93.]",403.99297192554627,None,s,1,0.7607320077343047,403.99297192554627,None,None,None,15_SS,23,F,15,2021_Nov_03_1011,Partial repeat,2021.2.3,120.10669933139167,
2,7,0,1,1,2,2,3,2,0,0,1,0,1,0,0,0,39,39,39,1,0,1,0,,,,,,,,,0.8137043626048649,404.81726653637224,None,"[87. 87. 87. 93. 93. 93. 93. 87. 87. 87. 87. 93. 87. 87. 93. 87. 87. 93.
 93. 93. 87. 87. 93. 87. 87. 93. 93. 87. 93. 93. 87. 93. 93. 87.]",405.70816268802537,None,s,1,0.8542835874636694,405.70816268802537,None,None,None,15_SS,23,F,15,2021_Nov_03_1011,Partial repeat,2021.2.3,120.10669933139167,
2,7,0,1,1,2,2,3,2,0,0,1,0,1,0,0,0,39,39,39,,,,,,,,,,,,,,,,,,,,,,,,,,15_SS,23,F,15,2021_Nov_03_1011,Partial repeat,2021.2.3,120.10669933139167,
7,5,0,1,1,2,3,3,2,1,1,0,0,1,0,0,0,40,40,40,0,0,0,0,,,,,,,406.58242962143845,None,0.9180588549374027,408.805490647087,None,"[87. 87. 87. 93. 87. 87. 87. 93. 87. 93. 93. 87. 87. 93. 93. 87. 93. 93.
 93. 87. 87. 93. 93. 93. 93. 93. 93. 93. 87. 87. 93. 87. 87. 93.]",409.8046160664976,None,l,1,0.7082032928194621,409.8046160664976,None,None,None,15_SS,23,F,15,2021_Nov_03_1011,Partial repeat,2021.2.3,120.10669933139167,
7,5,0,1,1,2,3,3,2,1,1,0,0,1,0,0,0,40,40,40,1,0,1,0,,,,,,,,,0.9240050522914152,410.5706271130887,None,"[93. 87. 93. 87. 93. 93. 87. 93. 93. 87. 87. 93. 93. 93. 93. 93. 87. 93.
 93. 87. 87. 87. 87. 93. 93. 87. 87. 87. 93. 87. 87. 93. 93. 93.]",411.56977690658255,None,l,1,1.1830934971958413,411.56977690658255,None,None,None,15_SS,23,F,15,2021_Nov_03_1011,Partial repeat,2021.2.3,120.10669933139167,
7,5,0,1,1,2,3,3,2,1,1,0,0,1,0,0,0,40,40,40,,,,,,,,,,,,,,,,,,,,,,,,,,15_SS,23,F,15,2021_Nov_03_1011,Partial repeat,2021.2.3,120.10669933139167,
6,1,0,1,1,3,2,3,3,0,0,0,1,1,0,0,0,41,41,41,0,0,0,0,,,,,,,412.78540030903787,None,0.791721460151013,414.9418697359197,None,"[93. 87. 87. 93. 93. 93. 93. 87. 93. 87. 87. 93. 93. 93. 93. 93. 87. 93.
 87. 87. 87. 93. 93. 93. 93. 93. 93. 87. 87. 87. 87. 93. 87. 87.]",415.8077962429277,None,s,1,0.9770494301367307,415.8077962429277,None,None,None,15_SS,23,F,15,2021_Nov_03_1011,Partial repeat,2021.2.3,120.10669933139167,
6,1,0,1,1,3,2,3,3,0,0,0,1,1,0,0,0,41,41,41,1,0,1,0,,,,,,,,,0.9822939271607258,416.85690424769723,None,"[93. 87. 93. 87. 87. 93. 93. 87. 93. 87. 93. 87. 87. 87. 87. 93. 87. 93.
 87. 93. 87. 93. 93. 93. 87. 93. 87. 87. 87. 93. 93. 87. 93. 93.]",417.9143154763242,None,s,1,1.0625437718213107,417.9143154763242,None,None,None,15_SS,23,F,15,2021_Nov_03_1011,Partial repeat,2021.2.3,120.10669933139167,
6,1,0,1,1,3,2,3,3,0,0,0,1,1,0,0,0,41,41,41,,,,,,,,,,,,,,,,,,,,,,,,,,15_SS,23,F,15,2021_Nov_03_1011,Partial repeat,2021.2.3,120.10669933139167,
6,5,0,1,1,3,3,3,3,1,0,1,1,0,0,0,0,42,42,42,0,0,0,0,,,,,,,418.996723610084,None,0.8069488551669369,420.2373041494311,None,"[93. 93. 87. 93. 87. 87. 93. 87. 87. 93. 87. 87. 87. 87. 93. 93. 87. 87.
 87. 87. 87. 93. 93. 93. 93. 87. 87. 93. 93. 93. 87. 87. 87. 93.]",421.1198804002224,None,l,1,0.6091306625414745,421.1198804002224,None,None,None,15_SS,23,F,15,2021_Nov_03_1011,Partial repeat,2021.2.3,120.10669933139167,
6,5,0,1,1,3,3,3,3,1,0,1,1,0,0,0,0,42,42,42,1,0,1,0,,,,,,,,,0.8552785552093164,421.7859702135877,None,"[87. 87. 93. 93. 87. 87. 87. 93. 93. 87. 87. 87. 93. 93. 93. 87. 93. 87.
 87. 87. 87. 87. 87. 87. 93. 93. 93. 93. 93. 93. 93. 93. 93. 87.]",422.71850050640364,None,s,1,0.977412796402632,422.71850050640364,None,None,None,15_SS,23,F,15,2021_Nov_03_1011,Partial repeat,2021.2.3,120.10669933139167,
6,5,0,1,1,3,3,3,3,1,0,1,1,0,0,0,0,42,42,42,,,,,,,,,,,,,,,,,,,,,,,,,,15_SS,23,F,15,2021_Nov_03_1011,Partial repeat,2021.2.3,120.10669933139167,
6,6,0,1,1,3,3,2,3,0,0,1,0,1,0,0,0,43,43,43,0,0,0,0,,,,,,,423.7259647486617,None,0.8193315079431668,424.7584098604714,None,"[87. 87. 87. 87. 87. 93. 87. 87. 93. 87. 93. 93. 87. 93. 93. 93. 87. 87.
 87. 87. 93. 87. 87. 87. 93. 87. 87. 93. 87. 93. 87. 87. 87. 93.]",425.6576381000275,None,s,1,1.1583034510586003,425.6576381000275,None,None,None,15_SS,23,F,15,2021_Nov_03_1011,Partial repeat,2021.2.3,120.10669933139167,
6,6,0,1,1,3,3,2,3,0,0,1,0,1,0,0,0,43,43,43,1,0,1,0,,,,,,,,,0.8962699250943681,426.8816025703113,None,"[93. 93. 87. 87. 87. 93. 93. 87. 93. 93. 87. 87. 93. 87. 93. 87. 93. 93.
 93. 93. 93. 87. 87. 87. 87. 93. 87. 87. 87. 93. 87. 87. 87. 93.]",427.8557432716307,None,s,1,0.5761974276451838,427.8557432716307,None,None,None,15_SS,23,F,15,2021_Nov_03_1011,Partial repeat,2021.2.3,120.10669933139167,
6,6,0,1,1,3,3,2,3,0,0,1,0,1,0,0,0,43,43,43,,,,,,,,,,,,,,,,,,,,,,,,,,15_SS,23,F,15,2021_Nov_03_1011,Partial repeat,2021.2.3,120.10669933139167,
1,8,0,1,1,3,2,2,2,1,0,0,1,0,0,0,0,44,44,44,0,0,0,0,,,,,,,428.455222884955,None,0.8111895918944665,429.4959943118588,None,"[87. 87. 87. 87. 93. 93. 93. 93. 93. 87. 93. 87. 87. 87. 93. 93. 87. 93.
 93. 87. 93. 93. 87. 93. 93. 87. 87. 93. 87. 93. 93. 93. 87. 93.]",430.38689367062807,None,l,1,0.6050608320761057,430.38689367062807,None,None,None,15_SS,23,F,15,2021_Nov_03_1011,Partial repeat,2021.2.3,120.10669933139167,
1,8,0,1,1,3,2,2,2,1,0,0,1,0,0,0,0,44,44,44,1,0,1,0,,,,,,,,,0.9227953244458126,431.052984446128,None,"[93. 87. 87. 87. 93. 87. 87. 87. 87. 87. 93. 87. 87. 87. 93. 87. 93. 93.
 87. 87. 87. 87. 87. 93. 93. 93. 87. 87. 87. 93. 93. 93. 93. 87.]",432.05214033314246,None,s,1,0.7644557903611258,432.05214033314246,None,None,None,15_SS,23,F,15,2021_Nov_03_1011,Partial repeat,2021.2.3,120.10669933139167,
1,8,0,1,1,3,2,2,2,1,0,0,1,0,0,0,0,44,44,44,,,,,,,,,,,,,,,,,,,,,,,,,,15_SS,23,F,15,2021_Nov_03_1011,Partial repeat,2021.2.3,120.10669933139167,
5,6,0,1,1,3,2,3,3,1,0,0,1,0,0,0,0,45,45,45,0,0,0,0,,,,,,,432.826442737261,None,0.8060439862840021,434.1336940911451,None,"[93. 87. 87. 87. 87. 87. 87. 93. 93. 93. 87. 87. 87. 93. 93. 93. 87. 93.
 93. 93. 93. 93. 87. 93. 93. 87. 93. 87. 87. 87. 93. 87. 93. 87.]",435.01623827077424,None,l,1,0.8077967587692001,435.01623827077424,None,None,None,15_SS,23,F,15,2021_Nov_03_1011,Partial repeat,2021.2.3,120.10669933139167,
5,6,0,1,1,3,2,3,3,1,0,0,1,0,0,0,0,45,45,45,1,0,1,0,,,,,,,,,0.7651698952355822,435.89048403722063,None,"[93. 93. 93. 87. 93. 93. 87. 87. 93. 87. 87. 87. 87. 87. 93. 87. 87. 87.
 93. 87. 87. 93. 93. 93. 93. 93. 93. 93. 93. 87. 93. 93. 93. 93.]",436.73143031609993,None,s,1,0.7732577207884788,436.73143031609993,None,None,None,15_SS,23,F,15,2021_Nov_03_1011,Partial repeat,2021.2.3,120.10669933139167,
5,6,0,1,1,3,2,3,3,1,0,0,1,0,0,0,0,45,45,45,,,,,,,,,,,,,,,,,,,,,,,,,,15_SS,23,F,15,2021_Nov_03_1011,Partial repeat,2021.2.3,120.10669933139167,
4,4,0,1,1,3,3,2,3,0,1,1,0,0,0,0,0,46,46,46,0,0,0,0,,,,,,,437.5307453402206,None,0.7170497067033921,439.82042811152814,None,"[93. 87. 93. 87. 87. 93. 87. 87. 87. 93. 93. 93. 87. 93. 93. 87. 87. 93.
 93. 93. 87. 87. 87. 87. 93. 87. 87. 87. 87. 87. 87. 93. 93. 93.]",440.6197553226905,None,s,1,0.755302680709292,440.6197553226905,None,None,None,15_SS,23,F,15,2021_Nov_03_1011,Partial repeat,2021.2.3,120.10669933139167,
4,4,0,1,1,3,3,2,3,0,1,1,0,0,0,0,0,46,46,46,1,0,1,0,,,,,,,,,0.7658419360886793,441.4357348433293,None,"[87. 87. 87. 93. 87. 93. 93. 93. 93. 87. 87. 87. 87. 93. 87. 87. 93. 93.
 87. 93. 87. 87. 93. 87. 93. 93. 87. 87. 87. 93. 93. 93. 93. 93.]",442.27664937175814,None,l,1,0.6824062121929728,442.27664937175814,None,None,None,15_SS,23,F,15,2021_Nov_03_1011,Partial repeat,2021.2.3,120.10669933139167,
4,4,0,1,1,3,3,2,3,0,1,1,0,0,0,0,0,46,46,46,,,,,,,,,,,,,,,,,,,,,,,,,,15_SS,23,F,15,2021_Nov_03_1011,Partial repeat,2021.2.3,120.10669933139167,
3,8,0,1,1,3,2,3,2,0,0,0,0,1,0,0,0,47,47,47,0,0,0,0,,,,,,,442.98437108130497,None,0.9864614051444859,443.92522608565696,None,"[93. 87. 93. 93. 87. 87. 87. 87. 93. 93. 87. 93. 87. 87. 87. 87. 93. 87.
 93. 93. 87. 93. 87. 93. 93. 93. 87. 87. 93. 87. 87. 93. 93. 87.]",444.9993008486672,None,s,1,0.9517994835348418,444.9993008486672,None,None,None,15_SS,23,F,15,2021_Nov_03_1011,Partial repeat,2021.2.3,120.10669933139167,
3,8,0,1,1,3,2,3,2,0,0,0,0,1,0,0,0,47,47,47,1,0,1,0,,,,,,,,,0.8026016414547201,446.02342862530827,None,"[87. 87. 93. 93. 87. 87. 93. 93. 87. 87. 87. 87. 93. 87. 87. 93. 87. 87.
 93. 93. 87. 87. 87. 87. 93. 93. 93. 93. 93. 93. 93. 87. 93. 93.]",446.9059795398816,None,s,1,0.6927549347667536,446.9059795398816,None,None,None,15_SS,23,F,15,2021_Nov_03_1011,Partial repeat,2021.2.3,120.10669933139167,
3,8,0,1,1,3,2,3,2,0,0,0,0,1,0,0,0,47,47,47,,,,,,,,,,,,,,,,,,,,,,,,,,15_SS,23,F,15,2021_Nov_03_1011,Partial repeat,2021.2.3,120.10669933139167,
3,3,0,1,1,2,2,3,3,0,0,1,1,1,0,0,0,48,48,48,0,0,0,0,,,,,,,447.6220407136989,None,0.9400349748110013,448.4546571496562,None,"[93. 87. 93. 93. 93. 87. 93. 87. 87. 93. 93. 93. 93. 87. 93. 87. 87. 87.
 93. 93. 87. 93. 93. 87. 87. 87. 87. 87. 93. 87. 93. 87. 93. 93.]",449.470448669143,None,s,1,1.056687898340897,449.470448669143,None,None,None,15_SS,23,F,15,2021_Nov_03_1011,Partial repeat,2021.2.3,120.10669933139167,
3,3,0,1,1,2,2,3,3,0,0,1,1,1,0,0,0,48,48,48,1,0,1,0,,,,,,,,,0.7446589603200722,450.59448003987086,None,"[93. 87. 87. 87. 87. 87. 87. 87. 93. 87. 87. 93. 93. 93. 87. 87. 93. 87.
 87. 87. 87. 87. 93. 93. 87. 93. 87. 93. 87. 87. 87. 93. 93. 87.]",451.4187807442179,None,s,1,0.5643942778722248,451.4187807442179,None,None,None,15_SS,23,F,15,2021_Nov_03_1011,Partial repeat,2021.2.3,120.10669933139167,
3,3,0,1,1,2,2,3,3,0,0,1,1,1,0,0,0,48,48,48,,,,,,,,,,,,,,,,,,,,,,,,,,15_SS,23,F,15,2021_Nov_03_1011,Partial repeat,2021.2.3,120.10669933139167,
5,3,0,1,1,3,3,3,2,0,1,1,0,0,0,0,0,49,49,49,0,0,0,0,,,,,,,452.0016016338334,None,0.9095726890486746,453.59190087701813,None,"[93. 87. 93. 93. 93. 93. 87. 93. 93. 87. 87. 87. 93. 93. 93. 87. 87. 93.
 87. 93. 87. 87. 87. 93. 87. 93. 87. 87. 93. 87. 93. 87. 87. 93.]",454.5827172997622,None,s,1,0.8235135524482757,454.5827172997622,None,None,None,15_SS,23,F,15,2021_Nov_03_1011,Partial repeat,2021.2.3,120.10669933139167,
5,3,0,1,1,3,3,3,2,0,1,1,0,0,0,0,0,49,49,49,1,0,1,0,,,,,,,,,0.8548171178070534,455.4652864948978,None,"[93. 87. 87. 93. 93. 87. 87. 93. 87. 93. 93. 87. 93. 93. 93. 93. 87. 93.
 87. 87. 93. 93. 93. 93. 87. 93. 87. 87. 93. 87. 93. 93. 93. 87.]",456.3978139013095,None,l,1,0.736391599288936,456.3978139013095,None,None,None,15_SS,23,F,15,2021_Nov_03_1011,Partial repeat,2021.2.3,120.10669933139167,
5,3,0,1,1,3,3,3,2,0,1,1,0,0,0,0,0,49,49,49,,,,,,,,,,,,,,,,,,,,,,,,,,15_SS,23,F,15,2021_Nov_03_1011,Partial repeat,2021.2.3,120.10669933139167,
5,4,0,1,1,3,2,2,2,0,0,0,1,1,0,0,0,50,50,50,0,0,0,0,,,,,,,457.16381885437977,None,0.8442051814323263,458.1296521625907,None,"[93. 93. 93. 87. 93. 93. 93. 87. 87. 93. 93. 87. 87. 87. 93. 87. 93. 87.
 93. 87. 93. 93. 87. 93. 87. 87. 93. 93. 87. 93. 87. 87. 87. 93.]",459.0538901357445,None,s,1,0.6723358673061739,459.0538901357445,None,None,None,15_SS,23,F,15,2021_Nov_03_1011,Partial repeat,2021.2.3,120.10669933139167,
5,4,0,1,1,3,2,2,2,0,0,0,1,1,0,0,0,50,50,50,1,0,1,0,,,,,,,,,0.9688167101781191,459.79491421926286,None,"[87. 87. 87. 93. 87. 87. 93. 93. 93. 93. 93. 93. 87. 93. 93. 93. 87. 93.
 93. 87. 87. 93. 87. 87. 93. 87. 87. 87. 87. 93. 87. 93. 93. 93.]",460.8439856629077,None,s,1,0.7542603679421518,460.8439856629077,None,None,None,15_SS,23,F,15,2021_Nov_03_1011,Partial repeat,2021.2.3,120.10669933139167,
5,4,0,1,1,3,2,2,2,0,0,0,1,1,0,0,0,50,50,50,,,,,,,,,,,,,,,,,,,,,,,,,,15_SS,23,F,15,2021_Nov_03_1011,Partial repeat,2021.2.3,120.10669933139167,
1,2,0,1,1,2,3,2,2,0,0,0,1,1,0,0,0,51,51,51,0,0,0,0,,,,,,,461.6183130825327,None,0.8546840569843056,462.284414441516,None,"[87. 87. 93. 93. 87. 93. 93. 93. 87. 87. 93. 93. 93. 87. 93. 87. 93. 87.
 93. 93. 87. 87. 87. 93. 87. 87. 93. 87. 93. 87. 87. 87. 87. 87.]",463.2169578835087,None,l,0,0.589309722253347,463.2169578835087,None,463.83307345001685,None,15_SS,23,F,15,2021_Nov_03_1011,Partial repeat,2021.2.3,120.10669933139167,
1,2,0,1,1,2,3,2,2,0,0,0,1,1,0,0,0,51,51,51,1,0,1,0,,,,,,,,,0.8787935868785326,464.36599225289024,None,"[87. 87. 93. 87. 93. 87. 87. 87. 93. 93. 87. 87. 93. 93. 87. 93. 93. 87.
 87. 93. 93. 93. 93. 93. 93. 87. 87. 87. 87. 87. 93. 87. 87. 87.]",465.3234565913615,None,s,1,0.7867930340244129,465.3234565913615,None,None,None,15_SS,23,F,15,2021_Nov_03_1011,Partial repeat,2021.2.3,120.10669933139167,
1,2,0,1,1,2,3,2,2,0,0,0,1,1,0,0,0,51,51,51,,,,,,,,,,,,,,,,,,,,,,,,,,15_SS,23,F,15,2021_Nov_03_1011,Partial repeat,2021.2.3,120.10669933139167,
6,8,0,1,1,3,2,2,2,0,1,0,1,0,0,0,0,52,52,52,0,0,0,0,,,,,,,466.12276680480795,None,0.8955714540903714,466.8637928125961,None,"[87. 93. 93. 87. 87. 87. 93. 93. 87. 93. 93. 87. 87. 87. 93. 93. 87. 93.
 93. 93. 87. 93. 93. 93. 93. 93. 93. 93. 87. 93. 87. 93. 93. 87.]",467.8379809792352,None,s,1,0.6715183733854246,467.8379809792352,None,None,None,15_SS,23,F,15,2021_Nov_03_1011,Partial repeat,2021.2.3,120.10669933139167,
6,8,0,1,1,3,2,2,2,0,1,0,1,0,0,0,0,52,52,52,1,0,1,0,,,,,,,,,0.9403047285173256,468.57066110852065,None,"[87. 87. 87. 93. 87. 93. 87. 93. 93. 87. 93. 93. 93. 93. 93. 87. 93. 93.
 87. 87. 87. 93. 87. 87. 87. 93. 87. 93. 93. 93. 93. 93. 87. 93.]",469.5864481380447,None,l,1,0.8429066634344053,469.5864481380447,None,None,None,15_SS,23,F,15,2021_Nov_03_1011,Partial repeat,2021.2.3,120.10669933139167,
6,8,0,1,1,3,2,2,2,0,1,0,1,0,0,0,0,52,52,52,,,,,,,,,,,,,,,,,,,,,,,,,,15_SS,23,F,15,2021_Nov_03_1011,Partial repeat,2021.2.3,120.10669933139167,
6,4,0,1,1,2,2,3,3,0,1,1,1,0,0,0,0,53,53,53,0,0,0,0,,,,,,,470.4523653444155,None,0.7560758583322879,471.26002592632744,None,"[93. 87. 87. 93. 87. 93. 87. 93. 87. 93. 93. 93. 93. 93. 87. 93. 87. 93.
 93. 93. 87. 87. 87. 87. 87. 93. 93. 87. 87. 87. 93. 87. 87. 93.]",472.09262279887594,None,s,1,0.6247483563299738,472.09262279887594,None,None,None,15_SS,23,F,15,2021_Nov_03_1011,Partial repeat,2021.2.3,120.10669933139167,
6,4,0,1,1,2,2,3,3,0,1,1,1,0,0,0,0,53,53,53,1,0,1,0,,,,,,,,,0.7100327205669569,472.7836918782348,None,"[87. 87. 93. 93. 93. 93. 93. 93. 93. 87. 87. 93. 93. 93. 87. 87. 93. 87.
 93. 93. 87. 87. 93. 87. 87. 93. 87. 87. 93. 93. 93. 93. 93. 87.]",473.57468219081966,None,l,1,0.8706738755461174,473.57468219081966,None,None,None,15_SS,23,F,15,2021_Nov_03_1011,Partial repeat,2021.2.3,120.10669933139167,
6,4,0,1,1,2,2,3,3,0,1,1,1,0,0,0,0,53,53,53,,,,,,,,,,,,,,,,,,,,,,,,,,15_SS,23,F,15,2021_Nov_03_1011,Partial repeat,2021.2.3,120.10669933139167,
1,6,0,1,1,2,3,3,2,1,0,0,0,0,0,0,0,54,54,54,0,0,0,0,,,,,,,474.46557385251003,None,0.7271804138589748,475.4563893131192,None,"[93. 93. 93. 93. 87. 93. 93. 87. 87. 93. 93. 87. 87. 93. 93. 93. 93. 93.
 87. 93. 87. 93. 93. 93. 87. 93. 93. 87. 93. 87. 87. 93. 87. 87.]",476.26403385945014,None,l,1,0.6773681533450144,476.26403385945014,None,None,None,15_SS,23,F,15,2021_Nov_03_1011,Partial repeat,2021.2.3,120.10669933139167,
1,6,0,1,1,2,3,3,2,1,0,0,0,0,0,0,0,54,54,54,1,0,1,0,,,,,,,,,0.7574746863570279,477.0133794473884,None,"[87. 87. 93. 93. 93. 93. 93. 87. 93. 87. 93. 87. 93. 87. 93. 93. 93. 93.
 87. 93. 93. 93. 93. 87. 93. 87. 87. 87. 93. 87. 87. 87. 93. 93.]",477.845998128327,None,s,1,0.9994222727896158,477.845998128327,None,None,None,15_SS,23,F,15,2021_Nov_03_1011,Partial repeat,2021.2.3,120.10669933139167,
1,6,0,1,1,2,3,3,2,1,0,0,0,0,0,0,0,54,54,54,,,,,,,,,,,,,,,,,,,,,,,,,,15_SS,23,F,15,2021_Nov_03_1011,Partial repeat,2021.2.3,120.10669933139167,
7,3,0,1,1,2,2,2,3,1,1,1,0,1,0,0,0,55,55,55,0,0,0,0,,,,,,,478.87011884931235,None,0.9130746471996416,481.309674971601,None,"[93. 93. 87. 93. 93. 93. 87. 87. 93. 93. 93. 87. 87. 87. 93. 87. 87. 87.
 87. 87. 87. 93. 87. 87. 93. 93. 93. 93. 93. 93. 93. 93. 87. 87.]",482.3004942807497,None,l,1,0.8009588663062459,482.3004942807497,None,None,None,15_SS,23,F,15,2021_Nov_03_1011,Partial repeat,2021.2.3,120.10669933139167,
7,3,0,1,1,2,2,2,3,1,1,1,0,1,0,0,0,55,55,55,1,0,1,0,,,,,,,,,0.9817140455186601,483.16640892142755,None,"[93. 93. 93. 87. 87. 93. 87. 93. 93. 87. 93. 93. 87. 87. 87. 93. 87. 93.
 87. 87. 87. 93. 93. 87. 87. 87. 87. 93. 87. 93. 87. 87. 87. 93.]",484.223835864924,None,l,1,1.4206676858116225,484.223835864924,None,None,None,15_SS,23,F,15,2021_Nov_03_1011,Partial repeat,2021.2.3,120.10669933139167,
7,3,0,1,1,2,2,2,3,1,1,1,0,1,0,0,0,55,55,55,,,,,,,,,,,,,,,,,,,,,,,,,,15_SS,23,F,15,2021_Nov_03_1011,Partial repeat,2021.2.3,120.10669933139167,
3,6,0,1,1,3,3,2,2,1,0,1,1,0,0,0,0,56,56,56,0,0,0,0,,,,,,,485.6642588707232,None,0.708535457678642,486.4385933460037,None,"[87. 87. 93. 87. 87. 93. 93. 93. 87. 87. 87. 93. 93. 93. 87. 87. 93. 87.
 93. 93. 93. 87. 87. 87. 93. 93. 93. 87. 87. 93. 87. 93. 87. 87.]",487.22125189139683,None,l,1,0.6312674614416665,487.22125189139683,None,None,None,15_SS,23,F,15,2021_Nov_03_1011,Partial repeat,2021.2.3,120.10669933139167,
3,6,0,1,1,3,3,2,2,1,0,1,1,0,0,0,0,56,56,56,1,0,1,0,,,,,,,,,0.953450321089399,487.9123270642765,None,"[87. 87. 93. 93. 87. 87. 93. 93. 93. 87. 87. 87. 87. 87. 93. 87. 93. 87.
 93. 87. 93. 93. 93. 87. 87. 93. 93. 87. 93. 87. 87. 93. 93. 93.]",488.9530898319665,None,s,1,0.7874123281637821,488.9530898319665,None,None,None,15_SS,23,F,15,2021_Nov_03_1011,Partial repeat,2021.2.3,120.10669933139167,
3,6,0,1,1,3,3,2,2,1,0,1,1,0,0,0,0,56,56,56,,,,,,,,,,,,,,,,,,,,,,,,,,15_SS,23,F,15,2021_Nov_03_1011,Partial repeat,2021.2.3,120.10669933139167,
3,5,0,1,1,2,2,2,2,1,1,1,1,1,0,0,0,57,57,57,0,0,0,0,,,,,,,489.76905299631244,None,0.7037032575458212,490.80149746669895,None,"[87. 93. 87. 87. 93. 93. 87. 87. 93. 87. 87. 93. 93. 93. 87. 87. 93. 87.
 87. 93. 93. 87. 93. 93. 87. 87. 87. 87. 87. 93. 87. 93. 87. 93.]",491.58414478718555,None,l,1,0.9403991475576277,491.58414478718555,None,None,None,15_SS,23,F,15,2021_Nov_03_1011,Partial repeat,2021.2.3,120.10669933139167,
3,5,0,1,1,2,2,2,2,1,1,1,1,1,0,0,0,57,57,57,1,0,1,0,,,,,,,,,0.8505915649173872,492.5832929771211,None,"[93. 93. 93. 93. 87. 87. 93. 93. 87. 93. 87. 87. 87. 87. 93. 87. 87. 93.
 93. 93. 93. 87. 93. 87. 93. 93. 87. 87. 93. 87. 93. 87. 93. 87.]",493.5241412465291,None,l,1,0.776440462911296,493.5241412465291,None,None,None,15_SS,23,F,15,2021_Nov_03_1011,Partial repeat,2021.2.3,120.10669933139167,
3,5,0,1,1,2,2,2,2,1,1,1,1,1,0,0,0,57,57,57,,,,,,,,,,,,,,,,,,,,,,,,,,15_SS,23,F,15,2021_Nov_03_1011,Partial repeat,2021.2.3,120.10669933139167,
7,4,0,1,1,3,3,3,3,0,0,1,1,1,0,0,0,58,58,58,0,0,0,0,,,,,,,494.3151376526348,None,0.8065152770982282,495.13942616993995,None,"[93. 93. 87. 87. 93. 93. 93. 87. 87. 93. 93. 87. 93. 87. 93. 93. 87. 93.
 93. 93. 87. 87. 93. 87. 87. 87. 87. 93. 87. 87. 87. 93. 87. 93.]",496.02200466571276,None,s,1,0.9345961914943928,496.02200466571276,None,None,None,15_SS,23,F,15,2021_Nov_03_1011,Partial repeat,2021.2.3,120.10669933139167,
7,4,0,1,1,3,3,3,3,0,0,1,1,1,0,0,0,58,58,58,1,0,1,0,,,,,,,,,0.8765645441735993,497.0211374614905,None,"[87. 87. 87. 87. 93. 87. 93. 93. 93. 93. 93. 87. 87. 93. 87. 87. 87. 87.
 93. 87. 93. 87. 87. 93. 87. 87. 93. 87. 87. 93. 93. 87. 93. 87.]",497.9786466995888,None,l,0,0.8819552275122078,497.9786466995888,None,498.8778710906056,None,15_SS,23,F,15,2021_Nov_03_1011,Partial repeat,2021.2.3,120.10669933139167,
7,4,0,1,1,3,3,3,3,0,0,1,1,1,0,0,0,58,58,58,,,,,,,,,,,,,,,,,,,,,,,,,,15_SS,23,F,15,2021_Nov_03_1011,Partial repeat,2021.2.3,120.10669933139167,
8,4,0,1,1,3,2,2,3,1,0,0,0,0,0,0,0,59,59,59,0,0,0,0,,,,,,,499.37744069561086,None,0.7534641786427998,500.65966820458584,None,"[93. 87. 87. 93. 87. 93. 93. 87. 87. 93. 93. 87. 87. 87. 93. 93. 87. 87.
 93. 93. 93. 93. 87. 87. 93. 93. 87. 93. 87. 87. 93. 87. 87. 93.]",501.4923077317799,None,l,1,0.9833308879376546,501.4923077317799,None,None,None,15_SS,23,F,15,2021_Nov_03_1011,Partial repeat,2021.2.3,120.10669933139167,
8,4,0,1,1,3,2,2,3,1,0,0,0,0,0,0,0,59,59,59,1,0,1,0,,,,,,,,,0.8606095132772869,502.54137885471323,None,"[93. 87. 93. 87. 87. 87. 87. 87. 93. 93. 87. 93. 87. 87. 93. 93. 87. 93.
 93. 87. 87. 93. 93. 87. 87. 87. 93. 93. 87. 93. 93. 93. 87. 87.]",503.49057396475905,None,l,0,1.097114239540815,503.49057396475905,None,504.60626651263965,None,15_SS,23,F,15,2021_Nov_03_1011,Partial repeat,2021.2.3,120.10669933139167,
8,4,0,1,1,3,2,2,3,1,0,0,0,0,0,0,0,59,59,59,,,,,,,,,,,,,,,,,,,,,,,,,,15_SS,23,F,15,2021_Nov_03_1011,Partial repeat,2021.2.3,120.10669933139167,
1,1,0,1,1,3,2,3,3,1,1,0,1,1,0,0,0,60,60,60,0,0,0,0,,,,,,,505.1058374004913,None,0.9049064252675088,506.4879794077483,None,"[93. 93. 87. 87. 87. 93. 87. 87. 93. 93. 87. 87. 93. 87. 93. 87. 93. 93.
 87. 87. 93. 87. 93. 93. 87. 87. 87. 87. 93. 87. 93. 93. 87. 87.]",507.470464704724,None,l,1,0.7652450616594706,507.470464704724,None,None,None,15_SS,23,F,15,2021_Nov_03_1011,Partial repeat,2021.2.3,120.10669933139167,
1,1,0,1,1,3,2,3,3,1,1,0,1,1,0,0,0,60,60,60,1,0,1,0,,,,,,,,,0.974888152005785,508.29475610843406,None,"[93. 87. 87. 87. 87. 93. 93. 87. 87. 87. 93. 87. 87. 87. 93. 87. 93. 93.
 93. 87. 93. 93. 93. 93. 93. 93. 87. 93. 93. 93. 87. 93. 93. 93.]",509.3438593025294,None,l,1,0.7485135364127018,509.3438593025294,None,None,None,15_SS,23,F,15,2021_Nov_03_1011,Partial repeat,2021.2.3,120.10669933139167,
1,1,0,1,1,3,2,3,3,1,1,0,1,1,0,0,0,60,60,60,,,,,,,,,,,,,,,,,,,,,,,,,,15_SS,23,F,15,2021_Nov_03_1011,Partial repeat,2021.2.3,120.10669933139167,
2,4,0,1,1,2,3,2,3,1,0,0,0,0,0,0,0,61,61,61,0,0,0,0,,,,,,,510.1181847978844,None,0.8818633051738495,510.6760430985105,None,"[87. 87. 87. 93. 93. 87. 93. 87. 87. 87. 93. 93. 87. 87. 87. 87. 87. 93.
 87. 87. 93. 93. 87. 87. 87. 87. 87. 87. 93. 87. 93. 87. 87. 93.]",511.6335661272085,None,l,1,0.730195130067159,511.6335661272085,None,None,None,15_SS,23,F,15,2021_Nov_03_1011,Partial repeat,2021.2.3,120.10669933139167,
2,4,0,1,1,2,3,2,3,1,0,0,0,0,0,0,0,61,61,61,1,0,1,0,,,,,,,,,0.9679911812463504,512.4245407249239,None,"[93. 87. 87. 93. 87. 93. 87. 93. 87. 93. 93. 93. 87. 87. 87. 93. 93. 93.
 87. 93. 87. 87. 93. 93. 93. 93. 93. 87. 93. 93. 87. 93. 87. 87.]",513.4986254299943,None,s,1,0.8491149989861242,513.4986254299943,None,None,None,15_SS,23,F,15,2021_Nov_03_1011,Partial repeat,2021.2.3,120.10669933139167,
2,4,0,1,1,2,3,2,3,1,0,0,0,0,0,0,0,61,61,61,,,,,,,,,,,,,,,,,,,,,,,,,,15_SS,23,F,15,2021_Nov_03_1011,Partial repeat,2021.2.3,120.10669933139167,
8,8,0,1,1,2,2,3,3,1,0,1,1,0,0,0,0,62,62,62,0,0,0,0,,,,,,,514.3561983614202,None,0.8951753081828533,514.8807462702844,None,"[87. 87. 93. 87. 87. 93. 87. 93. 87. 93. 87. 93. 93. 87. 87. 93. 93. 87.
 93. 93. 87. 87. 87. 87. 93. 87. 87. 87. 87. 93. 93. 87. 87. 93.]",515.854909421417,None,l,1,1.0038836921439724,515.854909421417,None,None,None,15_SS,23,F,15,2021_Nov_03_1011,Partial repeat,2021.2.3,120.10669933139167,
8,8,0,1,1,2,2,3,3,1,0,1,1,0,0,0,0,62,62,62,1,0,1,0,,,,,,,,,0.7416582303639313,516.9289822601575,None,"[87. 93. 87. 93. 93. 93. 87. 93. 87. 87. 87. 87. 87. 93. 87. 93. 87. 87.
 87. 87. 93. 93. 87. 87. 87. 87. 93. 87. 87. 93. 87. 93. 87. 87.]",517.7449463866385,None,s,1,0.8586279470762292,517.7449463866385,None,None,None,15_SS,23,F,15,2021_Nov_03_1011,Partial repeat,2021.2.3,120.10669933139167,
8,8,0,1,1,2,2,3,3,1,0,1,1,0,0,0,0,62,62,62,,,,,,,,,,,,,,,,,,,,,,,,,,15_SS,23,F,15,2021_Nov_03_1011,Partial repeat,2021.2.3,120.10669933139167,
5,2,0,1,1,2,3,2,3,0,1,0,0,0,0,0,0,63,63,63,0,0,0,0,,,,,,,518.6191911909498,None,0.8815380512524575,519.4518130790048,None,"[93. 93. 87. 93. 87. 87. 87. 87. 87. 93. 93. 87. 93. 93. 93. 87. 87. 87.
 93. 93. 87. 93. 93. 93. 87. 93. 93. 93. 93. 87. 87. 87. 93. 93.]",520.4093159028707,None,s,1,1.2015013820835065,520.4093159028707,None,None,None,15_SS,23,F,15,2021_Nov_03_1011,Partial repeat,2021.2.3,120.10669933139167,
5,2,0,1,1,2,3,2,3,0,1,0,0,0,0,0,0,63,63,63,1,0,1,0,,,,,,,,,0.7700352016647725,521.6748920645041,None,"[87. 93. 87. 87. 93. 93. 87. 87. 93. 93. 87. 93. 87. 93. 93. 87. 93. 93.
 87. 93. 93. 93. 93. 93. 87. 87. 87. 93. 87. 87. 93. 93. 93. 93.]",522.5241604892265,None,l,1,0.606673049392839,522.5241604892265,None,None,None,15_SS,23,F,15,2021_Nov_03_1011,Partial repeat,2021.2.3,120.10669933139167,
5,2,0,1,1,2,3,2,3,0,1,0,0,0,0,0,0,63,63,63,,,,,,,,,,,,,,,,,,,,,,,,,,15_SS,23,F,15,2021_Nov_03_1011,Partial repeat,2021.2.3,120.10669933139167,
1,1,0,1,1,2,3,2,3,0,1,0,0,0,1,0,0,64,64,64,0,0,0,0,,,,,,,597.7676322438333,None,0.9635576692891743,600.2238535040631,None,"[87. 93. 87. 93. 93. 93. 93. 93. 87. 93. 87. 87. 93. 87. 87. 87. 93. 93.
 93. 93. 87. 87. 87. 93. 87. 87. 87. 93. 87. 93. 93. 87. 93. 87.]",601.2646249309669,None,s,1,0.821972212399487,601.2646249309669,None,None,None,15_SS,23,F,15,2021_Nov_03_1011,Partial repeat,2021.2.3,120.10669933139167,
1,1,0,1,1,2,3,2,3,0,1,0,0,0,1,0,0,64,64,64,1,0,1,0,,,,,,,,,0.9509251604991352,602.1471944468142,None,"[93. 93. 87. 87. 87. 93. 93. 87. 93. 87. 87. 93. 93. 93. 93. 87. 87. 93.
 87. 93. 93. 87. 93. 87. 87. 93. 93. 87. 87. 93. 93. 93. 93. 93.]",603.1796488592609,None,l,1,2.0269303499117086,603.1796488592609,None,None,None,15_SS,23,F,15,2021_Nov_03_1011,Partial repeat,2021.2.3,120.10669933139167,
1,1,0,1,1,2,3,2,3,0,1,0,0,0,1,0,0,64,64,64,,,,,,,,,,,,,,,,,,,,,,,,,,15_SS,23,F,15,2021_Nov_03_1011,Partial repeat,2021.2.3,120.10669933139167,
1,1,0,1,1,2,2,2,3,1,0,1,0,0,1,0,0,65,65,65,0,0,0,0,,,,,,,605.2361973736286,None,0.7533648067153702,605.918944627856,None,"[93. 87. 93. 87. 87. 87. 93. 93. 87. 93. 87. 87. 93. 93. 93. 87. 93. 87.
 93. 87. 87. 93. 87. 87. 87. 87. 87. 87. 93. 87. 93. 87. 93. 93.]",606.7515613845251,None,l,1,0.7270762095567989,606.7515613845251,None,None,None,15_SS,23,F,15,2021_Nov_03_1011,Partial repeat,2021.2.3,120.10669933139167,
1,1,0,1,1,2,2,2,3,1,0,1,0,0,1,0,0,65,65,65,1,0,1,0,,,,,,,,,0.8817966507221323,607.5425456035889,None,"[87. 93. 87. 87. 87. 93. 87. 87. 93. 93. 87. 93. 93. 93. 87. 93. 87. 87.
 87. 87. 87. 87. 87. 93. 87. 87. 93. 93. 93. 87. 87. 93. 93. 87.]",608.5000529174174,None,s,1,0.7056289406407359,608.5000529174174,None,None,None,15_SS,23,F,15,2021_Nov_03_1011,Partial repeat,2021.2.3,120.10669933139167,
1,1,0,1,1,2,2,2,3,1,0,1,0,0,1,0,0,65,65,65,,,,,,,,,,,,,,,,,,,,,,,,,,15_SS,23,F,15,2021_Nov_03_1011,Partial repeat,2021.2.3,120.10669933139167,
1,1,0,1,1,2,3,2,2,0,0,0,1,1,1,0,0,66,66,66,0,0,0,0,,,,,,,609.2244311056918,None,0.750021644535947,610.281853238514,None,"[87. 93. 93. 87. 87. 93. 87. 87. 93. 87. 87. 93. 87. 93. 87. 87. 87. 87.
 93. 87. 93. 93. 87. 93. 93. 93. 93. 87. 93. 87. 87. 93. 93. 93.]",611.106143680089,None,s,1,0.6115411310820491,611.106143680089,None,None,None,15_SS,23,F,15,2021_Nov_03_1011,Partial repeat,2021.2.3,120.10669933139167,
1,1,0,1,1,2,3,2,2,0,0,0,1,1,1,0,0,66,66,66,1,0,1,0,,,,,,,,,0.9963425925977905,611.7805636570874,None,"[93. 87. 93. 93. 87. 87. 93. 93. 93. 93. 93. 93. 93. 93. 87. 93. 93. 87.
 87. 93. 93. 93. 87. 93. 87. 87. 87. 93. 93. 87. 87. 87. 93. 93.]",612.8546265537677,None,s,1,0.6230553196846813,612.8546265537677,None,None,None,15_SS,23,F,15,2021_Nov_03_1011,Partial repeat,2021.2.3,120.10669933139167,
1,1,0,1,1,2,3,2,2,0,0,0,1,1,1,0,0,66,66,66,,,,,,,,,,,,,,,,,,,,,,,,,,15_SS,23,F,15,2021_Nov_03_1011,Partial repeat,2021.2.3,120.10669933139167,
1,1,0,1,1,2,3,3,2,1,1,0,0,1,1,0,0,67,67,67,0,0,0,0,,,,,,,613.504071113312,None,0.9294761507558795,613.9786627351698,None,"[87. 93. 87. 93. 87. 93. 93. 93. 93. 87. 87. 93. 93. 93. 87. 93. 87. 87.
 87. 87. 93. 93. 93. 87. 93. 87. 87. 87. 93. 87. 87. 93. 87. 93.]",614.9861311466789,None,l,1,0.5075927220361791,614.9861311466789,None,None,None,15_SS,23,F,15,2021_Nov_03_1011,Partial repeat,2021.2.3,120.10669933139167,
1,1,0,1,1,2,3,3,2,1,1,0,0,1,1,0,0,67,67,67,1,0,1,0,,,,,,,,,0.9898892528388905,615.560632776856,None,"[87. 93. 93. 93. 93. 87. 93. 87. 93. 87. 93. 87. 87. 93. 87. 93. 87. 93.
 87. 87. 87. 93. 87. 87. 87. 93. 87. 87. 87. 87. 93. 93. 87. 93.]",616.6264065609901,None,l,1,0.5313240991138173,616.6264065609901,None,None,None,15_SS,23,F,15,2021_Nov_03_1011,Partial repeat,2021.2.3,120.10669933139167,
1,1,0,1,1,2,3,3,2,1,1,0,0,1,1,0,0,67,67,67,,,,,,,,,,,,,,,,,,,,,,,,,,15_SS,23,F,15,2021_Nov_03_1011,Partial repeat,2021.2.3,120.10669933139167,
1,1,0,1,1,2,3,3,3,0,1,0,1,0,1,0,0,68,68,68,0,0,0,0,,,,,,,617.1759279630387,None,0.9504758945459875,617.5755689584505,None,"[87. 93. 93. 87. 93. 93. 93. 93. 93. 87. 93. 87. 87. 87. 93. 87. 93. 87.
 93. 93. 93. 93. 87. 93. 93. 93. 87. 87. 93. 87. 93. 87. 87. 87.]",618.6080086181628,None,s,1,0.5813528669464176,618.6080086181628,None,None,None,15_SS,23,F,15,2021_Nov_03_1011,Partial repeat,2021.2.3,120.10669933139167,
1,1,0,1,1,2,3,3,3,0,1,0,1,0,1,0,0,68,68,68,1,0,1,0,,,,,,,,,0.9244472348142626,619.2491194862457,None,"[87. 87. 87. 87. 93. 93. 87. 87. 87. 87. 93. 87. 93. 93. 93. 93. 87. 93.
 87. 93. 93. 87. 93. 87. 93. 87. 87. 87. 87. 87. 87. 87. 93. 87.]",620.2482615826607,None,l,1,0.7015055513347761,620.2482615826607,None,None,None,15_SS,23,F,15,2021_Nov_03_1011,Partial repeat,2021.2.3,120.10669933139167,
1,1,0,1,1,2,3,3,3,0,1,0,1,0,1,0,0,68,68,68,,,,,,,,,,,,,,,,,,,,,,,,,,15_SS,23,F,15,2021_Nov_03_1011,Partial repeat,2021.2.3,120.10669933139167,
1,1,0,1,1,3,3,2,3,1,1,1,0,1,1,0,0,69,69,69,0,0,0,0,,,,,,,620.972635601684,None,0.849010464566396,621.6137471111902,None,"[93. 87. 93. 93. 87. 93. 93. 93. 93. 93. 93. 87. 87. 87. 87. 87. 93. 87.
 93. 93. 87. 87. 93. 87. 87. 87. 93. 93. 87. 93. 87. 87. 87. 93.]",622.5379536546052,None,l,1,0.7478422869908172,622.5379536546052,None,None,None,15_SS,23,F,15,2021_Nov_03_1011,Partial repeat,2021.2.3,120.10669933139167,
1,1,0,1,1,3,3,2,3,1,1,1,0,1,1,0,0,69,69,69,1,0,1,0,,,,,,,,,0.700639028923569,623.3539171396628,None,"[87. 93. 87. 87. 87. 93. 87. 93. 93. 93. 93. 87. 87. 87. 93. 87. 93. 87.
 87. 93. 87. 87. 93. 87. 87. 87. 93. 93. 93. 93. 93. 87. 87. 93.]",624.1365744022096,None,l,1,0.6362548478537065,624.1365744022096,None,None,None,15_SS,23,F,15,2021_Nov_03_1011,Partial repeat,2021.2.3,120.10669933139167,
1,1,0,1,1,3,3,2,3,1,1,1,0,1,1,0,0,69,69,69,,,,,,,,,,,,,,,,,,,,,,,,,,15_SS,23,F,15,2021_Nov_03_1011,Partial repeat,2021.2.3,120.10669933139167,
1,1,0,1,1,2,2,3,3,1,0,1,1,0,1,0,0,70,70,70,0,0,0,0,,,,,,,624.7943411075969,None,0.9497741800258468,625.6269556192847,None,"[87. 87. 93. 93. 87. 93. 87. 87. 87. 93. 93. 87. 87. 87. 87. 93. 87. 93.
 93. 93. 87. 87. 93. 93. 87. 87. 87. 87. 93. 87. 87. 87. 87. 93.]",626.6510792266745,None,l,1,0.8744431992229238,626.6510792266745,None,None,None,15_SS,23,F,15,2021_Nov_03_1011,Partial repeat,2021.2.3,120.10669933139167,
1,1,0,1,1,2,2,3,3,1,0,1,1,0,1,0,0,70,70,70,1,0,1,0,,,,,,,,,0.8174489555913199,627.5919323067569,None,"[87. 87. 87. 93. 87. 87. 93. 93. 93. 93. 87. 87. 93. 87. 87. 93. 93. 93.
 87. 93. 87. 93. 87. 93. 87. 87. 87. 87. 87. 93. 87. 93. 93. 93.]",628.4911544527922,None,s,1,0.6976935730122023,628.4911544527922,None,None,None,15_SS,23,F,15,2021_Nov_03_1011,Partial repeat,2021.2.3,120.10669933139167,
1,1,0,1,1,2,2,3,3,1,0,1,1,0,1,0,0,70,70,70,,,,,,,,,,,,,,,,,,,,,,,,,,15_SS,23,F,15,2021_Nov_03_1011,Partial repeat,2021.2.3,120.10669933139167,
1,1,0,1,1,3,3,3,2,0,1,1,0,0,1,0,0,71,71,71,0,0,0,0,,,,,,,629.1988768037625,None,0.9168054273015152,629.7067807416522,None,"[93. 93. 87. 87. 87. 93. 93. 87. 93. 87. 87. 87. 93. 93. 87. 93. 93. 93.
 93. 87. 87. 87. 87. 93. 93. 87. 93. 93. 87. 87. 87. 93. 93. 93.]",630.6975888258942,None,s,1,0.6352766774109568,630.6975888258942,None,None,None,15_SS,23,F,15,2021_Nov_03_1011,Partial repeat,2021.2.3,120.10669933139167,
1,1,0,1,1,3,3,3,2,0,1,1,0,0,1,0,0,71,71,71,1,0,1,0,,,,,,,,,0.8138418031081267,631.4053089318829,None,"[87. 93. 93. 93. 93. 93. 87. 93. 93. 93. 87. 93. 93. 93. 93. 87. 93. 93.
 93. 87. 93. 87. 87. 93. 87. 87. 87. 93. 93. 87. 87. 87. 87. 87.]",632.3045605833875,None,l,1,0.7091086617242581,632.3045605833875,None,None,None,15_SS,23,F,15,2021_Nov_03_1011,Partial repeat,2021.2.3,120.10669933139167,
1,1,0,1,1,3,3,3,2,0,1,1,0,0,1,0,0,71,71,71,,,,,,,,,,,,,,,,,,,,,,,,,,15_SS,23,F,15,2021_Nov_03_1011,Partial repeat,2021.2.3,120.10669933139167,
1,1,0,1,1,3,3,2,2,1,1,1,1,1,1,0,0,72,72,72,0,0,0,0,,,,,,,633.0372214699753,None,0.8694714928736312,633.5950871469688,None,"[87. 87. 93. 93. 87. 87. 93. 93. 87. 93. 87. 93. 93. 93. 93. 93. 87. 93.
 93. 87. 87. 87. 93. 87. 87. 93. 87. 93. 87. 93. 93. 87. 93. 93.]",634.5442716735311,None,l,1,0.9656869381301476,634.5442716735311,None,None,None,15_SS,23,F,15,2021_Nov_03_1011,Partial repeat,2021.2.3,120.10669933139167,
1,1,0,1,1,3,3,2,2,1,1,1,1,1,1,0,0,72,72,72,1,0,1,0,,,,,,,,,0.9980752766456922,635.5683863009956,None,"[93. 93. 87. 87. 93. 93. 87. 93. 93. 93. 93. 87. 87. 87. 93. 87. 87. 93.
 93. 93. 87. 93. 93. 87. 87. 93. 93. 93. 87. 93. 93. 87. 87. 87.]",636.6507777577513,None,l,1,0.9061461843425604,636.6507777577513,None,None,None,15_SS,23,F,15,2021_Nov_03_1011,Partial repeat,2021.2.3,120.10669933139167,
1,1,0,1,1,3,3,2,2,1,1,1,1,1,1,0,0,72,72,72,,,,,,,,,,,,,,,,,,,,,,,,,,15_SS,23,F,15,2021_Nov_03_1011,Partial repeat,2021.2.3,120.10669933139167,
1,1,0,1,1,3,2,2,2,0,1,0,1,0,1,0,0,73,73,73,0,0,0,0,,,,,,,637.5666717766719,None,0.8275795293710796,638.3326712776445,None,"[93. 93. 87. 87. 87. 93. 93. 93. 87. 93. 87. 93. 87. 87. 93. 93. 93. 93.
 87. 87. 93. 87. 93. 87. 93. 87. 93. 93. 87. 87. 93. 93. 87. 87.]",639.2402229458903,None,s,1,0.6532695614616841,639.2402229458903,None,None,None,15_SS,23,F,15,2021_Nov_03_1011,Partial repeat,2021.2.3,120.10669933139167,
1,1,0,1,1,3,2,2,2,0,1,0,1,0,1,0,0,73,73,73,1,0,1,0,,,,,,,,,0.9094321578480591,639.9562712912427,None,"[93. 87. 87. 87. 93. 87. 93. 93. 93. 87. 87. 87. 93. 87. 87. 87. 87. 93.
 87. 93. 87. 87. 93. 87. 87. 87. 87. 93. 93. 87. 93. 87. 87. 93.]",640.947101183875,None,l,1,0.5768885611876158,640.947101183875,None,None,None,15_SS,23,F,15,2021_Nov_03_1011,Partial repeat,2021.2.3,120.10669933139167,
1,1,0,1,1,3,2,2,2,0,1,0,1,0,1,0,0,73,73,73,,,,,,,,,,,,,,,,,,,,,,,,,,15_SS,23,F,15,2021_Nov_03_1011,Partial repeat,2021.2.3,120.10669933139167,
1,1,0,1,1,2,2,2,2,0,0,1,1,1,1,0,0,74,74,74,0,0,0,0,,,,,,,641.5465673273113,None,0.9867002641212623,642.4124864579519,None,"[87. 93. 87. 93. 87. 87. 93. 87. 93. 93. 87. 93. 87. 93. 87. 87. 93. 87.
 93. 93. 87. 87. 87. 93. 87. 93. 87. 87. 87. 93. 93. 93. 93. 93.]",643.4865615416736,None,s,1,0.6294544786505867,643.4865615416736,None,None,None,15_SS,23,F,15,2021_Nov_03_1011,Partial repeat,2021.2.3,120.10669933139167,
1,1,0,1,1,2,2,2,2,0,0,1,1,1,1,0,0,74,74,74,1,0,1,0,,,,,,,,,0.861696718965831,644.1776742378129,None,"[87. 87. 87. 93. 93. 87. 93. 87. 93. 87. 93. 87. 93. 93. 87. 87. 93. 87.
 87. 93. 87. 87. 93. 93. 87. 87. 87. 93. 87. 87. 87. 87. 93. 93.]",645.126820920404,None,s,1,0.8782805137632295,645.126820920404,None,None,None,15_SS,23,F,15,2021_Nov_03_1011,Partial repeat,2021.2.3,120.10669933139167,
1,1,0,1,1,2,2,2,2,0,0,1,1,1,1,0,0,74,74,74,,,,,,,,,,,,,,,,,,,,,,,,,,15_SS,23,F,15,2021_Nov_03_1011,Partial repeat,2021.2.3,120.10669933139167,
1,1,0,1,1,2,2,2,3,0,1,1,0,0,1,0,0,75,75,75,0,0,0,0,,,,,,,646.0260395386115,None,0.7094814508930656,646.6838039990175,None,"[93. 93. 87. 93. 87. 93. 87. 93. 93. 87. 93. 87. 87. 87. 93. 87. 93. 87.
 93. 93. 93. 93. 93. 87. 93. 93. 93. 93. 93. 87. 87. 87. 93. 87.]",647.4747920666209,None,s,1,0.7533928430084416,647.4747920666209,None,None,None,15_SS,23,F,15,2021_Nov_03_1011,Partial repeat,2021.2.3,120.10669933139167,
1,1,0,1,1,2,2,2,3,0,1,1,0,0,1,0,0,75,75,75,1,0,1,0,,,,,,,,,0.9037301450274476,648.2907584380832,None,"[87. 87. 87. 87. 87. 93. 87. 93. 87. 87. 93. 93. 93. 93. 87. 87. 87. 93.
 87. 87. 93. 87. 87. 87. 87. 87. 93. 87. 87. 93. 87. 93. 93. 93.]",649.2732491871566,None,l,1,0.7947938268234793,649.2732491871566,None,None,None,15_SS,23,F,15,2021_Nov_03_1011,Partial repeat,2021.2.3,120.10669933139167,
1,1,0,1,1,2,2,2,3,0,1,1,0,0,1,0,0,75,75,75,,,,,,,,,,,,,,,,,,,,,,,,,,15_SS,23,F,15,2021_Nov_03_1011,Partial repeat,2021.2.3,120.10669933139167,
1,1,0,1,1,2,2,3,3,0,1,1,1,0,1,0,0,76,76,76,0,0,0,0,,,,,,,650.0892020887306,None,0.9328715294173542,651.2715176651168,None,"[87. 93. 87. 93. 93. 93. 93. 87. 93. 93. 87. 93. 87. 93. 87. 93. 87. 87.
 93. 93. 93. 87. 93. 93. 93. 93. 93. 93. 87. 87. 93. 93. 87. 93.]",652.2789847937793,None,s,1,0.6530867558378759,652.2789847937793,None,None,None,15_SS,23,F,15,2021_Nov_03_1011,Partial repeat,2021.2.3,120.10669933139167,
1,1,0,1,1,2,2,3,3,0,1,1,1,0,1,0,0,76,76,76,1,0,1,0,,,,,,,,,0.8932747892018773,652.9867068240378,None,"[87. 93. 93. 87. 93. 87. 93. 87. 93. 93. 93. 87. 87. 93. 93. 93. 87. 93.
 87. 87. 93. 87. 87. 87. 93. 93. 93. 87. 87. 93. 87. 87. 93. 87.]",653.9608651644962,None,l,1,0.7952232596835529,653.9608651644962,None,None,None,15_SS,23,F,15,2021_Nov_03_1011,Partial repeat,2021.2.3,120.10669933139167,
1,1,0,1,1,2,2,3,3,0,1,1,1,0,1,0,0,76,76,76,,,,,,,,,,,,,,,,,,,,,,,,,,15_SS,23,F,15,2021_Nov_03_1011,Partial repeat,2021.2.3,120.10669933139167,
1,1,0,1,1,2,3,3,2,1,0,0,0,0,1,0,0,77,77,77,0,0,0,0,,,,,,,654.7768283288424,None,0.7689999940618458,655.6594007310944,None,"[87. 87. 93. 87. 87. 93. 87. 93. 93. 93. 93. 93. 93. 87. 87. 87. 93. 87.
 87. 87. 93. 93. 87. 93. 87. 87. 87. 93. 87. 87. 93. 87. 87. 87.]",656.5169989987385,None,l,1,1.1501323603888522,656.5169989987385,None,None,None,15_SS,23,F,15,2021_Nov_03_1011,Partial repeat,2021.2.3,120.10669933139167,
1,1,0,1,1,2,3,3,2,1,0,0,0,0,1,0,0,77,77,77,1,0,1,0,,,,,,,,,0.911564043599371,657.7326127798451,None,"[93. 87. 87. 87. 87. 87. 87. 93. 93. 87. 93. 93. 87. 87. 93. 93. 87. 93.
 87. 93. 93. 93. 87. 93. 87. 87. 87. 87. 93. 87. 87. 87. 87. 93.]",658.7317596869343,None,s,1,0.7921758578645495,658.7317596869343,None,None,None,15_SS,23,F,15,2021_Nov_03_1011,Partial repeat,2021.2.3,120.10669933139167,
1,1,0,1,1,2,3,3,2,1,0,0,0,0,1,0,0,77,77,77,,,,,,,,,,,,,,,,,,,,,,,,,,15_SS,23,F,15,2021_Nov_03_1011,Partial repeat,2021.2.3,120.10669933139167,
1,1,0,1,1,3,2,3,3,0,1,0,1,0,1,0,0,78,78,78,0,0,0,0,,,,,,,659.5477177198943,None,0.8948715889271864,660.6051433805444,None,"[93. 93. 93. 93. 93. 93. 93. 87. 93. 93. 93. 93. 87. 87. 93. 93. 87. 87.
 93. 93. 93. 93. 87. 87. 93. 93. 93. 93. 93. 93. 87. 93. 93. 93.]",661.5793081352351,None,s,1,0.6798552719628788,661.5793081352351,None,None,None,15_SS,23,F,15,2021_Nov_03_1011,Partial repeat,2021.2.3,120.10669933139167,
1,1,0,1,1,3,2,3,3,0,1,0,1,0,1,0,0,78,78,78,1,0,1,0,,,,,,,,,0.7521578561152024,662.3203267666561,None,"[93. 87. 93. 87. 93. 93. 87. 87. 93. 87. 87. 93. 87. 87. 93. 87. 87. 93.
 93. 87. 87. 87. 93. 93. 87. 93. 93. 87. 87. 87. 93. 93. 87. 93.]",663.1529435233251,None,l,1,0.6586863807335703,663.1529435233251,None,None,None,15_SS,23,F,15,2021_Nov_03_1011,Partial repeat,2021.2.3,120.10669933139167,
1,1,0,1,1,3,2,3,3,0,1,0,1,0,1,0,0,78,78,78,,,,,,,,,,,,,,,,,,,,,,,,,,15_SS,23,F,15,2021_Nov_03_1011,Partial repeat,2021.2.3,120.10669933139167,
1,1,0,1,1,3,3,3,3,0,0,1,1,1,1,0,0,79,79,79,0,0,0,0,,,,,,,663.8440132441071,None,0.7836417390073556,664.6849550330237,None,"[87. 93. 87. 93. 93. 87. 87. 93. 87. 93. 93. 87. 87. 93. 93. 93. 93. 93.
 93. 93. 87. 87. 93. 87. 87. 93. 87. 87. 93. 87. 93. 93. 87. 87.]",665.5425526592446,None,s,1,0.8126590676488377,665.5425526592446,None,None,None,15_SS,23,F,15,2021_Nov_03_1011,Partial repeat,2021.2.3,120.10669933139167,
1,1,0,1,1,3,3,3,3,0,0,1,1,1,1,0,0,79,79,79,1,0,1,0,,,,,,,,,0.730043113733905,666.4251240993617,None,"[87. 93. 93. 87. 93. 87. 87. 87. 87. 87. 87. 87. 93. 87. 93. 93. 87. 87.
 93. 93. 87. 87. 93. 93. 87. 93. 93. 87. 93. 93. 87. 87. 93. 87.]",667.2327628728835,None,s,1,1.3465576445232728,667.2327628728835,None,None,None,15_SS,23,F,15,2021_Nov_03_1011,Partial repeat,2021.2.3,120.10669933139167,
1,1,0,1,1,3,3,3,3,0,0,1,1,1,1,0,0,79,79,79,,,,,,,,,,,,,,,,,,,,,,,,,,15_SS,23,F,15,2021_Nov_03_1011,Partial repeat,2021.2.3,120.10669933139167,
1,1,0,1,1,2,3,3,3,1,1,0,1,1,1,0,0,80,80,80,0,0,0,0,,,,,,,668.5899307455327,None,0.8647377220535971,670.3966987870047,None,"[93. 93. 93. 93. 93. 93. 93. 93. 93. 93. 87. 87. 93. 93. 93. 93. 93. 87.
 93. 87. 87. 87. 87. 93. 87. 87. 87. 93. 93. 93. 87. 87. 87. 93.]",671.3375547534915,None,l,1,0.6327093808881727,671.3375547534915,None,None,None,15_SS,23,F,15,2021_Nov_03_1011,Partial repeat,2021.2.3,120.10669933139167,
1,1,0,1,1,2,3,3,3,1,1,0,1,1,1,0,0,80,80,80,1,0,1,0,,,,,,,,,0.7338620145261612,672.0286251156967,None,"[87. 87. 93. 87. 93. 93. 87. 87. 87. 87. 93. 93. 93. 87. 93. 93. 87. 93.
 87. 93. 93. 93. 93. 93. 93. 93. 93. 87. 93. 93. 93. 93. 87. 93.]",672.8445908457359,None,l,1,0.9496754104716274,672.8445908457359,None,None,None,15_SS,23,F,15,2021_Nov_03_1011,Partial repeat,2021.2.3,120.10669933139167,
1,1,0,1,1,2,3,3,3,1,1,0,1,1,1,0,0,80,80,80,,,,,,,,,,,,,,,,,,,,,,,,,,15_SS,23,F,15,2021_Nov_03_1011,Partial repeat,2021.2.3,120.10669933139167,
1,1,0,1,1,2,2,3,2,0,1,1,0,0,1,0,0,81,81,81,0,0,0,0,,,,,,,673.818752072599,None,0.7118299579653694,674.6014086937223,None,"[87. 87. 87. 87. 87. 93. 87. 87. 93. 93. 93. 93. 87. 87. 87. 93. 87. 93.
 87. 87. 87. 87. 93. 93. 93. 87. 93. 93. 93. 87. 87. 93. 93. 93.]",675.4007182657456,None,s,1,1.0336970443947848,675.4007182657456,None,None,None,15_SS,23,F,15,2021_Nov_03_1011,Partial repeat,2021.2.3,120.10669933139167,
1,1,0,1,1,2,2,3,2,0,1,1,0,0,1,0,0,81,81,81,1,0,1,0,,,,,,,,,0.913422346799289,676.4914748437013,None,"[93. 93. 93. 93. 93. 87. 87. 87. 87. 93. 87. 93. 87. 87. 87. 93. 87. 87.
 87. 93. 93. 93. 93. 93. 93. 93. 93. 87. 87. 93. 87. 87. 87. 93.]",677.48225855386,None,l,1,0.6640560553971682,677.48225855386,None,None,None,15_SS,23,F,15,2021_Nov_03_1011,Partial repeat,2021.2.3,120.10669933139167,
1,1,0,1,1,2,2,3,2,0,1,1,0,0,1,0,0,81,81,81,,,,,,,,,,,,,,,,,,,,,,,,,,15_SS,23,F,15,2021_Nov_03_1011,Partial repeat,2021.2.3,120.10669933139167,
1,1,0,1,1,2,2,3,3,1,1,1,1,1,1,0,0,82,82,82,0,0,0,0,,,,,,,678.16502408865,None,0.7785759576378364,679.0309220523236,None,"[87. 87. 87. 87. 93. 87. 93. 93. 87. 93. 87. 93. 93. 93. 93. 87. 87. 87.
 87. 87. 87. 87. 93. 87. 87. 87. 93. 87. 93. 87. 87. 87. 93. 87.]",679.8885171128513,None,l,1,0.6578111587207331,679.8885171128513,None,None,None,15_SS,23,F,15,2021_Nov_03_1011,Partial repeat,2021.2.3,120.10669933139167,
1,1,0,1,1,2,2,3,3,1,1,1,1,1,1,0,0,82,82,82,1,0,1,0,,,,,,,,,0.7345836237685393,680.6128898490283,None,"[87. 93. 93. 87. 87. 87. 87. 93. 93. 93. 93. 93. 93. 93. 87. 87. 93. 87.
 87. 93. 87. 87. 93. 93. 93. 87. 87. 87. 87. 93. 93. 93. 87. 93.]",681.4288587861836,None,l,1,0.8774784140002794,681.4288587861836,None,None,None,15_SS,23,F,15,2021_Nov_03_1011,Partial repeat,2021.2.3,120.10669933139167,
1,1,0,1,1,2,2,3,3,1,1,1,1,1,1,0,0,82,82,82,,,,,,,,,,,,,,,,,,,,,,,,,,15_SS,23,F,15,2021_Nov_03_1011,Partial repeat,2021.2.3,120.10669933139167,
1,1,0,1,1,2,2,2,3,1,1,1,0,1,1,0,0,83,83,83,0,0,0,0,,,,,,,682.3280879878746,None,0.7559943900903079,683.1523700909474,None,"[93. 87. 93. 93. 93. 87. 87. 93. 87. 87. 87. 87. 87. 87. 87. 87. 87. 93.
 93. 87. 87. 93. 87. 87. 93. 87. 93. 87. 87. 87. 87. 87. 93. 87.]",683.9849881304631,None,l,1,0.6733871599985832,683.9849881304631,None,None,None,15_SS,23,F,15,2021_Nov_03_1011,Partial repeat,2021.2.3,120.10669933139167,
1,1,0,1,1,2,2,2,3,1,1,1,0,1,1,0,0,83,83,83,1,0,1,0,,,,,,,,,0.8932180826746701,684.7176849367524,None,"[87. 93. 93. 93. 87. 93. 87. 93. 93. 87. 87. 93. 87. 87. 87. 87. 87. 93.
 93. 93. 87. 87. 93. 87. 87. 93. 93. 93. 93. 87. 87. 87. 93. 93.]",685.6918464843272,None,l,1,0.6945374499539412,685.6918464843272,None,None,None,15_SS,23,F,15,2021_Nov_03_1011,Partial repeat,2021.2.3,120.10669933139167,
1,1,0,1,1,2,2,2,3,1,1,1,0,1,1,0,0,83,83,83,,,,,,,,,,,,,,,,,,,,,,,,,,15_SS,23,F,15,2021_Nov_03_1011,Partial repeat,2021.2.3,120.10669933139167,
1,1,0,1,1,2,3,3,3,1,0,0,1,0,1,0,0,84,84,84,0,0,0,0,,,,,,,686.407898036796,None,0.857642558491269,687.2072130609167,None,"[93. 93. 87. 93. 87. 93. 87. 87. 87. 93. 93. 87. 93. 93. 87. 93. 93. 87.
 93. 93. 87. 93. 93. 87. 87. 93. 93. 93. 87. 87. 93. 87. 87. 93.]",688.148092439352,None,l,1,0.6853387992518947,688.148092439352,None,None,None,15_SS,23,F,15,2021_Nov_03_1011,Partial repeat,2021.2.3,120.10669933139167,
1,1,0,1,1,2,3,3,3,1,0,0,1,0,1,0,0,84,84,84,1,0,1,0,,,,,,,,,0.7816379723832778,688.9057428547055,None,"[87. 93. 93. 87. 93. 87. 93. 93. 93. 93. 93. 87. 93. 87. 93. 87. 87. 93.
 87. 93. 87. 93. 93. 93. 93. 93. 93. 93. 87. 93. 87. 87. 93. 87.]",689.7633408016379,None,s,1,1.1353103521312278,689.7633408016379,None,None,None,15_SS,23,F,15,2021_Nov_03_1011,Partial repeat,2021.2.3,120.10669933139167,
1,1,0,1,1,2,3,3,3,1,0,0,1,0,1,0,0,84,84,84,,,,,,,,,,,,,,,,,,,,,,,,,,15_SS,23,F,15,2021_Nov_03_1011,Partial repeat,2021.2.3,120.10669933139167,
1,1,0,1,1,2,3,2,2,1,0,0,1,0,1,0,0,85,85,85,0,0,0,0,,,,,,,690.9206739049141,None,0.8639962838803157,691.8365563782165,None,"[93. 93. 93. 93. 93. 93. 93. 87. 93. 93. 93. 93. 93. 87. 87. 93. 93. 93.
 87. 93. 93. 93. 93. 93. 93. 87. 87. 87. 87. 93. 93. 87. 87. 87.]",692.7774084961641,None,l,1,0.6480454898735388,692.7774084961641,None,None,None,15_SS,23,F,15,2021_Nov_03_1011,Partial repeat,2021.2.3,120.10669933139167,
1,1,0,1,1,2,3,2,2,1,0,0,1,0,1,0,0,85,85,85,1,0,1,0,,,,,,,,,0.8097224341874547,693.4768026077704,None,"[93. 93. 93. 87. 93. 87. 93. 93. 87. 87. 93. 93. 93. 93. 93. 93. 93. 93.
 87. 93. 93. 87. 87. 87. 87. 87. 87. 93. 87. 93. 93. 87. 87. 87.]",694.367717681409,None,s,1,0.8817775532743326,694.367717681409,None,None,None,15_SS,23,F,15,2021_Nov_03_1011,Partial repeat,2021.2.3,120.10669933139167,
1,1,0,1,1,2,3,2,2,1,0,0,1,0,1,0,0,85,85,85,,,,,,,,,,,,,,,,,,,,,,,,,,15_SS,23,F,15,2021_Nov_03_1011,Partial repeat,2021.2.3,120.10669933139167,
1,1,0,1,1,3,2,2,3,1,0,0,0,0,1,0,0,86,86,86,0,0,0,0,,,,,,,695.2669292439609,None,0.8763804321040992,696.5658084209892,None,"[93. 87. 93. 87. 93. 87. 87. 87. 87. 87. 87. 87. 93. 93. 93. 93. 87. 93.
 87. 87. 87. 87. 93. 87. 93. 87. 93. 93. 87. 93. 93. 93. 87. 87.]",697.5233250354547,None,l,1,0.57565638714118,697.5233250354547,None,None,None,15_SS,23,F,15,2021_Nov_03_1011,Partial repeat,2021.2.3,120.10669933139167,
1,1,0,1,1,3,2,2,3,1,0,0,0,0,1,0,0,86,86,86,1,0,1,0,,,,,,,,,0.9630933451956842,698.1561031742112,None,"[87. 93. 93. 87. 93. 93. 87. 93. 87. 93. 87. 87. 93. 87. 93. 87. 93. 93.
 93. 93. 87. 87. 87. 87. 87. 93. 93. 93. 93. 87. 87. 93. 87. 87.]",699.1968819774822,None,s,1,1.0126509857161636,699.1968819774822,None,None,None,15_SS,23,F,15,2021_Nov_03_1011,Partial repeat,2021.2.3,120.10669933139167,
1,1,0,1,1,3,2,2,3,1,0,0,0,0,1,0,0,86,86,86,,,,,,,,,,,,,,,,,,,,,,,,,,15_SS,23,F,15,2021_Nov_03_1011,Partial repeat,2021.2.3,120.10669933139167,
1,1,0,1,1,3,3,2,3,0,0,1,0,1,1,0,0,87,87,87,0,0,0,0,,,,,,,700.2293158643852,None,0.7796927422648036,701.4033015978496,None,"[87. 87. 93. 87. 93. 93. 93. 93. 87. 87. 87. 93. 87. 93. 87. 93. 93. 87.
 93. 87. 93. 87. 87. 93. 87. 87. 93. 87. 87. 87. 87. 93. 87. 87.]",702.2608998654937,None,s,1,0.9716887353981747,702.2608998654937,None,None,None,15_SS,23,F,15,2021_Nov_03_1011,Partial repeat,2021.2.3,120.10669933139167,
1,1,0,1,1,3,3,2,3,0,0,1,0,1,1,0,0,87,87,87,1,0,1,0,,,,,,,,,0.989416909979737,703.3016680852811,None,"[87. 93. 87. 87. 87. 87. 87. 93. 93. 93. 87. 93. 87. 87. 93. 87. 93. 93.
 93. 93. 93. 87. 93. 87. 93. 93. 87. 87. 87. 87. 93. 93. 93. 87.]",704.3674174953321,None,s,1,0.6891231963750215,704.3674174953321,None,None,None,15_SS,23,F,15,2021_Nov_03_1011,Partial repeat,2021.2.3,120.10669933139167,
1,1,0,1,1,3,3,2,3,0,0,1,0,1,1,0,0,87,87,87,,,,,,,,,,,,,,,,,,,,,,,,,,15_SS,23,F,15,2021_Nov_03_1011,Partial repeat,2021.2.3,120.10669933139167,
1,1,0,1,1,2,3,2,3,1,0,0,0,0,1,0,0,88,88,88,0,0,0,0,,,,,,,705.0751376013209,None,0.8549414608894398,705.8328197671249,None,"[93. 87. 87. 87. 93. 87. 93. 93. 93. 87. 87. 93. 87. 93. 87. 87. 87. 93.
 87. 93. 93. 93. 93. 93. 87. 93. 93. 93. 93. 93. 87. 93. 87. 93.]",706.7653494185179,None,l,1,0.5632422817311635,706.7653494185179,None,None,None,15_SS,23,F,15,2021_Nov_03_1011,Partial repeat,2021.2.3,120.10669933139167,
1,1,0,1,1,2,3,2,3,1,0,0,0,0,1,0,0,88,88,88,1,0,1,0,,,,,,,,,0.7176808930793189,707.398139744316,None,"[87. 87. 87. 87. 93. 87. 87. 93. 93. 93. 93. 93. 87. 93. 93. 93. 87. 93.
 87. 87. 93. 87. 87. 87. 93. 93. 93. 87. 87. 93. 93. 93. 87. 93.]",708.1974496370508,None,s,1,0.7631469662376276,708.1974496370508,None,None,None,15_SS,23,F,15,2021_Nov_03_1011,Partial repeat,2021.2.3,120.10669933139167,
1,1,0,1,1,2,3,2,3,1,0,0,0,0,1,0,0,88,88,88,,,,,,,,,,,,,,,,,,,,,,,,,,15_SS,23,F,15,2021_Nov_03_1011,Partial repeat,2021.2.3,120.10669933139167,
1,1,0,1,1,3,2,3,3,1,1,0,1,1,1,0,0,89,89,89,0,0,0,0,,,,,,,708.980112351695,None,0.7393912593848029,710.3622562832218,None,"[93. 93. 93. 87. 87. 93. 87. 93. 93. 87. 87. 93. 87. 87. 93. 93. 87. 93.
 87. 87. 87. 93. 93. 87. 87. 93. 87. 93. 87. 87. 87. 87. 93. 87.]",711.1782136747588,None,l,1,0.5664182889097447,711.1782136747588,None,None,None,15_SS,23,F,15,2021_Nov_03_1011,Partial repeat,2021.2.3,120.10669933139167,
1,1,0,1,1,3,2,3,3,1,1,0,1,1,1,0,0,89,89,89,1,0,1,0,,,,,,,,,0.8868880322639126,711.8110136219054,None,"[93. 87. 87. 93. 87. 93. 87. 87. 87. 93. 87. 87. 93. 87. 87. 93. 93. 93.
 87. 93. 87. 93. 87. 87. 93. 87. 87. 87. 87. 87. 93. 87. 93. 93.]",712.785159133899,None,l,1,0.5274762010899394,712.785159133899,None,None,None,15_SS,23,F,15,2021_Nov_03_1011,Partial repeat,2021.2.3,120.10669933139167,
1,1,0,1,1,3,2,3,3,1,1,0,1,1,1,0,0,89,89,89,,,,,,,,,,,,,,,,,,,,,,,,,,15_SS,23,F,15,2021_Nov_03_1011,Partial repeat,2021.2.3,120.10669933139167,
1,1,0,1,1,2,2,2,2,1,1,1,1,1,1,0,0,90,90,90,0,0,0,0,,,,,,,713.3346843844872,None,0.9022361173907031,715.2330499097839,None,"[93. 87. 93. 93. 87. 87. 93. 87. 87. 93. 93. 93. 87. 93. 87. 93. 87. 93.
 87. 87. 93. 93. 87. 93. 93. 93. 87. 93. 93. 87. 87. 93. 93. 87.]",716.2155631086707,None,l,1,0.5371276966004643,716.2155631086707,None,None,None,15_SS,23,F,15,2021_Nov_03_1011,Partial repeat,2021.2.3,120.10669933139167,
1,1,0,1,1,2,2,2,2,1,1,1,1,1,1,0,0,90,90,90,1,0,1,0,,,,,,,,,0.8407527070174754,716.8150314970883,None,"[87. 87. 93. 93. 87. 87. 87. 93. 93. 93. 87. 87. 93. 87. 87. 87. 93. 93.
 87. 93. 87. 93. 93. 93. 93. 87. 93. 93. 87. 87. 87. 93. 87. 93.]",717.730906914735,None,l,1,0.7648185152040696,717.730906914735,None,None,None,15_SS,23,F,15,2021_Nov_03_1011,Partial repeat,2021.2.3,120.10669933139167,
1,1,0,1,1,2,2,2,2,1,1,1,1,1,1,0,0,90,90,90,,,,,,,,,,,,,,,,,,,,,,,,,,15_SS,23,F,15,2021_Nov_03_1011,Partial repeat,2021.2.3,120.10669933139167,
1,1,0,1,1,2,3,3,3,0,0,0,1,1,1,0,0,91,91,91,0,0,0,0,,,,,,,718.5135548766448,None,0.8870345540544378,719.3545056454868,None,"[93. 87. 93. 93. 87. 93. 93. 93. 93. 93. 93. 93. 93. 87. 87. 87. 93. 93.
 93. 93. 93. 87. 87. 93. 93. 87. 93. 87. 87. 87. 87. 87. 87. 93.]",720.3203331808884,None,s,1,0.607427683836022,720.3203331808884,None,None,None,15_SS,23,F,15,2021_Nov_03_1011,Partial repeat,2021.2.3,120.10669933139167,
1,1,0,1,1,2,3,3,3,0,0,0,1,1,1,0,0,91,91,91,1,0,1,0,,,,,,,,,0.7499784133724854,720.9864383884114,None,"[93. 87. 93. 93. 93. 87. 93. 87. 93. 93. 93. 93. 87. 93. 93. 87. 87. 93.
 93. 93. 93. 93. 87. 87. 93. 93. 87. 93. 93. 93. 87. 93. 87. 87.]",721.810714718675,None,s,1,1.0050414610941516,721.810714718675,None,None,None,15_SS,23,F,15,2021_Nov_03_1011,Partial repeat,2021.2.3,120.10669933139167,
1,1,0,1,1,2,3,3,3,0,0,0,1,1,1,0,0,91,91,91,,,,,,,,,,,,,,,,,,,,,,,,,,15_SS,23,F,15,2021_Nov_03_1011,Partial repeat,2021.2.3,120.10669933139167,
1,1,0,1,1,2,3,2,3,0,0,0,0,1,1,0,0,92,92,92,0,0,0,0,,,,,,,722.8348312704093,None,0.9198704716107147,723.6174927022071,None,"[87. 93. 87. 93. 87. 87. 87. 87. 93. 87. 93. 93. 87. 87. 87. 93. 93. 93.
 93. 87. 87. 87. 87. 87. 87. 87. 87. 87. 93. 93. 93. 87. 87. 93.]",724.6166235737153,None,s,1,0.7587692526162755,724.6166235737153,None,None,None,15_SS,23,F,15,2021_Nov_03_1011,Partial repeat,2021.2.3,120.10669933139167,
1,1,0,1,1,2,3,2,3,0,0,0,0,1,1,0,0,92,92,92,1,0,1,0,,,,,,,,,0.9231430671113745,725.449245782482,None,"[87. 87. 93. 93. 93. 87. 87. 87. 93. 93. 93. 87. 93. 93. 93. 87. 87. 93.
 93. 93. 87. 87. 93. 87. 87. 93. 87. 93. 87. 87. 87. 87. 93. 87.]",726.4483840303574,None,s,1,0.7193794513741523,726.4483840303574,None,None,None,15_SS,23,F,15,2021_Nov_03_1011,Partial repeat,2021.2.3,120.10669933139167,
1,1,0,1,1,2,3,2,3,0,0,0,0,1,1,0,0,92,92,92,,,,,,,,,,,,,,,,,,,,,,,,,,15_SS,23,F,15,2021_Nov_03_1011,Partial repeat,2021.2.3,120.10669933139167,
1,1,0,1,1,2,2,3,2,1,1,1,0,1,1,0,0,93,93,93,0,0,0,0,,,,,,,727.197757840918,None,0.7291974303703314,728.421677411575,None,"[87. 93. 93. 87. 93. 87. 87. 87. 93. 93. 87. 93. 87. 93. 87. 93. 93. 93.
 93. 87. 87. 87. 87. 93. 93. 93. 93. 87. 87. 93. 87. 93. 93. 93.]",729.229319392213,None,l,1,0.8185130168599244,729.229319392213,None,None,None,15_SS,23,F,15,2021_Nov_03_1011,Partial repeat,2021.2.3,120.10669933139167,
1,1,0,1,1,2,2,3,2,1,1,1,0,1,1,0,0,93,93,93,1,0,1,0,,,,,,,,,0.9082158056434743,730.1118921151767,None,"[87. 87. 93. 93. 87. 87. 87. 87. 93. 87. 87. 87. 87. 93. 93. 93. 93. 93.
 87. 87. 93. 87. 93. 87. 87. 87. 93. 93. 93. 87. 93. 93. 93. 93.]",731.094379336422,None,l,1,0.6974479079108278,731.094379336422,None,None,None,15_SS,23,F,15,2021_Nov_03_1011,Partial repeat,2021.2.3,120.10669933139167,
1,1,0,1,1,2,2,3,2,1,1,1,0,1,1,0,0,93,93,93,,,,,,,,,,,,,,,,,,,,,,,,,,15_SS,23,F,15,2021_Nov_03_1011,Partial repeat,2021.2.3,120.10669933139167,
1,1,0,1,1,2,2,3,2,0,0,1,0,1,1,0,0,94,94,94,0,0,0,0,,,,,,,731.8187620146591,None,0.713589166545711,732.6347017670569,None,"[93. 93. 93. 93. 87. 93. 93. 93. 87. 87. 93. 93. 93. 87. 87. 87. 87. 87.
 87. 87. 87. 87. 93. 93. 93. 87. 87. 87. 93. 93. 93. 87. 87. 93.]",733.4257029838368,None,s,1,0.6051689118921786,733.4257029838368,None,None,None,15_SS,23,F,15,2021_Nov_03_1011,Partial repeat,2021.2.3,120.10669933139167,
1,1,0,1,1,2,2,3,2,0,0,1,0,1,1,0,0,94,94,94,1,0,1,0,,,,,,,,,0.9224502852144296,734.0917934386252,None,"[93. 87. 87. 93. 93. 93. 87. 93. 87. 87. 87. 93. 93. 93. 93. 87. 93. 93.
 87. 93. 93. 93. 87. 87. 93. 87. 87. 87. 93. 87. 93. 93. 87. 87.]",735.0909342521936,None,s,1,0.8599271498512735,735.0909342521936,None,None,None,15_SS,23,F,15,2021_Nov_03_1011,Partial repeat,2021.2.3,120.10669933139167,
1,1,0,1,1,2,2,3,2,0,0,1,0,1,1,0,0,94,94,94,,,,,,,,,,,,,,,,,,,,,,,,,,15_SS,23,F,15,2021_Nov_03_1011,Partial repeat,2021.2.3,120.10669933139167,
1,1,0,1,1,3,3,3,2,0,0,1,0,1,1,0,0,95,95,95,0,0,0,0,,,,,,,735.9735220486032,None,0.9599189624967721,736.7478430539957,None,"[93. 87. 87. 93. 93. 87. 87. 93. 87. 93. 87. 93. 87. 87. 93. 87. 93. 87.
 93. 93. 87. 93. 87. 93. 93. 93. 87. 87. 93. 93. 93. 87. 93. 93.]",737.7969340610496,None,s,1,0.697948538750552,737.7969340610496,None,None,None,15_SS,23,F,15,2021_Nov_03_1011,Partial repeat,2021.2.3,120.10669933139167,
1,1,0,1,1,3,3,3,2,0,0,1,0,1,1,0,0,95,95,95,1,0,1,0,,,,,,,,,0.799118907311034,738.5546130197374,None,"[87. 87. 93. 93. 87. 93. 93. 93. 87. 87. 87. 93. 93. 87. 93. 93. 93. 87.
 87. 93. 93. 93. 87. 87. 93. 87. 87. 93. 93. 87. 87. 93. 93. 87.]",739.4288616725883,None,s,1,0.5700509894363677,739.4288616725883,None,None,None,15_SS,23,F,15,2021_Nov_03_1011,Partial repeat,2021.2.3,120.10669933139167,
1,1,0,1,1,3,3,3,2,0,0,1,0,1,1,0,0,95,95,95,,,,,,,,,,,,,,,,,,,,,,,,,,15_SS,23,F,15,2021_Nov_03_1011,Partial repeat,2021.2.3,120.10669933139167,
1,1,0,1,1,2,3,3,2,0,0,0,0,1,1,0,0,96,96,96,0,0,0,0,,,,,,,740.0200152915302,None,0.7036748053844715,741.3355647378858,None,"[93. 93. 87. 93. 87. 87. 93. 93. 87. 87. 93. 93. 87. 87. 93. 93. 87. 87.
 93. 87. 93. 87. 87. 93. 93. 87. 93. 93. 93. 93. 87. 93. 93. 87.]",742.1265361284848,None,s,1,0.5123934542848474,742.1265361284848,None,None,None,15_SS,23,F,15,2021_Nov_03_1011,Partial repeat,2021.2.3,120.10669933139167,
1,1,0,1,1,2,3,3,2,0,0,0,0,1,1,0,0,96,96,96,1,0,1,0,,,,,,,,,0.9582871565791067,742.7010390415085,None,"[93. 87. 87. 93. 93. 93. 87. 87. 87. 93. 93. 87. 93. 93. 93. 87. 87. 87.
 93. 93. 93. 93. 93. 93. 93. 93. 93. 87. 93. 87. 87. 93. 87. 87.]",743.7418172033563,None,s,1,0.5451207923206312,743.7418172033563,None,None,None,15_SS,23,F,15,2021_Nov_03_1011,Partial repeat,2021.2.3,120.10669933139167,
1,1,0,1,1,2,3,3,2,0,0,0,0,1,1,0,0,96,96,96,,,,,,,,,,,,,,,,,,,,,,,,,,15_SS,23,F,15,2021_Nov_03_1011,Partial repeat,2021.2.3,120.10669933139167,
1,1,0,1,1,3,2,3,2,0,1,0,0,0,1,0,0,97,97,97,0,0,0,0,,,,,,,744.3079899527465,None,0.7726797897410811,745.2821454068003,None,"[87. 87. 87. 93. 87. 87. 87. 87. 93. 87. 87. 93. 87. 93. 93. 87. 93. 93.
 87. 93. 87. 87. 93. 93. 87. 87. 93. 87. 93. 87. 87. 87. 87. 87.]",746.1314192836201,None,s,1,0.77955906270995,746.1314192836201,None,None,None,15_SS,23,F,15,2021_Nov_03_1011,Partial repeat,2021.2.3,120.10669933139167,
1,1,0,1,1,3,2,3,2,0,1,0,0,0,1,0,0,97,97,97,1,0,1,0,,,,,,,,,0.9008309508938136,746.980684501226,None,"[93. 87. 87. 87. 93. 93. 93. 87. 93. 87. 87. 93. 93. 93. 87. 87. 87. 87.
 93. 87. 93. 93. 93. 93. 87. 87. 87. 93. 93. 87. 87. 93. 93. 93.]",747.9631714017601,None,l,1,0.6590099787586041,747.9631714017601,None,None,None,15_SS,23,F,15,2021_Nov_03_1011,Partial repeat,2021.2.3,120.10669933139167,
1,1,0,1,1,3,2,3,2,0,1,0,0,0,1,0,0,97,97,97,,,,,,,,,,,,,,,,,,,,,,,,,,15_SS,23,F,15,2021_Nov_03_1011,Partial repeat,2021.2.3,120.10669933139167,
1,1,0,1,1,3,2,3,3,1,0,0,1,0,1,0,0,98,98,98,0,0,0,0,,,,,,,748.6459160902946,None,0.9077515336882658,750.0114051466519,None,"[87. 93. 87. 93. 93. 87. 93. 87. 87. 87. 87. 87. 87. 87. 87. 93. 93. 93.
 93. 93. 93. 87. 93. 93. 87. 93. 93. 93. 93. 87. 87. 87. 93. 93.]",750.9939077620552,None,l,1,0.6680553293060711,750.9939077620552,None,None,None,15_SS,23,F,15,2021_Nov_03_1011,Partial repeat,2021.2.3,120.10669933139167,
1,1,0,1,1,3,2,3,3,1,0,0,1,0,1,0,0,98,98,98,1,0,1,0,,,,,,,,,0.7420225307147112,751.7265923813031,None,"[87. 93. 93. 87. 93. 87. 87. 87. 87. 93. 87. 93. 87. 93. 93. 87. 93. 87.
 87. 87. 93. 93. 87. 87. 93. 87. 87. 93. 93. 87. 93. 93. 87. 87.]",752.5425574699188,None,s,1,0.6074696970583773,752.5425574699188,None,None,None,15_SS,23,F,15,2021_Nov_03_1011,Partial repeat,2021.2.3,120.10669933139167,
1,1,0,1,1,3,2,3,3,1,0,0,1,0,1,0,0,98,98,98,,,,,,,,,,,,,,,,,,,,,,,,,,15_SS,23,F,15,2021_Nov_03_1011,Partial repeat,2021.2.3,120.10669933139167,
1,1,0,1,1,3,2,2,3,1,1,0,0,1,1,0,0,99,99,99,0,0,0,0,,,,,,,753.1753417021962,None,0.7187867689661825,754.2743947690653,None,"[93. 93. 93. 93. 87. 93. 87. 93. 87. 93. 93. 87. 87. 93. 93. 87. 87. 87.
 87. 93. 93. 93. 87. 93. 93. 87. 87. 93. 93. 87. 87. 93. 93. 87.]",755.0737322429995,None,l,1,0.7010790048793751,755.0737322429995,None,None,None,15_SS,23,F,15,2021_Nov_03_1011,Partial repeat,2021.2.3,120.10669933139167,
1,1,0,1,1,3,2,2,3,1,1,0,0,1,1,0,0,99,99,99,1,0,1,0,,,,,,,,,0.8980520902683483,755.8480413820619,None,"[87. 93. 87. 87. 93. 87. 93. 87. 87. 87. 87. 87. 87. 93. 93. 87. 93. 87.
 93. 87. 93. 93. 87. 93. 93. 87. 93. 87. 93. 93. 87. 93. 87. 93.]",756.822204212483,None,l,1,1.2078902782777732,756.822204212483,None,None,None,15_SS,23,F,15,2021_Nov_03_1011,Partial repeat,2021.2.3,120.10669933139167,
1,1,0,1,1,3,2,2,3,1,1,0,0,1,1,0,0,99,99,99,,,,,,,,,,,,,,,,,,,,,,,,,,15_SS,23,F,15,2021_Nov_03_1011,Partial repeat,2021.2.3,120.10669933139167,
1,1,0,1,1,3,2,3,3,0,0,0,1,1,1,0,0,100,100,100,0,0,0,0,,,,,,,758.0544690202196,None,0.9325611917935549,758.6622810421588,None,"[87. 87. 93. 93. 93. 93. 93. 93. 87. 87. 93. 93. 93. 93. 87. 87. 87. 93.
 93. 87. 93. 93. 87. 93. 87. 87. 93. 93. 93. 93. 87. 87. 93. 93.]",759.669768696365,None,s,1,0.5523547636348667,759.669768696365,None,None,None,15_SS,23,F,15,2021_Nov_03_1011,Partial repeat,2021.2.3,120.10669933139167,
1,1,0,1,1,3,2,3,3,0,0,0,1,1,1,0,0,100,100,100,1,0,1,0,,,,,,,,,0.9285556757808102,760.2858816971802,None,"[87. 87. 93. 87. 87. 87. 93. 93. 93. 87. 93. 93. 93. 93. 87. 87. 93. 93.
 87. 93. 93. 93. 93. 87. 93. 87. 87. 93. 87. 93. 87. 93. 93. 87.]",761.2933485051312,None,s,1,0.5767727842926433,761.2933485051312,None,None,None,15_SS,23,F,15,2021_Nov_03_1011,Partial repeat,2021.2.3,120.10669933139167,
1,1,0,1,1,3,2,3,3,0,0,0,1,1,1,0,0,100,100,100,,,,,,,,,,,,,,,,,,,,,,,,,,15_SS,23,F,15,2021_Nov_03_1011,Partial repeat,2021.2.3,120.10669933139167,
1,1,0,1,1,2,2,2,2,0,1,1,1,0,1,0,0,101,101,101,0,0,0,0,,,,,,,761.8845024447849,None,0.8620019829825158,762.7338026199575,None,"[93. 93. 93. 87. 87. 93. 93. 93. 87. 87. 87. 87. 87. 93. 87. 87. 87. 93.
 87. 87. 87. 87. 87. 87. 93. 87. 87. 87. 87. 87. 87. 87. 87. 93.]",763.6746274774171,None,s,1,0.6275077591135414,763.6746274774171,None,None,None,15_SS,23,F,15,2021_Nov_03_1011,Partial repeat,2021.2.3,120.10669933139167,
1,1,0,1,1,2,2,2,2,0,1,1,1,0,1,0,0,101,101,101,1,0,1,0,,,,,,,,,0.9400287567840127,764.3740183819073,None,"[93. 93. 93. 87. 87. 93. 93. 87. 93. 93. 93. 93. 87. 93. 87. 93. 87. 87.
 93. 87. 87. 93. 93. 87. 87. 93. 87. 93. 87. 87. 93. 93. 87. 87.]",765.3898320304959,None,l,1,0.6713435855519947,765.3898320304959,None,None,None,15_SS,23,F,15,2021_Nov_03_1011,Partial repeat,2021.2.3,120.10669933139167,
1,1,0,1,1,2,2,2,2,0,1,1,1,0,1,0,0,101,101,101,,,,,,,,,,,,,,,,,,,,,,,,,,15_SS,23,F,15,2021_Nov_03_1011,Partial repeat,2021.2.3,120.10669933139167,
1,1,0,1,1,3,3,3,3,1,1,1,1,1,1,0,0,102,102,102,0,0,0,0,,,,,,,766.0892117100793,None,0.7242542798513888,767.4630296472237,None,"[93. 87. 93. 87. 93. 93. 93. 93. 93. 93. 87. 87. 93. 87. 87. 87. 93. 87.
 87. 93. 87. 87. 93. 93. 93. 87. 87. 93. 87. 93. 87. 93. 93. 93.]",768.2706684207456,None,l,1,0.6065098071780994,768.2706684207456,None,None,None,15_SS,23,F,15,2021_Nov_03_1011,Partial repeat,2021.2.3,120.10669933139167,
1,1,0,1,1,3,3,3,3,1,1,1,1,1,1,0,0,102,102,102,1,0,1,0,,,,,,,,,0.8891530917248935,768.945086794186,None,"[87. 93. 93. 93. 87. 93. 87. 87. 93. 93. 93. 93. 93. 93. 93. 87. 93. 87.
 87. 93. 93. 93. 93. 87. 87. 93. 87. 93. 93. 93. 87. 93. 93. 93.]",769.9192422482399,None,l,1,0.5425002576687348,769.9192422482399,None,None,None,15_SS,23,F,15,2021_Nov_03_1011,Partial repeat,2021.2.3,120.10669933139167,
1,1,0,1,1,3,3,3,3,1,1,1,1,1,1,0,0,102,102,102,,,,,,,,,,,,,,,,,,,,,,,,,,15_SS,23,F,15,2021_Nov_03_1011,Partial repeat,2021.2.3,120.10669933139167,
1,1,0,1,1,2,2,3,3,0,0,1,1,1,1,0,0,103,103,103,0,0,0,0,,,,,,,770.4937474062449,None,0.7863667226294216,771.4595909772277,None,"[93. 87. 87. 93. 87. 87. 87. 87. 87. 87. 93. 87. 87. 93. 87. 87. 93. 87.
 93. 87. 87. 93. 87. 87. 87. 87. 93. 93. 87. 93. 87. 93. 93. 93.]",772.3255117114263,None,s,1,0.5997052687237101,772.3255117114263,None,None,None,15_SS,23,F,15,2021_Nov_03_1011,Partial repeat,2021.2.3,120.10669933139167,
