prime_tar_pos,probe_tar_pos,dimension,tar_color,tar_shape,prime_dist_color,probe_dist_color,prime_dist_shape,probe_dist_shape,prime_tar_ori,probe_tar_ori,col_rep,shape_rep,resp_rep,pos_fixed,sparse,MainLoop.thisRepN,MainLoop.thisTrialN,MainLoop.thisN,MainLoop.thisIndex,PrimeProbe.thisRepN,PrimeProbe.thisTrialN,PrimeProbe.thisN,PrimeProbe.thisIndex,Instruction.started,Instruction.stopped,instruction_key.keys,instruction_key.rt,instruction_key.started,instruction_key.stopped,PairStartText.started,PairStartText.stopped,fixdur,FixCross.started,FixCross.stopped,dist_ori,SearchFixCross.started,SearchFixCross.stopped,key_resp.keys,key_resp.corr,key_resp.rt,key_resp.started,key_resp.stopped,feedback_text.started,feedback_text.stopped,text_finish.started,text_finish.stopped,finish_key.keys,finish_key.rt,finish_key.started,finish_key.stopped,participant,age,gender,group,date,expName,psychopyVersion,frameRate,
,,,,,,,,,,,,,,,,,,,,,,,,44.569290707764594,None,space,3.2480301019950275,44.569290707764594,None,,,,,,,,,,,,,,,,,,,,,,16_IB,22,F,16,2021_Nov_03_1359,Partial repeat,2021.2.3,120.11178865782642,
6,6,0,1,1,2,3,3,3,1,1,0,1,1,1,0,0,0,0,0,0,0,0,0,,,,,,,95.16793935727947,None,0.7539964499295972,96.27469463443049,None,"[93. 87. 87. 93. 87. 87. 93. 87. 87. 87. 93. 87. 93. 93. 87. 87. 93. 87.
 93. 93. 93. 93. 93. 87. 87. 93. 87. 93. 87. 93. 87. 87. 87. 93.]",97.11564155473206,None,l,1,0.6031386853283038,97.11564155473206,None,None,None,,,,,,,16_IB,22,F,16,2021_Nov_03_1359,Partial repeat,2021.2.3,120.11178865782642,
6,6,0,1,1,2,3,3,3,1,1,0,1,1,1,0,0,0,0,0,1,0,1,0,,,,,,,,,0.7125271373701217,97.7817409894451,None,"[87. 93. 93. 93. 87. 87. 93. 93. 87. 87. 87. 93. 87. 93. 93. 87. 87. 93.
 87. 87. 93. 93. 93. 87. 87. 93. 87. 87. 93. 93. 87. 93. 87. 93.]",98.58105184431588,None,l,1,0.5139924004215572,98.58105184431588,None,None,None,,,,,,,16_IB,22,F,16,2021_Nov_03_1359,Partial repeat,2021.2.3,120.11178865782642,
6,6,0,1,1,2,3,3,3,1,1,0,1,1,1,0,0,0,0,0,,,,,,,,,,,,,,,,,,,,,,,,,,,,,,,,16_IB,22,F,16,2021_Nov_03_1359,Partial repeat,2021.2.3,120.11178865782642,
6,6,0,1,1,3,2,2,3,0,1,0,0,0,1,0,0,1,1,1,0,0,0,0,,,,,,,99.1056026395836,None,0.7554117352525671,100.0714372306411,None,"[93. 87. 87. 87. 93. 87. 87. 93. 93. 87. 87. 87. 87. 87. 93. 93. 93. 87.
 93. 93. 93. 93. 93. 87. 87. 93. 93. 87. 93. 87. 93. 87. 93. 87.]",100.90404115884667,None,s,1,0.8777794402085419,100.90404115884667,None,None,None,,,,,,,16_IB,22,F,16,2021_Nov_03_1359,Partial repeat,2021.2.3,120.11178865782642,
6,6,0,1,1,3,2,2,3,0,1,0,0,0,1,0,0,1,1,1,1,0,1,0,,,,,,,,,0.9505481115929759,101.85323306177452,None,"[93. 93. 93. 87. 87. 87. 93. 87. 87. 87. 93. 93. 87. 87. 93. 87. 93. 93.
 93. 87. 93. 87. 93. 93. 87. 87. 87. 87. 87. 93. 93. 87. 87. 93.]",102.88566726938916,None,s,0,0.6721763516252395,102.88566726938916,None,103.56841741002245,None,,,,,,,16_IB,22,F,16,2021_Nov_03_1359,Partial repeat,2021.2.3,120.11178865782642,
6,6,0,1,1,3,2,2,3,0,1,0,0,0,1,0,0,1,1,1,,,,,,,,,,,,,,,,,,,,,,,,,,,,,,,,16_IB,22,F,16,2021_Nov_03_1359,Partial repeat,2021.2.3,120.11178865782642,
6,6,0,1,1,2,2,2,3,1,1,1,0,1,1,0,0,2,2,2,0,0,0,0,,,,,,,104.06799214641251,None,0.7246925409092269,105.15038713099602,None,"[93. 87. 93. 93. 87. 87. 87. 87. 87. 93. 93. 87. 87. 87. 93. 93. 87. 93.
 93. 87. 93. 93. 93. 87. 87. 87. 87. 93. 87. 87. 87. 87. 93. 93.]",105.95803231875107,None,l,1,0.6238572974416456,105.95803231875107,None,None,None,,,,,,,16_IB,22,F,16,2021_Nov_03_1359,Partial repeat,2021.2.3,120.11178865782642,
6,6,0,1,1,2,2,2,3,1,1,1,0,1,1,0,0,2,2,2,1,0,1,0,,,,,,,,,0.8631299308180256,106.64909690814602,None,"[93. 93. 87. 93. 87. 93. 87. 87. 87. 93. 87. 87. 93. 87. 93. 87. 87. 93.
 87. 87. 93. 93. 93. 87. 93. 87. 87. 87. 87. 93. 87. 87. 93. 93.]",107.59827918972769,None,l,1,0.6316121044292231,107.59827918972769,None,None,None,,,,,,,16_IB,22,F,16,2021_Nov_03_1359,Partial repeat,2021.2.3,120.11178865782642,
6,6,0,1,1,2,2,2,3,1,1,1,0,1,1,0,0,2,2,2,,,,,,,,,,,,,,,,,,,,,,,,,,,,,,,,16_IB,22,F,16,2021_Nov_03_1359,Partial repeat,2021.2.3,120.11178865782642,
6,6,0,1,1,2,3,3,3,0,1,0,1,0,1,0,0,3,3,3,0,0,0,0,,,,,,,108.24771861788577,None,0.7004919115365327,109.36342848419372,None,"[93. 87. 93. 93. 93. 93. 93. 87. 93. 87. 87. 93. 87. 87. 87. 87. 87. 93.
 87. 93. 93. 87. 93. 93. 87. 87. 93. 87. 93. 87. 93. 93. 93. 87.]",110.14609055741494,None,s,1,0.6278200102278788,110.14609055741494,None,None,None,,,,,,,16_IB,22,F,16,2021_Nov_03_1359,Partial repeat,2021.2.3,120.11178865782642,
6,6,0,1,1,2,3,3,3,0,1,0,1,0,1,0,0,3,3,3,1,0,1,0,,,,,,,,,0.774530537159379,110.84548274475128,None,"[87. 93. 93. 93. 93. 87. 93. 93. 87. 93. 93. 87. 93. 87. 87. 87. 93. 93.
 87. 87. 93. 87. 87. 93. 87. 93. 87. 93. 87. 87. 93. 93. 93. 87.]",111.69475213160877,None,s,0,0.6951607913397311,111.69475213160877,None,112.41079534557502,None,,,,,,,16_IB,22,F,16,2021_Nov_03_1359,Partial repeat,2021.2.3,120.11178865782642,
6,6,0,1,1,2,3,3,3,0,1,0,1,0,1,0,0,3,3,3,,,,,,,,,,,,,,,,,,,,,,,,,,,,,,,,16_IB,22,F,16,2021_Nov_03_1359,Partial repeat,2021.2.3,120.11178865782642,
6,6,0,1,1,3,3,3,3,0,0,1,1,1,1,0,0,4,4,4,0,0,0,0,,,,,,,112.91035564994309,None,0.7794083365097062,113.60973661237404,None,"[87. 87. 87. 87. 93. 93. 93. 87. 93. 93. 93. 93. 87. 93. 93. 93. 87. 93.
 93. 93. 87. 93. 87. 87. 93. 87. 93. 87. 87. 87. 87. 87. 93. 87.]",114.47569326627308,None,s,1,0.697366325155599,114.47569326627308,None,None,None,,,,,,,16_IB,22,F,16,2021_Nov_03_1359,Partial repeat,2021.2.3,120.11178865782642,
6,6,0,1,1,3,3,3,3,0,0,1,1,1,1,0,0,4,4,4,1,0,1,0,,,,,,,,,0.9314116880044245,115.23334624731979,None,"[87. 87. 87. 87. 93. 93. 93. 93. 87. 93. 93. 87. 93. 87. 93. 87. 93. 93.
 87. 87. 87. 87. 93. 93. 93. 87. 93. 93. 93. 87. 93. 87. 87. 93.]",116.2491557266585,None,s,1,0.5878089905745583,116.2491557266585,None,None,None,,,,,,,16_IB,22,F,16,2021_Nov_03_1359,Partial repeat,2021.2.3,120.11178865782642,
6,6,0,1,1,3,3,3,3,0,0,1,1,1,1,0,0,4,4,4,,,,,,,,,,,,,,,,,,,,,,,,,,,,,,,,16_IB,22,F,16,2021_Nov_03_1359,Partial repeat,2021.2.3,120.11178865782642,
6,6,0,1,1,3,3,3,3,1,1,1,1,1,1,0,0,5,5,5,0,0,0,0,,,,,,,116.85695299586223,None,0.7330631462103337,117.5563576909517,None,"[93. 87. 87. 87. 93. 93. 87. 87. 93. 87. 93. 93. 87. 93. 87. 93. 87. 93.
 93. 93. 87. 87. 87. 93. 87. 87. 93. 87. 87. 93. 93. 87. 87. 87.]",118.37233624945657,None,l,1,0.688652590422862,118.37233624945657,None,None,None,,,,,,,16_IB,22,F,16,2021_Nov_03_1359,Partial repeat,2021.2.3,120.11178865782642,
6,6,0,1,1,3,3,3,3,1,1,1,1,1,1,0,0,5,5,5,1,0,1,0,,,,,,,,,0.8206264760954698,119.12999147548362,None,"[87. 87. 87. 87. 93. 93. 93. 87. 87. 93. 93. 87. 93. 93. 87. 93. 87. 87.
 87. 93. 87. 93. 87. 87. 87. 93. 93. 87. 87. 93. 87. 87. 93. 87.]",120.02923735417971,None,l,1,0.5357616638029867,120.02923735417971,None,None,None,,,,,,,16_IB,22,F,16,2021_Nov_03_1359,Partial repeat,2021.2.3,120.11178865782642,
6,6,0,1,1,3,3,3,3,1,1,1,1,1,1,0,0,5,5,5,,,,,,,,,,,,,,,,,,,,,,,,,,,,,,,,16_IB,22,F,16,2021_Nov_03_1359,Partial repeat,2021.2.3,120.11178865782642,
6,6,0,1,1,3,3,2,3,0,0,1,0,1,1,0,0,6,6,6,0,0,0,0,,,,,,,120.5954088207236,None,0.9773703481523678,121.26150601045629,None,"[93. 93. 93. 93. 93. 87. 93. 87. 93. 87. 93. 87. 87. 93. 87. 93. 93. 87.
 87. 87. 87. 87. 93. 87. 87. 87. 93. 93. 87. 87. 93. 93. 93. 93.]",122.31891018342685,None,s,1,0.5981070407142397,122.31891018342685,None,None,None,,,,,,,16_IB,22,F,16,2021_Nov_03_1359,Partial repeat,2021.2.3,120.11178865782642,
6,6,0,1,1,3,3,2,3,0,0,1,0,1,1,0,0,6,6,6,1,0,1,0,,,,,,,,,0.9313188611386549,122.97670863926396,None,"[87. 87. 93. 87. 87. 93. 93. 87. 93. 87. 87. 93. 87. 93. 87. 93. 87. 87.
 93. 93. 93. 93. 87. 87. 93. 87. 93. 87. 87. 87. 87. 87. 87. 87.]",123.98416133590399,None,s,1,0.4208737813787593,123.98416133590399,None,None,None,,,,,,,16_IB,22,F,16,2021_Nov_03_1359,Partial repeat,2021.2.3,120.11178865782642,
6,6,0,1,1,3,3,2,3,0,0,1,0,1,1,0,0,6,6,6,,,,,,,,,,,,,,,,,,,,,,,,,,,,,,,,16_IB,22,F,16,2021_Nov_03_1359,Partial repeat,2021.2.3,120.11178865782642,
6,6,0,1,1,2,3,3,3,1,0,0,1,0,1,0,0,7,7,7,0,0,0,0,,,,,,,124.41712138229195,None,0.8405225410764164,125.14152522749646,None,"[93. 93. 93. 87. 93. 93. 87. 93. 87. 87. 87. 87. 93. 87. 93. 87. 87. 87.
 93. 93. 93. 93. 93. 87. 87. 93. 93. 87. 87. 93. 93. 93. 87. 93.]",126.0573679325571,None,l,1,0.6526870271536609,126.0573679325571,None,None,None,,,,,,,16_IB,22,F,16,2021_Nov_03_1359,Partial repeat,2021.2.3,120.11178865782642,
6,6,0,1,1,2,3,3,3,1,0,0,1,0,1,0,0,7,7,7,1,0,1,0,,,,,,,,,0.7030343929222469,126.77341563648588,None,"[93. 93. 93. 87. 93. 87. 93. 93. 93. 87. 87. 93. 93. 93. 93. 93. 87. 93.
 93. 93. 93. 93. 93. 93. 87. 87. 93. 87. 93. 93. 87. 93. 87. 87.]",127.56440723191736,None,s,1,0.5841522366772551,127.56440723191736,None,None,None,,,,,,,16_IB,22,F,16,2021_Nov_03_1359,Partial repeat,2021.2.3,120.11178865782642,
6,6,0,1,1,2,3,3,3,1,0,0,1,0,1,0,0,7,7,7,,,,,,,,,,,,,,,,,,,,,,,,,,,,,,,,16_IB,22,F,16,2021_Nov_03_1359,Partial repeat,2021.2.3,120.11178865782642,
6,6,0,1,1,2,3,2,3,1,1,0,0,1,1,0,0,8,8,8,0,0,0,0,,,,,,,128.1722221402615,None,0.7345062972371392,128.97152048737917,None,"[87. 87. 87. 93. 93. 87. 93. 87. 93. 93. 87. 87. 87. 93. 93. 93. 93. 93.
 93. 87. 87. 93. 93. 87. 93. 93. 93. 87. 87. 93. 93. 93. 93. 87.]",129.78748589670613,None,l,1,0.6647477083588456,129.78748589670613,None,None,None,,,,,,,16_IB,22,F,16,2021_Nov_03_1359,Partial repeat,2021.2.3,120.11178865782642,
6,6,0,1,1,2,3,2,3,1,1,0,0,1,1,0,0,8,8,8,1,0,1,0,,,,,,,,,0.741593673030287,130.52018879651587,None,"[87. 93. 87. 87. 87. 87. 87. 93. 87. 93. 93. 93. 87. 87. 93. 87. 93. 87.
 93. 93. 87. 87. 87. 93. 93. 87. 93. 93. 93. 87. 93. 93. 93. 87.]",131.34444716692815,None,l,1,0.7396508694855584,131.34444716692815,None,None,None,,,,,,,16_IB,22,F,16,2021_Nov_03_1359,Partial repeat,2021.2.3,120.11178865782642,
6,6,0,1,1,2,3,2,3,1,1,0,0,1,1,0,0,8,8,8,,,,,,,,,,,,,,,,,,,,,,,,,,,,,,,,16_IB,22,F,16,2021_Nov_03_1359,Partial repeat,2021.2.3,120.11178865782642,
6,6,0,1,1,3,2,3,3,0,0,0,1,1,1,0,0,9,9,9,0,0,0,0,,,,,,,132.11048739827675,None,0.8458442508677063,132.63501542302038,None,"[93. 93. 87. 87. 93. 93. 93. 93. 93. 87. 87. 87. 93. 87. 93. 87. 93. 87.
 87. 93. 93. 87. 93. 87. 93. 93. 93. 87. 93. 93. 93. 93. 87. 87.]",133.55924281269108,None,s,1,0.6368884520106803,133.55924281269108,None,None,None,,,,,,,16_IB,22,F,16,2021_Nov_03_1359,Partial repeat,2021.2.3,120.11178865782642,
6,6,0,1,1,3,2,3,3,0,0,0,1,1,1,0,0,9,9,9,1,0,1,0,,,,,,,,,0.9586911135567526,134.2669629186803,None,"[87. 87. 87. 87. 93. 87. 87. 93. 93. 93. 87. 87. 93. 87. 93. 87. 93. 93.
 93. 87. 93. 93. 87. 93. 93. 93. 87. 93. 93. 87. 87. 87. 93. 87.]",135.31604302153937,None,s,1,0.6243646632265154,135.31604302153937,None,None,None,,,,,,,16_IB,22,F,16,2021_Nov_03_1359,Partial repeat,2021.2.3,120.11178865782642,
6,6,0,1,1,3,2,3,3,0,0,0,1,1,1,0,0,9,9,9,,,,,,,,,,,,,,,,,,,,,,,,,,,,,,,,16_IB,22,F,16,2021_Nov_03_1359,Partial repeat,2021.2.3,120.11178865782642,
6,6,0,1,1,3,3,2,3,1,1,1,0,1,1,0,0,10,10,10,0,0,0,0,,,,,,,135.94886734276952,None,0.9179830993923489,136.44841289440228,None,"[87. 87. 87. 93. 87. 93. 87. 87. 93. 87. 93. 93. 93. 87. 93. 93. 87. 87.
 93. 93. 93. 87. 93. 93. 93. 87. 93. 87. 87. 93. 93. 87. 87. 93.]",137.4475598014924,None,l,1,0.6845644793957035,137.4475598014924,None,None,None,,,,,,,16_IB,22,F,16,2021_Nov_03_1359,Partial repeat,2021.2.3,120.11178865782642,
6,6,0,1,1,3,3,2,3,1,1,1,0,1,1,0,0,10,10,10,1,0,1,0,,,,,,,,,0.9621712312369206,138.1969079551236,None,"[87. 93. 93. 93. 93. 87. 93. 93. 87. 93. 87. 93. 87. 87. 87. 87. 87. 93.
 87. 87. 87. 87. 93. 87. 93. 93. 87. 87. 93. 93. 87. 93. 93. 93.]",139.23764185876644,None,l,1,0.6385471725134266,139.23764185876644,None,None,None,,,,,,,16_IB,22,F,16,2021_Nov_03_1359,Partial repeat,2021.2.3,120.11178865782642,
6,6,0,1,1,3,3,2,3,1,1,1,0,1,1,0,0,10,10,10,,,,,,,,,,,,,,,,,,,,,,,,,,,,,,,,16_IB,22,F,16,2021_Nov_03_1359,Partial repeat,2021.2.3,120.11178865782642,
6,6,0,1,1,2,2,2,2,0,0,1,1,1,1,0,0,11,11,11,0,0,0,0,,,,,,,139.90378972093458,None,0.7057818926904208,140.38666692751212,None,"[93. 93. 93. 87. 87. 87. 87. 93. 93. 93. 87. 87. 87. 93. 87. 87. 87. 87.
 87. 93. 93. 93. 93. 93. 93. 93. 93. 93. 93. 87. 87. 87. 87. 87.]",141.16932835930857,None,s,1,0.6422738415440108,141.16932835930857,None,None,None,,,,,,,16_IB,22,F,16,2021_Nov_03_1359,Partial repeat,2021.2.3,120.11178865782642,
6,6,0,1,1,2,2,2,2,0,0,1,1,1,1,0,0,11,11,11,1,0,1,0,,,,,,,,,0.9333939747113732,141.88538889170377,None,"[93. 93. 93. 87. 87. 87. 87. 93. 93. 87. 87. 87. 87. 87. 93. 93. 87. 87.
 93. 93. 93. 93. 87. 87. 87. 93. 93. 93. 93. 93. 93. 87. 93. 87.]",142.9011736762459,None,s,1,0.6072636781937035,142.9011736762459,None,None,None,,,,,,,16_IB,22,F,16,2021_Nov_03_1359,Partial repeat,2021.2.3,120.11178865782642,
6,6,0,1,1,2,2,2,2,0,0,1,1,1,1,0,0,11,11,11,,,,,,,,,,,,,,,,,,,,,,,,,,,,,,,,16_IB,22,F,16,2021_Nov_03_1359,Partial repeat,2021.2.3,120.11178865782642,
6,6,0,1,1,2,2,3,2,0,1,1,0,0,1,0,0,12,12,12,0,0,0,0,,,,,,,143.5256325555638,None,0.7076190666033129,143.983581489294,None,"[87. 93. 93. 93. 93. 93. 87. 93. 87. 93. 87. 87. 87. 93. 93. 93. 87. 87.
 87. 93. 87. 87. 93. 87. 87. 93. 87. 93. 87. 87. 87. 93. 93. 93.]",144.77455287989324,None,s,1,0.6528069732994481,144.77455287989324,None,None,None,,,,,,,16_IB,22,F,16,2021_Nov_03_1359,Partial repeat,2021.2.3,120.11178865782642,
6,6,0,1,1,2,2,3,2,0,1,1,0,0,1,0,0,12,12,12,1,0,1,0,,,,,,,,,0.9415511507769865,145.4989701949853,None,"[93. 93. 87. 87. 93. 87. 93. 93. 87. 93. 93. 93. 93. 87. 87. 87. 93. 93.
 87. 87. 87. 87. 93. 87. 87. 93. 93. 87. 93. 93. 87. 87. 93. 87.]",146.52305403413447,None,l,1,0.7282694554924092,146.52305403413447,None,None,None,,,,,,,16_IB,22,F,16,2021_Nov_03_1359,Partial repeat,2021.2.3,120.11178865782642,
6,6,0,1,1,2,2,3,2,0,1,1,0,0,1,0,0,12,12,12,,,,,,,,,,,,,,,,,,,,,,,,,,,,,,,,16_IB,22,F,16,2021_Nov_03_1359,Partial repeat,2021.2.3,120.11178865782642,
6,6,0,1,1,2,3,2,3,0,0,0,0,1,1,0,0,13,13,13,0,0,0,0,,,,,,,147.2724118091137,None,0.959427751525384,147.52218330208416,None,"[93. 93. 93. 87. 87. 87. 93. 87. 93. 87. 93. 87. 93. 87. 93. 87. 87. 93.
 93. 93. 87. 93. 87. 93. 87. 87. 87. 87. 93. 93. 87. 87. 93. 87.]",148.57962082906488,None,s,1,0.7036362373382872,148.57962082906488,None,None,None,,,,,,,16_IB,22,F,16,2021_Nov_03_1359,Partial repeat,2021.2.3,120.11178865782642,
6,6,0,1,1,2,3,2,3,0,0,0,0,1,1,0,0,13,13,13,1,0,1,0,,,,,,,,,0.7024486287949723,149.34563572419574,None,"[87. 87. 93. 93. 93. 87. 93. 93. 93. 93. 93. 93. 93. 87. 87. 87. 93. 93.
 87. 87. 87. 87. 87. 93. 93. 93. 93. 93. 87. 87. 93. 93. 93. 93.]",150.1366000591388,None,s,1,0.6666925036261091,150.1366000591388,None,None,None,,,,,,,16_IB,22,F,16,2021_Nov_03_1359,Partial repeat,2021.2.3,120.11178865782642,
6,6,0,1,1,2,3,2,3,0,0,0,0,1,1,0,0,13,13,13,,,,,,,,,,,,,,,,,,,,,,,,,,,,,,,,16_IB,22,F,16,2021_Nov_03_1359,Partial repeat,2021.2.3,120.11178865782642,
6,6,0,1,1,2,2,3,3,1,0,1,1,0,1,0,0,14,14,14,0,0,0,0,,,,,,,150.82765406505132,None,0.804133539458129,151.1357973179529,None,"[93. 93. 93. 87. 93. 87. 93. 93. 87. 87. 93. 93. 87. 93. 93. 87. 87. 87.
 93. 87. 87. 93. 87. 87. 87. 87. 87. 93. 93. 93. 93. 87. 93. 93.]",152.02664183503475,None,l,1,0.6646454013516632,152.02664183503475,None,None,None,,,,,,,16_IB,22,F,16,2021_Nov_03_1359,Partial repeat,2021.2.3,120.11178865782642,
6,6,0,1,1,2,2,3,3,1,0,1,1,0,1,0,0,14,14,14,1,0,1,0,,,,,,,,,0.7914392211494599,152.7510283618103,None,"[93. 87. 87. 87. 87. 87. 87. 93. 93. 93. 93. 87. 93. 87. 87. 93. 87. 87.
 87. 93. 93. 87. 93. 87. 87. 87. 87. 87. 87. 87. 87. 87. 93. 87.]",153.62525713054129,None,s,1,0.6980465545020706,153.62525713054129,None,None,None,,,,,,,16_IB,22,F,16,2021_Nov_03_1359,Partial repeat,2021.2.3,120.11178865782642,
6,6,0,1,1,2,2,3,3,1,0,1,1,0,1,0,0,14,14,14,,,,,,,,,,,,,,,,,,,,,,,,,,,,,,,,16_IB,22,F,16,2021_Nov_03_1359,Partial repeat,2021.2.3,120.11178865782642,
6,6,0,1,1,3,3,2,2,0,1,1,1,0,1,0,0,15,15,15,0,0,0,0,,,,,,,154.3496426951824,None,0.7186619878931277,154.67437026669722,None,"[93. 93. 93. 87. 93. 93. 93. 87. 87. 87. 87. 87. 87. 93. 93. 87. 93. 93.
 93. 87. 93. 87. 87. 93. 87. 87. 87. 93. 87. 93. 93. 87. 93. 87.]",155.4736727830641,None,s,1,0.5776613541875122,155.4736727830641,None,None,None,,,,,,,16_IB,22,F,16,2021_Nov_03_1359,Partial repeat,2021.2.3,120.11178865782642,
6,6,0,1,1,3,3,2,2,0,1,1,1,0,1,0,0,15,15,15,1,0,1,0,,,,,,,,,0.8892567231787414,156.12311798403243,None,"[87. 93. 93. 87. 93. 93. 87. 87. 87. 93. 87. 93. 87. 87. 93. 87. 93. 87.
 87. 93. 87. 87. 87. 93. 87. 87. 93. 87. 87. 93. 93. 93. 93. 93.]",157.09726317531386,None,l,1,0.6340928088138753,157.09726317531386,None,None,None,,,,,,,16_IB,22,F,16,2021_Nov_03_1359,Partial repeat,2021.2.3,120.11178865782642,
6,6,0,1,1,3,3,2,2,0,1,1,1,0,1,0,0,15,15,15,,,,,,,,,,,,,,,,,,,,,,,,,,,,,,,,16_IB,22,F,16,2021_Nov_03_1359,Partial repeat,2021.2.3,120.11178865782642,
6,6,0,1,1,2,3,2,2,0,0,0,1,1,1,0,0,16,16,16,0,0,0,0,,,,,,,157.74670548987706,None,0.8702539798078821,157.95485823584204,None,"[93. 87. 93. 87. 93. 87. 93. 87. 93. 93. 87. 87. 93. 93. 87. 87. 87. 93.
 87. 87. 87. 87. 93. 93. 93. 87. 93. 87. 87. 87. 93. 93. 87. 87.]",158.90404917663545,None,s,1,0.6193208315689844,158.90404917663545,None,None,None,,,,,,,16_IB,22,F,16,2021_Nov_03_1359,Partial repeat,2021.2.3,120.11178865782642,
6,6,0,1,1,2,3,2,2,0,0,0,1,1,1,0,0,16,16,16,1,0,1,0,,,,,,,,,0.8286532476900992,159.586798034421,None,"[93. 87. 93. 87. 93. 93. 87. 87. 93. 87. 87. 87. 93. 93. 87. 87. 93. 87.
 93. 87. 87. 93. 87. 93. 93. 93. 87. 87. 93. 93. 93. 87. 87. 87.]",160.49434617483894,None,s,1,0.5321196626409801,160.49434617483894,None,None,None,,,,,,,16_IB,22,F,16,2021_Nov_03_1359,Partial repeat,2021.2.3,120.11178865782642,
6,6,0,1,1,2,3,2,2,0,0,0,1,1,1,0,0,16,16,16,,,,,,,,,,,,,,,,,,,,,,,,,,,,,,,,16_IB,22,F,16,2021_Nov_03_1359,Partial repeat,2021.2.3,120.11178865782642,
6,6,0,1,1,2,2,3,3,1,1,1,1,1,1,0,0,17,17,17,0,0,0,0,,,,,,,161.04387367040908,None,0.8073189463223224,161.34361620311938,None,"[93. 93. 87. 93. 87. 87. 93. 93. 87. 93. 87. 93. 93. 93. 93. 87. 93. 87.
 87. 93. 87. 93. 93. 93. 87. 93. 93. 87. 93. 93. 93. 87. 87. 87.]",162.23452197612096,None,l,1,0.5839165136367228,162.23452197612096,None,None,None,,,,,,,16_IB,22,F,16,2021_Nov_03_1359,Partial repeat,2021.2.3,120.11178865782642,
6,6,0,1,1,2,2,3,3,1,1,1,1,1,1,0,0,17,17,17,1,0,1,0,,,,,,,,,0.8699351405492751,162.88395627289356,None,"[93. 87. 93. 93. 87. 93. 93. 93. 87. 87. 93. 87. 93. 93. 87. 93. 93. 93.
 87. 87. 93. 93. 93. 93. 87. 87. 93. 87. 93. 93. 87. 87. 93. 87.]",163.8331484965347,None,l,1,0.5852689545408793,163.8331484965347,None,None,None,,,,,,,16_IB,22,F,16,2021_Nov_03_1359,Partial repeat,2021.2.3,120.11178865782642,
6,6,0,1,1,2,2,3,3,1,1,1,1,1,1,0,0,17,17,17,,,,,,,,,,,,,,,,,,,,,,,,,,,,,,,,16_IB,22,F,16,2021_Nov_03_1359,Partial repeat,2021.2.3,120.11178865782642,
6,6,0,1,1,2,3,3,2,1,0,0,0,0,1,0,0,18,18,18,0,0,0,0,,,,,,,164.44093614439043,None,0.878398676030693,164.66576108395384,None,"[87. 93. 93. 87. 87. 87. 93. 93. 87. 87. 87. 93. 93. 87. 93. 93. 93. 87.
 93. 87. 87. 93. 87. 93. 87. 87. 93. 93. 93. 93. 87. 93. 87. 87.]",165.623272246321,None,l,1,0.6031524759291642,165.623272246321,None,None,None,,,,,,,16_IB,22,F,16,2021_Nov_03_1359,Partial repeat,2021.2.3,120.11178865782642,
6,6,0,1,1,2,3,3,2,1,0,0,0,0,1,0,0,18,18,18,1,0,1,0,,,,,,,,,0.7894578494319854,166.2976800362776,None,"[87. 93. 93. 93. 93. 93. 93. 87. 87. 93. 87. 93. 87. 87. 87. 87. 87. 87.
 87. 93. 93. 93. 93. 87. 93. 93. 87. 93. 93. 93. 93. 87. 87. 87.]",167.17193959332326,None,l,0,0.46251914744971145,167.17193959332326,None,167.65484213611853,None,,,,,,,16_IB,22,F,16,2021_Nov_03_1359,Partial repeat,2021.2.3,120.11178865782642,
6,6,0,1,1,2,3,3,2,1,0,0,0,0,1,0,0,18,18,18,,,,,,,,,,,,,,,,,,,,,,,,,,,,,,,,16_IB,22,F,16,2021_Nov_03_1359,Partial repeat,2021.2.3,120.11178865782642,
6,6,0,1,1,3,2,3,2,0,1,0,0,0,1,0,0,19,19,19,0,0,0,0,,,,,,,168.15441109970016,None,0.7062092069329083,168.82049834737154,None,"[87. 93. 93. 93. 87. 87. 93. 87. 87. 93. 93. 87. 93. 93. 87. 93. 87. 87.
 87. 93. 93. 87. 87. 87. 93. 93. 87. 93. 87. 87. 87. 93. 87. 93.]",169.60315111995624,None,s,1,0.6233499316585949,169.60315111995624,None,None,None,,,,,,,16_IB,22,F,16,2021_Nov_03_1359,Partial repeat,2021.2.3,120.11178865782642,
6,6,0,1,1,3,2,3,2,0,1,0,0,0,1,0,0,19,19,19,1,0,1,0,,,,,,,,,0.9623001269987153,170.29424040414779,None,"[93. 93. 87. 87. 93. 93. 87. 93. 93. 87. 87. 93. 87. 87. 87. 93. 87. 93.
 87. 93. 93. 93. 93. 87. 87. 87. 87. 87. 93. 93. 87. 87. 93. 93.]",171.3349794391779,None,l,1,0.5875088044977019,171.3349794391779,None,None,None,,,,,,,16_IB,22,F,16,2021_Nov_03_1359,Partial repeat,2021.2.3,120.11178865782642,
6,6,0,1,1,3,2,3,2,0,1,0,0,0,1,0,0,19,19,19,,,,,,,,,,,,,,,,,,,,,,,,,,,,,,,,16_IB,22,F,16,2021_Nov_03_1359,Partial repeat,2021.2.3,120.11178865782642,
6,6,0,1,1,3,3,2,3,1,0,1,0,0,1,0,0,20,20,20,0,0,0,0,,,,,,,171.94281198666067,None,0.7438210200038833,172.30083423506767,None,"[93. 87. 87. 87. 87. 87. 87. 87. 93. 87. 87. 87. 93. 93. 87. 93. 93. 87.
 93. 93. 93. 93. 93. 93. 93. 87. 93. 87. 87. 87. 87. 93. 87. 93.]",173.1251323737215,None,l,1,0.6053772524410306,173.1251323737215,None,None,None,,,,,,,16_IB,22,F,16,2021_Nov_03_1359,Partial repeat,2021.2.3,120.11178865782642,
6,6,0,1,1,3,3,2,3,1,0,1,0,0,1,0,0,20,20,20,1,0,1,0,,,,,,,,,0.997647256566092,173.7995465779095,None,"[87. 87. 87. 93. 87. 93. 87. 87. 87. 87. 93. 93. 93. 87. 93. 93. 93. 87.
 93. 93. 87. 87. 87. 93. 93. 93. 87. 93. 93. 87. 87. 93. 93. 93.]",174.87363609365457,None,s,1,0.5208774374914356,174.87363609365457,None,None,None,,,,,,,16_IB,22,F,16,2021_Nov_03_1359,Partial repeat,2021.2.3,120.11178865782642,
6,6,0,1,1,3,3,2,3,1,0,1,0,0,1,0,0,20,20,20,,,,,,,,,,,,,,,,,,,,,,,,,,,,,,,,16_IB,22,F,16,2021_Nov_03_1359,Partial repeat,2021.2.3,120.11178865782642,
6,6,0,1,1,2,3,2,2,1,0,0,1,0,1,0,0,21,21,21,0,0,0,0,,,,,,,175.4231459500843,None,0.8330199648859709,175.77284541122572,None,"[87. 93. 87. 87. 87. 87. 87. 87. 93. 87. 87. 87. 93. 93. 93. 87. 87. 93.
 87. 93. 87. 87. 87. 87. 87. 93. 87. 87. 93. 93. 93. 87. 93. 93.]",176.6803922687959,None,l,1,0.5372314851611009,176.6803922687959,None,None,None,,,,,,,16_IB,22,F,16,2021_Nov_03_1359,Partial repeat,2021.2.3,120.11178865782642,
6,6,0,1,1,2,3,2,2,1,0,0,1,0,1,0,0,21,21,21,1,0,1,0,,,,,,,,,0.7020876236996392,177.2881917829818,None,"[93. 87. 93. 87. 93. 87. 87. 93. 87. 87. 87. 93. 93. 87. 87. 93. 93. 87.
 87. 93. 87. 87. 87. 87. 87. 93. 87. 93. 87. 87. 87. 93. 93. 93.]",178.07085898759033,None,s,1,0.5397304701091343,178.07085898759033,None,None,None,,,,,,,16_IB,22,F,16,2021_Nov_03_1359,Partial repeat,2021.2.3,120.11178865782642,
6,6,0,1,1,2,3,2,2,1,0,0,1,0,1,0,0,21,21,21,,,,,,,,,,,,,,,,,,,,,,,,,,,,,,,,16_IB,22,F,16,2021_Nov_03_1359,Partial repeat,2021.2.3,120.11178865782642,
6,6,0,1,1,3,3,3,2,1,0,1,0,0,1,0,0,22,22,22,0,0,0,0,,,,,,,178.62039610450847,None,0.9394283564702786,179.0783363790233,None,"[87. 87. 93. 87. 87. 87. 93. 87. 87. 93. 87. 93. 93. 93. 87. 87. 93. 93.
 93. 93. 87. 93. 87. 87. 93. 93. 93. 93. 93. 87. 93. 87. 87. 87.]",180.09411090079448,None,l,1,0.5155170634643582,180.09411090079448,None,None,None,,,,,,,16_IB,22,F,16,2021_Nov_03_1359,Partial repeat,2021.2.3,120.11178865782642,
6,6,0,1,1,3,3,3,2,1,0,1,0,0,1,0,0,22,22,22,1,0,1,0,,,,,,,,,0.8750410717562163,180.67695039168393,None,"[87. 87. 87. 93. 87. 87. 87. 93. 93. 87. 93. 87. 93. 93. 87. 87. 93. 93.
 93. 93. 87. 87. 93. 87. 93. 93. 87. 93. 93. 93. 93. 87. 93. 93.]",181.62613652180517,None,s,1,0.43944554990412144,181.62613652180517,None,None,None,,,,,,,16_IB,22,F,16,2021_Nov_03_1359,Partial repeat,2021.2.3,120.11178865782642,
6,6,0,1,1,3,3,3,2,1,0,1,0,0,1,0,0,22,22,22,,,,,,,,,,,,,,,,,,,,,,,,,,,,,,,,16_IB,22,F,16,2021_Nov_03_1359,Partial repeat,2021.2.3,120.11178865782642,
6,6,0,1,1,3,2,3,3,1,0,0,1,0,1,0,0,23,23,23,0,0,0,0,,,,,,,182.08405691220105,None,0.7454943741466342,182.47541232289404,None,"[87. 93. 87. 87. 93. 93. 93. 87. 87. 87. 93. 93. 93. 93. 93. 87. 93. 87.
 93. 87. 93. 87. 87. 87. 93. 87. 93. 87. 93. 87. 87. 87. 93. 93.]",183.29970148162283,None,l,1,0.42990502061365987,183.29970148162283,None,None,None,,,,,,,16_IB,22,F,16,2021_Nov_03_1359,Partial repeat,2021.2.3,120.11178865782642,
6,6,0,1,1,3,2,3,3,1,0,0,1,0,1,0,0,23,23,23,1,0,1,0,,,,,,,,,0.8362400434690098,183.7992874429201,None,"[87. 93. 87. 87. 93. 87. 93. 87. 93. 93. 87. 87. 93. 93. 87. 93. 87. 93.
 93. 93. 93. 93. 87. 87. 87. 87. 87. 87. 93. 93. 93. 93. 93. 93.]",184.71513944861908,None,s,1,0.5835544302171911,184.71513944861908,None,None,None,,,,,,,16_IB,22,F,16,2021_Nov_03_1359,Partial repeat,2021.2.3,120.11178865782642,
6,6,0,1,1,3,2,3,3,1,0,0,1,0,1,0,0,23,23,23,,,,,,,,,,,,,,,,,,,,,,,,,,,,,,,,16_IB,22,F,16,2021_Nov_03_1359,Partial repeat,2021.2.3,120.11178865782642,
6,6,0,1,1,3,3,2,3,0,1,1,0,0,1,0,0,24,24,24,0,0,0,0,,,,,,,185.31459757426455,None,0.9972988297964069,185.6643470664185,None,"[93. 93. 87. 87. 87. 87. 87. 93. 93. 93. 87. 87. 93. 93. 87. 87. 93. 87.
 87. 87. 87. 93. 87. 93. 93. 93. 93. 93. 93. 87. 87. 87. 87. 87.]",186.73838911684288,None,l,0,0.47924810700169473,186.73838911684288,None,187.22962567180912,None,,,,,,,16_IB,22,F,16,2021_Nov_03_1359,Partial repeat,2021.2.3,120.11178865782642,
6,6,0,1,1,3,3,2,3,0,1,1,0,0,1,0,0,24,24,24,1,0,1,0,,,,,,,,,0.7184616792182877,187.76251047925143,None,"[93. 93. 87. 93. 93. 87. 93. 87. 93. 87. 87. 87. 87. 93. 93. 93. 87. 87.
 87. 87. 87. 87. 93. 93. 87. 87. 87. 93. 87. 87. 93. 87. 87. 93.]",188.57014604565666,None,l,1,0.5355006045447226,188.57014604565666,None,None,None,,,,,,,16_IB,22,F,16,2021_Nov_03_1359,Partial repeat,2021.2.3,120.11178865782642,
6,6,0,1,1,3,3,2,3,0,1,1,0,0,1,0,0,24,24,24,,,,,,,,,,,,,,,,,,,,,,,,,,,,,,,,16_IB,22,F,16,2021_Nov_03_1359,Partial repeat,2021.2.3,120.11178865782642,
6,6,0,1,1,2,3,2,2,0,1,0,1,0,1,0,0,25,25,25,0,0,0,0,,,,,,,189.13636080827018,None,0.9381634835012036,189.5942642009486,None,"[87. 93. 87. 93. 87. 93. 87. 93. 93. 93. 87. 93. 87. 93. 87. 93. 87. 87.
 87. 87. 87. 87. 93. 87. 87. 87. 93. 93. 87. 93. 93. 93. 93. 87.]",190.61005796541758,None,s,1,0.6876182954456453,190.61005796541758,None,None,None,,,,,,,16_IB,22,F,16,2021_Nov_03_1359,Partial repeat,2021.2.3,120.11178865782642,
6,6,0,1,1,2,3,2,2,0,1,0,1,0,1,0,0,25,25,25,1,0,1,0,,,,,,,,,0.7388740965931546,191.35941606110828,None,"[87. 87. 87. 87. 93. 93. 93. 93. 93. 93. 87. 93. 93. 93. 87. 87. 87. 93.
 87. 93. 87. 93. 93. 93. 87. 87. 93. 93. 87. 87. 93. 87. 93. 87.]",192.1836917499495,None,l,1,0.5370868442187202,192.1836917499495,None,None,None,,,,,,,16_IB,22,F,16,2021_Nov_03_1359,Partial repeat,2021.2.3,120.11178865782642,
6,6,0,1,1,2,3,2,2,0,1,0,1,0,1,0,0,25,25,25,,,,,,,,,,,,,,,,,,,,,,,,,,,,,,,,16_IB,22,F,16,2021_Nov_03_1359,Partial repeat,2021.2.3,120.11178865782642,
6,6,0,1,1,2,3,3,2,1,1,0,0,1,1,0,0,26,26,26,0,0,0,0,,,,,,,192.74155165413322,None,0.824336641675978,193.04129194186316,None,"[93. 93. 87. 87. 87. 93. 93. 93. 87. 93. 93. 93. 87. 87. 93. 93. 87. 93.
 87. 93. 93. 93. 93. 87. 93. 87. 93. 93. 93. 87. 87. 93. 93. 93.]",193.94051505003335,None,l,1,0.4772099846541096,193.94051505003335,None,None,None,,,,,,,16_IB,22,F,16,2021_Nov_03_1359,Partial repeat,2021.2.3,120.11178865782642,
6,6,0,1,1,2,3,3,2,1,1,0,0,1,1,0,0,26,26,26,1,0,1,0,,,,,,,,,0.7653897658792582,194.48170757129446,None,"[93. 93. 93. 87. 93. 93. 93. 93. 87. 93. 93. 87. 93. 87. 93. 93. 93. 87.
 93. 93. 87. 93. 93. 93. 87. 93. 93. 93. 93. 87. 93. 87. 87. 93.]",195.33097246818943,None,l,1,0.5424209198936296,195.33097246818943,None,None,None,,,,,,,16_IB,22,F,16,2021_Nov_03_1359,Partial repeat,2021.2.3,120.11178865782642,
6,6,0,1,1,2,3,3,2,1,1,0,0,1,1,0,0,26,26,26,,,,,,,,,,,,,,,,,,,,,,,,,,,,,,,,16_IB,22,F,16,2021_Nov_03_1359,Partial repeat,2021.2.3,120.11178865782642,
6,6,0,1,1,3,2,2,3,0,0,0,0,1,1,0,0,27,27,27,0,0,0,0,,,,,,,195.89717087450845,None,0.9173377733343328,196.22188369328796,None,"[87. 87. 93. 87. 93. 87. 93. 87. 93. 87. 87. 93. 93. 93. 93. 87. 87. 93.
 93. 93. 87. 93. 93. 93. 93. 87. 93. 93. 87. 93. 93. 93. 87. 87.]",197.22102611041555,None,s,1,0.3637204048955027,197.22102611041555,None,None,None,,,,,,,16_IB,22,F,16,2021_Nov_03_1359,Partial repeat,2021.2.3,120.11178865782642,
6,6,0,1,1,3,2,2,3,0,0,0,0,1,1,0,0,27,27,27,1,0,1,0,,,,,,,,,0.7422429647414125,197.65398679822647,None,"[93. 93. 93. 93. 93. 87. 87. 93. 87. 87. 87. 93. 93. 93. 87. 93. 87. 87.
 87. 93. 93. 87. 87. 87. 93. 87. 87. 87. 87. 87. 93. 87. 93. 87.]",198.4782785226471,None,s,1,0.49848599356482737,198.4782785226471,None,None,None,,,,,,,16_IB,22,F,16,2021_Nov_03_1359,Partial repeat,2021.2.3,120.11178865782642,
6,6,0,1,1,3,2,2,3,0,0,0,0,1,1,0,0,27,27,27,,,,,,,,,,,,,,,,,,,,,,,,,,,,,,,,16_IB,22,F,16,2021_Nov_03_1359,Partial repeat,2021.2.3,120.11178865782642,
6,6,0,1,1,2,2,3,2,1,0,1,0,0,1,0,0,28,28,28,0,0,0,0,,,,,,,198.99450364424592,None,0.852296619846518,199.51904161104903,None,"[87. 93. 87. 87. 87. 93. 87. 93. 93. 93. 93. 87. 87. 87. 87. 93. 93. 93.
 87. 93. 93. 87. 87. 87. 87. 87. 93. 87. 93. 93. 87. 87. 87. 87.]",200.4515856944654,None,l,1,0.4132042836827168,200.4515856944654,None,None,None,,,,,,,16_IB,22,F,16,2021_Nov_03_1359,Partial repeat,2021.2.3,120.11178865782642,
6,6,0,1,1,2,2,3,2,1,0,1,0,0,1,0,0,28,28,28,1,0,1,0,,,,,,,,,0.8189331608109433,200.93450138643493,None,"[87. 93. 93. 93. 87. 93. 87. 87. 87. 93. 93. 87. 93. 93. 87. 93. 87. 93.
 87. 93. 87. 87. 93. 93. 87. 87. 87. 93. 93. 93. 93. 87. 87. 93.]",201.8337036483499,None,s,1,0.4870747533914255,201.8337036483499,None,None,None,,,,,,,16_IB,22,F,16,2021_Nov_03_1359,Partial repeat,2021.2.3,120.11178865782642,
6,6,0,1,1,2,2,3,2,1,0,1,0,0,1,0,0,28,28,28,,,,,,,,,,,,,,,,,,,,,,,,,,,,,,,,16_IB,22,F,16,2021_Nov_03_1359,Partial repeat,2021.2.3,120.11178865782642,
6,6,0,1,1,2,2,2,3,0,1,1,0,0,1,0,0,29,29,29,0,0,0,0,,,,,,,202.34161560403118,None,0.9079880973983616,202.732939905698,None,"[93. 87. 87. 87. 87. 87. 87. 93. 87. 87. 93. 93. 93. 93. 87. 93. 87. 87.
 87. 93. 93. 87. 93. 93. 87. 87. 93. 93. 93. 87. 93. 93. 93. 93.]",203.7154274476543,None,s,1,0.5733846647272003,203.7154274476543,None,None,None,,,,,,,16_IB,22,F,16,2021_Nov_03_1359,Partial repeat,2021.2.3,120.11178865782642,
6,6,0,1,1,2,2,2,3,0,1,1,0,0,1,0,0,29,29,29,1,0,1,0,,,,,,,,,0.7390328000999382,204.35654665423863,None,"[93. 87. 87. 87. 87. 87. 93. 87. 87. 93. 87. 87. 93. 93. 93. 87. 93. 93.
 87. 87. 87. 93. 87. 93. 93. 93. 87. 93. 93. 87. 87. 93. 93. 93.]",205.17249699012064,None,l,1,0.4283123667064501,205.17249699012064,None,None,None,,,,,,,16_IB,22,F,16,2021_Nov_03_1359,Partial repeat,2021.2.3,120.11178865782642,
6,6,0,1,1,2,2,2,3,0,1,1,0,0,1,0,0,29,29,29,,,,,,,,,,,,,,,,,,,,,,,,,,,,,,,,16_IB,22,F,16,2021_Nov_03_1359,Partial repeat,2021.2.3,120.11178865782642,
6,6,0,1,1,3,3,3,3,1,0,1,1,0,1,0,0,30,30,30,0,0,0,0,,,,,,,205.62211351523547,None,0.9223169920784509,205.8552538656968,None,"[87. 87. 93. 93. 87. 93. 87. 87. 93. 93. 93. 87. 93. 87. 93. 87. 93. 87.
 87. 93. 87. 87. 93. 93. 93. 87. 87. 87. 87. 87. 93. 87. 93. 87.]",206.85437768154952,None,l,1,0.5864539839785721,206.85437768154952,None,None,None,,,,,,,16_IB,22,F,16,2021_Nov_03_1359,Partial repeat,2021.2.3,120.11178865782642,
6,6,0,1,1,3,3,3,3,1,0,1,1,0,1,0,0,30,30,30,1,0,1,0,,,,,,,,,0.9889877144142976,207.50381294045656,None,"[87. 93. 93. 87. 87. 87. 93. 87. 87. 87. 87. 93. 93. 93. 87. 87. 93. 87.
 93. 93. 93. 93. 93. 87. 87. 87. 87. 87. 93. 93. 93. 93. 87. 93.]",208.56960051519127,None,s,1,0.5663415168273787,208.56960051519127,None,None,None,,,,,,,16_IB,22,F,16,2021_Nov_03_1359,Partial repeat,2021.2.3,120.11178865782642,
6,6,0,1,1,3,3,3,3,1,0,1,1,0,1,0,0,30,30,30,,,,,,,,,,,,,,,,,,,,,,,,,,,,,,,,16_IB,22,F,16,2021_Nov_03_1359,Partial repeat,2021.2.3,120.11178865782642,
6,6,0,1,1,3,3,2,2,1,1,1,1,1,1,0,0,31,31,31,0,0,0,0,,,,,,,209.1523899750664,None,0.7889284555243943,212.0082785290615,None,"[87. 93. 93. 93. 93. 93. 93. 87. 93. 93. 87. 87. 87. 93. 93. 87. 93. 93.
 93. 93. 87. 87. 93. 93. 87. 87. 87. 87. 87. 87. 87. 93. 93. 93.]",212.8742056774936,None,l,1,0.5976833806635113,212.8742056774936,None,None,None,,,,,,,16_IB,22,F,16,2021_Nov_03_1359,Partial repeat,2021.2.3,120.11178865782642,
6,6,0,1,1,3,3,2,2,1,1,1,1,1,1,0,0,31,31,31,1,0,1,0,,,,,,,,,0.9646178533786076,213.53196308224324,None,"[93. 93. 93. 87. 93. 87. 87. 93. 93. 93. 93. 93. 87. 87. 87. 93. 93. 93.
 93. 87. 87. 87. 93. 87. 93. 87. 87. 93. 93. 93. 87. 87. 87. 93.]",214.57272328424006,None,l,1,0.4355052869341307,214.57272328424006,None,None,None,,,,,,,16_IB,22,F,16,2021_Nov_03_1359,Partial repeat,2021.2.3,120.11178865782642,
6,6,0,1,1,3,3,2,2,1,1,1,1,1,1,0,0,31,31,31,,,,,,,,,,,,,,,,,,,,,,,,,,,,,,,,16_IB,22,F,16,2021_Nov_03_1359,Partial repeat,2021.2.3,120.11178865782642,
6,6,0,1,1,2,3,2,3,0,1,0,0,0,1,0,0,32,32,32,0,0,0,0,,,,,,,215.03068280145453,None,0.892389082142379,215.28045493584796,None,"[93. 87. 93. 87. 87. 87. 87. 93. 87. 93. 93. 93. 87. 87. 93. 87. 93. 93.
 93. 87. 93. 87. 87. 93. 87. 93. 93. 93. 87. 87. 87. 87. 87. 87.]",216.2546485545845,None,s,1,0.5292614806767233,216.2546485545845,None,None,None,,,,,,,16_IB,22,F,16,2021_Nov_03_1359,Partial repeat,2021.2.3,120.11178865782642,
6,6,0,1,1,2,3,2,3,0,1,0,0,0,1,0,0,32,32,32,1,0,1,0,,,,,,,,,0.7329005685445539,216.84578100655926,None,"[93. 87. 93. 87. 93. 87. 87. 87. 93. 87. 93. 93. 93. 93. 93. 93. 87. 93.
 87. 87. 93. 87. 93. 93. 93. 93. 87. 87. 93. 87. 93. 93. 93. 93.]",217.65342234577474,None,l,1,0.49055383305312716,217.65342234577474,None,None,None,,,,,,,16_IB,22,F,16,2021_Nov_03_1359,Partial repeat,2021.2.3,120.11178865782642,
6,6,0,1,1,2,3,2,3,0,1,0,0,0,1,0,0,32,32,32,,,,,,,,,,,,,,,,,,,,,,,,,,,,,,,,16_IB,22,F,16,2021_Nov_03_1359,Partial repeat,2021.2.3,120.11178865782642,
6,6,0,1,1,2,2,2,2,1,1,1,1,1,1,0,0,33,33,33,0,0,0,0,,,,,,,218.1613051166969,None,0.7905030485203907,218.5110045778365,None,"[87. 93. 93. 93. 93. 87. 87. 93. 87. 93. 87. 87. 87. 93. 87. 87. 93. 87.
 93. 87. 87. 93. 87. 87. 93. 87. 87. 87. 87. 93. 87. 87. 87. 87.]",219.37690703147382,None,l,1,0.43106856237500324,219.37690703147382,None,None,None,,,,,,,16_IB,22,F,16,2021_Nov_03_1359,Partial repeat,2021.2.3,120.11178865782642,
6,6,0,1,1,2,2,2,2,1,1,1,1,1,1,0,0,33,33,33,1,0,1,0,,,,,,,,,0.7866209901538502,219.87649491703996,None,"[87. 87. 93. 87. 93. 87. 87. 93. 93. 93. 87. 87. 87. 93. 87. 93. 93. 87.
 87. 93. 93. 93. 87. 93. 87. 93. 87. 93. 87. 87. 87. 93. 87. 93.]",220.74241693408658,None,s,0,0.36154341441397264,220.74241693408658,None,221.12541684492862,None,,,,,,,16_IB,22,F,16,2021_Nov_03_1359,Partial repeat,2021.2.3,120.11178865782642,
6,6,0,1,1,2,2,2,2,1,1,1,1,1,1,0,0,33,33,33,,,,,,,,,,,,,,,,,,,,,,,,,,,,,,,,16_IB,22,F,16,2021_Nov_03_1359,Partial repeat,2021.2.3,120.11178865782642,
6,6,0,1,1,2,2,3,3,0,0,1,1,1,1,0,0,34,34,34,0,0,0,0,,,,,,,221.6249716971979,None,0.7936401403500999,222.19116785853657,None,"[93. 87. 93. 93. 93. 87. 87. 87. 93. 87. 93. 93. 93. 93. 87. 87. 93. 93.
 87. 93. 93. 87. 93. 93. 87. 87. 87. 93. 87. 87. 93. 87. 87. 87.]",223.0654216427738,None,s,1,0.39014608029719966,223.0654216427738,None,None,None,,,,,,,16_IB,22,F,16,2021_Nov_03_1359,Partial repeat,2021.2.3,120.11178865782642,
6,6,0,1,1,2,2,3,3,0,0,1,1,1,1,0,0,34,34,34,1,0,1,0,,,,,,,,,0.8944983182864267,223.52335069238325,None,"[87. 93. 93. 93. 87. 87. 87. 93. 93. 93. 87. 87. 87. 87. 93. 87. 93. 93.
 93. 93. 87. 93. 93. 87. 93. 93. 87. 87. 93. 93. 93. 93. 87. 87.]",224.4975135228051,None,s,1,0.5895366640761495,224.4975135228051,None,None,None,,,,,,,16_IB,22,F,16,2021_Nov_03_1359,Partial repeat,2021.2.3,120.11178865782642,
6,6,0,1,1,2,2,3,3,0,0,1,1,1,1,0,0,34,34,34,,,,,,,,,,,,,,,,,,,,,,,,,,,,,,,,16_IB,22,F,16,2021_Nov_03_1359,Partial repeat,2021.2.3,120.11178865782642,
6,6,0,1,1,2,3,2,3,1,0,0,0,0,1,0,0,35,35,35,0,0,0,0,,,,,,,225.10532650687855,None,0.9194682827637563,225.36343008775293,None,"[93. 93. 87. 87. 93. 93. 93. 93. 93. 93. 93. 93. 93. 87. 93. 87. 93. 93.
 93. 93. 93. 93. 93. 87. 87. 93. 93. 87. 87. 93. 93. 93. 87. 87.]",226.3625628835307,None,l,1,0.5324185658701026,226.3625628835307,None,None,None,,,,,,,16_IB,22,F,16,2021_Nov_03_1359,Partial repeat,2021.2.3,120.11178865782642,
6,6,0,1,1,2,3,2,3,1,0,0,0,0,1,0,0,35,35,35,1,0,1,0,,,,,,,,,0.8549951042268509,226.95369886333356,None,"[87. 93. 93. 87. 87. 87. 93. 93. 87. 93. 93. 93. 93. 87. 93. 87. 87. 93.
 87. 87. 87. 87. 87. 93. 87. 87. 87. 87. 93. 87. 93. 87. 93. 87.]",227.88628624281773,None,l,0,0.43273690422392974,227.88628624281773,None,228.327548871639,None,,,,,,,16_IB,22,F,16,2021_Nov_03_1359,Partial repeat,2021.2.3,120.11178865782642,
6,6,0,1,1,2,3,2,3,1,0,0,0,0,1,0,0,35,35,35,,,,,,,,,,,,,,,,,,,,,,,,,,,,,,,,16_IB,22,F,16,2021_Nov_03_1359,Partial repeat,2021.2.3,120.11178865782642,
6,6,0,1,1,2,3,2,2,1,1,0,1,1,1,0,0,36,36,36,0,0,0,0,,,,,,,228.82711110027776,None,0.7230733244271488,229.35166125412252,None,"[93. 93. 87. 93. 93. 87. 93. 87. 87. 87. 93. 93. 93. 93. 93. 93. 93. 93.
 93. 93. 87. 87. 87. 87. 93. 93. 87. 93. 87. 87. 87. 93. 87. 93.]",230.1509689018767,None,l,1,0.4400802382006077,230.1509689018767,None,None,None,,,,,,,16_IB,22,F,16,2021_Nov_03_1359,Partial repeat,2021.2.3,120.11178865782642,
6,6,0,1,1,2,3,2,2,1,1,0,1,1,1,0,0,36,36,36,1,0,1,0,,,,,,,,,0.8930474603818039,230.6505397897272,None,"[87. 87. 93. 87. 93. 87. 87. 93. 93. 93. 87. 87. 93. 93. 87. 87. 87. 93.
 87. 87. 87. 93. 87. 93. 87. 93. 87. 93. 93. 87. 93. 93. 93. 87.]",231.62470197872608,None,l,1,0.4863704706713179,231.62470197872608,None,None,None,,,,,,,16_IB,22,F,16,2021_Nov_03_1359,Partial repeat,2021.2.3,120.11178865782642,
6,6,0,1,1,2,3,2,2,1,1,0,1,1,1,0,0,36,36,36,,,,,,,,,,,,,,,,,,,,,,,,,,,,,,,,16_IB,22,F,16,2021_Nov_03_1359,Partial repeat,2021.2.3,120.11178865782642,
6,6,0,1,1,2,2,3,2,1,1,1,0,1,1,0,0,37,37,37,0,0,0,0,,,,,,,232.14092196893762,None,0.7095628882046628,232.52391033416097,None,"[87. 93. 93. 93. 87. 93. 93. 93. 93. 93. 87. 93. 93. 93. 93. 87. 93. 87.
 87. 87. 87. 93. 87. 93. 93. 93. 87. 93. 93. 93. 93. 87. 87. 87.]",233.31491219236523,None,s,0,0.3476456970474828,233.31491219236523,None,233.67290493530163,None,,,,,,,16_IB,22,F,16,2021_Nov_03_1359,Partial repeat,2021.2.3,120.11178865782642,
6,6,0,1,1,2,2,3,2,1,1,1,0,1,1,0,0,37,37,37,1,0,1,0,,,,,,,,,0.9864262077350656,234.20581700323055,None,"[87. 93. 87. 93. 87. 93. 87. 87. 93. 93. 87. 93. 93. 93. 87. 93. 93. 87.
 93. 87. 93. 93. 87. 93. 87. 93. 87. 93. 93. 93. 87. 87. 93. 93.]",235.27155935762676,None,l,1,0.4875513308597874,235.27155935762676,None,None,None,,,,,,,16_IB,22,F,16,2021_Nov_03_1359,Partial repeat,2021.2.3,120.11178865782642,
6,6,0,1,1,2,2,3,2,1,1,1,0,1,1,0,0,37,37,37,,,,,,,,,,,,,,,,,,,,,,,,,,,,,,,,16_IB,22,F,16,2021_Nov_03_1359,Partial repeat,2021.2.3,120.11178865782642,
6,6,0,1,1,3,3,2,2,0,0,1,1,1,1,0,0,38,38,38,0,0,0,0,,,,,,,235.7711119649157,None,0.8173931428189236,235.95429314196554,None,"[87. 93. 87. 87. 87. 87. 93. 87. 87. 93. 87. 93. 87. 87. 93. 87. 93. 93.
 93. 93. 87. 87. 87. 87. 93. 93. 93. 87. 87. 87. 87. 87. 87. 87.]",236.85351464657833,None,l,0,0.5054287587263389,236.85351464657833,None,237.37806608327082,None,,,,,,,16_IB,22,F,16,2021_Nov_03_1359,Partial repeat,2021.2.3,120.11178865782642,
6,6,0,1,1,3,3,2,2,0,0,1,1,1,1,0,0,38,38,38,1,0,1,0,,,,,,,,,0.728135007134616,237.91095570138532,None,"[93. 87. 87. 87. 93. 87. 93. 87. 93. 87. 87. 87. 87. 87. 93. 87. 87. 93.
 93. 87. 93. 87. 87. 87. 93. 87. 87. 87. 87. 93. 87. 87. 87. 93.]",238.7185887020987,None,s,1,0.7205348533370852,238.7185887020987,None,None,None,,,,,,,16_IB,22,F,16,2021_Nov_03_1359,Partial repeat,2021.2.3,120.11178865782642,
6,6,0,1,1,3,3,2,2,0,0,1,1,1,1,0,0,38,38,38,,,,,,,,,,,,,,,,,,,,,,,,,,,,,,,,16_IB,22,F,16,2021_Nov_03_1359,Partial repeat,2021.2.3,120.11178865782642,
6,6,0,1,1,2,2,2,2,1,0,1,1,0,1,0,0,39,39,39,0,0,0,0,,,,,,,239.45961342703959,None,0.9336456749219938,239.9258575668373,None,"[87. 87. 93. 87. 87. 87. 87. 87. 93. 87. 93. 93. 93. 87. 87. 87. 93. 93.
 93. 93. 87. 93. 87. 87. 93. 93. 93. 93. 93. 93. 93. 87. 93. 93.]",240.9499991340781,None,l,1,0.5521378405737778,240.9499991340781,None,None,None,,,,,,,16_IB,22,F,16,2021_Nov_03_1359,Partial repeat,2021.2.3,120.11178865782642,
6,6,0,1,1,2,2,2,2,1,0,1,1,0,1,0,0,39,39,39,1,0,1,0,,,,,,,,,0.9472775314320612,241.5744548062794,None,"[93. 93. 93. 87. 93. 93. 93. 93. 87. 93. 87. 87. 87. 87. 93. 87. 93. 93.
 93. 93. 87. 93. 87. 87. 93. 87. 93. 87. 87. 93. 93. 93. 93. 93.]",242.6069140294003,None,s,1,1.0232593626969901,242.6069140294003,None,None,None,,,,,,,16_IB,22,F,16,2021_Nov_03_1359,Partial repeat,2021.2.3,120.11178865782642,
6,6,0,1,1,2,2,2,2,1,0,1,1,0,1,0,0,39,39,39,,,,,,,,,,,,,,,,,,,,,,,,,,,,,,,,16_IB,22,F,16,2021_Nov_03_1359,Partial repeat,2021.2.3,120.11178865782642,
6,6,0,1,1,3,3,3,3,0,1,1,1,0,1,0,0,40,40,40,0,0,0,0,,,,,,,243.65600086720406,None,0.7316264744763203,244.2388387545343,None,"[93. 93. 87. 87. 87. 93. 93. 93. 87. 93. 87. 93. 93. 87. 87. 93. 93. 87.
 93. 93. 87. 93. 93. 87. 87. 93. 87. 93. 93. 93. 87. 93. 87. 87.]",245.04646534101448,None,s,1,0.631740068365616,245.04646534101448,None,None,None,,,,,,,16_IB,22,F,16,2021_Nov_03_1359,Partial repeat,2021.2.3,120.11178865782642,
6,6,0,1,1,3,3,3,3,0,1,1,1,0,1,0,0,40,40,40,1,0,1,0,,,,,,,,,0.8929867558307183,245.73752704400613,None,"[87. 93. 87. 93. 87. 93. 93. 87. 87. 93. 93. 93. 93. 93. 93. 93. 93. 93.
 93. 87. 93. 93. 87. 93. 87. 87. 87. 93. 87. 87. 87. 87. 93. 93.]",246.71169660937267,None,l,1,0.4705571427966788,246.71169660937267,None,None,None,,,,,,,16_IB,22,F,16,2021_Nov_03_1359,Partial repeat,2021.2.3,120.11178865782642,
6,6,0,1,1,3,3,3,3,0,1,1,1,0,1,0,0,40,40,40,,,,,,,,,,,,,,,,,,,,,,,,,,,,,,,,16_IB,22,F,16,2021_Nov_03_1359,Partial repeat,2021.2.3,120.11178865782642,
6,6,0,1,1,3,2,3,3,0,1,0,1,0,1,0,0,41,41,41,0,0,0,0,,,,,,,247.21125017879604,None,0.9841665208709225,247.59427125660477,None,"[93. 87. 87. 87. 93. 93. 93. 93. 93. 87. 93. 87. 93. 93. 87. 87. 87. 93.
 87. 87. 87. 93. 87. 87. 93. 87. 93. 87. 87. 93. 93. 93. 87. 87.]",248.68500281905472,None,s,1,0.4492259714861575,248.68500281905472,None,None,None,,,,,,,16_IB,22,F,16,2021_Nov_03_1359,Partial repeat,2021.2.3,120.11178865782642,
6,6,0,1,1,3,2,3,3,0,1,0,1,0,1,0,0,41,41,41,1,0,1,0,,,,,,,,,0.7197704032973272,249.2012013215881,None,"[93. 87. 87. 93. 87. 87. 93. 87. 87. 87. 93. 87. 93. 93. 87. 93. 87. 93.
 93. 87. 87. 87. 87. 93. 87. 87. 87. 87. 87. 87. 93. 87. 93. 87.]",250.00885933780592,None,l,1,0.5493919076798193,250.00885933780592,None,None,None,,,,,,,16_IB,22,F,16,2021_Nov_03_1359,Partial repeat,2021.2.3,120.11178865782642,
6,6,0,1,1,3,2,3,3,0,1,0,1,0,1,0,0,41,41,41,,,,,,,,,,,,,,,,,,,,,,,,,,,,,,,,16_IB,22,F,16,2021_Nov_03_1359,Partial repeat,2021.2.3,120.11178865782642,
6,6,0,1,1,2,2,3,2,0,0,1,0,1,1,0,0,42,42,42,0,0,0,0,,,,,,,250.57503721858302,None,0.8863233692297203,250.9830183196882,None,"[87. 93. 93. 87. 93. 87. 87. 87. 87. 93. 93. 93. 93. 93. 87. 87. 87. 93.
 87. 87. 87. 87. 87. 93. 93. 93. 93. 87. 93. 87. 93. 87. 93. 93.]",251.95715998314336,None,s,1,0.4254012673281977,251.95715998314336,None,None,None,,,,,,,16_IB,22,F,16,2021_Nov_03_1359,Partial repeat,2021.2.3,120.11178865782642,
6,6,0,1,1,2,2,3,2,0,0,1,0,1,1,0,0,42,42,42,1,0,1,0,,,,,,,,,0.7207825833843644,252.45674273732402,None,"[93. 93. 93. 87. 93. 93. 87. 93. 87. 93. 87. 93. 93. 93. 87. 87. 93. 93.
 87. 87. 87. 93. 93. 87. 87. 87. 93. 93. 93. 87. 93. 87. 93. 93.]",253.25604974365524,None,s,1,0.7262733463667246,253.25604974365524,None,None,None,,,,,,,16_IB,22,F,16,2021_Nov_03_1359,Partial repeat,2021.2.3,120.11178865782642,
6,6,0,1,1,2,2,3,2,0,0,1,0,1,1,0,0,42,42,42,,,,,,,,,,,,,,,,,,,,,,,,,,,,,,,,16_IB,22,F,16,2021_Nov_03_1359,Partial repeat,2021.2.3,120.11178865782642,
6,6,0,1,1,3,2,2,3,1,1,0,0,1,1,0,0,43,43,43,0,0,0,0,,,,,,,254.01373287159367,None,0.9308920990772578,256.4699833165814,None,"[87. 93. 87. 93. 93. 93. 87. 93. 87. 93. 87. 93. 87. 87. 93. 87. 93. 87.
 93. 93. 93. 93. 93. 87. 87. 87. 93. 93. 93. 93. 93. 93. 93. 93.]",257.4774174119466,None,l,1,0.48789128517819336,257.4774174119466,None,None,None,,,,,,,16_IB,22,F,16,2021_Nov_03_1359,Partial repeat,2021.2.3,120.11178865782642,
6,6,0,1,1,3,2,2,3,1,1,0,0,1,1,0,0,43,43,43,1,0,1,0,,,,,,,,,0.931499062504673,258.03525390418145,None,"[87. 93. 93. 93. 93. 87. 87. 87. 87. 93. 87. 93. 93. 93. 87. 87. 93. 93.
 87. 87. 93. 87. 93. 87. 93. 87. 93. 93. 87. 87. 93. 93. 93. 93.]",259.04272007070904,None,l,1,0.47540694392228033,259.04272007070904,None,None,None,,,,,,,16_IB,22,F,16,2021_Nov_03_1359,Partial repeat,2021.2.3,120.11178865782642,
6,6,0,1,1,3,2,2,3,1,1,0,0,1,1,0,0,43,43,43,,,,,,,,,,,,,,,,,,,,,,,,,,,,,,,,16_IB,22,F,16,2021_Nov_03_1359,Partial repeat,2021.2.3,120.11178865782642,
6,6,0,1,1,3,2,3,2,1,0,0,0,0,1,0,0,44,44,44,0,0,0,0,,,,,,,259.5339941489365,None,0.7917297617952097,259.8253943309719,None,"[87. 87. 93. 87. 93. 87. 93. 87. 87. 93. 87. 93. 93. 93. 87. 93. 87. 93.
 87. 87. 87. 87. 87. 87. 93. 87. 93. 87. 87. 87. 93. 93. 87. 87.]",260.6913006331488,None,l,1,0.6980449509428581,260.6913006331488,None,None,None,,,,,,,16_IB,22,F,16,2021_Nov_03_1359,Partial repeat,2021.2.3,120.11178865782642,
6,6,0,1,1,3,2,3,2,1,0,0,0,0,1,0,0,44,44,44,1,0,1,0,,,,,,,,,0.8772017642647253,261.4490097387279,None,"[93. 87. 93. 87. 87. 93. 87. 93. 93. 87. 93. 87. 87. 87. 93. 87. 87. 87.
 93. 93. 87. 87. 87. 93. 93. 87. 87. 87. 93. 87. 87. 93. 93. 93.]",262.4064865849523,None,l,0,0.45484195267454197,262.4064865849523,None,262.87276247520094,None,,,,,,,16_IB,22,F,16,2021_Nov_03_1359,Partial repeat,2021.2.3,120.11178865782642,
6,6,0,1,1,3,2,3,2,1,0,0,0,0,1,0,0,44,44,44,,,,,,,,,,,,,,,,,,,,,,,,,,,,,,,,16_IB,22,F,16,2021_Nov_03_1359,Partial repeat,2021.2.3,120.11178865782642,
6,6,0,1,1,3,2,2,2,1,0,0,1,0,1,0,0,45,45,45,0,0,0,0,,,,,,,263.3723176481817,None,0.7074877955199456,264.0634027631222,None,"[93. 93. 87. 87. 93. 93. 93. 87. 87. 87. 93. 87. 87. 87. 93. 93. 87. 93.
 87. 87. 93. 87. 87. 87. 93. 87. 93. 93. 93. 87. 87. 93. 93. 87.]",264.8460699677289,None,l,1,0.5593140837972896,264.8460699677289,None,None,None,,,,,,,16_IB,22,F,16,2021_Nov_03_1359,Partial repeat,2021.2.3,120.11178865782642,
6,6,0,1,1,3,2,2,2,1,0,0,1,0,1,0,0,45,45,45,1,0,1,0,,,,,,,,,0.8999663203451476,265.4788561242767,None,"[87. 87. 93. 93. 93. 93. 87. 87. 93. 93. 87. 93. 87. 93. 87. 87. 87. 93.
 87. 87. 93. 93. 87. 87. 93. 87. 87. 87. 87. 93. 93. 93. 87. 87.]",266.45301895469674,None,s,1,0.6003885831833031,266.45301895469674,None,None,None,,,,,,,16_IB,22,F,16,2021_Nov_03_1359,Partial repeat,2021.2.3,120.11178865782642,
6,6,0,1,1,3,2,2,2,1,0,0,1,0,1,0,0,45,45,45,,,,,,,,,,,,,,,,,,,,,,,,,,,,,,,,16_IB,22,F,16,2021_Nov_03_1359,Partial repeat,2021.2.3,120.11178865782642,
6,6,0,1,1,2,3,3,3,0,0,0,1,1,1,0,0,46,46,46,0,0,0,0,,,,,,,267.0691560088835,None,0.7623540150254164,267.42717633302163,None,"[93. 87. 87. 93. 93. 93. 93. 93. 87. 87. 87. 87. 87. 87. 87. 93. 87. 93.
 93. 93. 93. 93. 87. 87. 87. 93. 87. 93. 93. 87. 93. 87. 93. 93.]",268.26812132905434,None,s,1,0.5453037966508418,268.26812132905434,None,None,None,,,,,,,16_IB,22,F,16,2021_Nov_03_1359,Partial repeat,2021.2.3,120.11178865782642,
6,6,0,1,1,2,3,3,3,0,0,0,1,1,1,0,0,46,46,46,1,0,1,0,,,,,,,,,0.8214435150015731,268.8842538932786,None,"[87. 93. 93. 87. 93. 93. 93. 87. 93. 93. 93. 93. 87. 87. 93. 87. 93. 93.
 87. 93. 93. 87. 93. 87. 87. 87. 87. 87. 87. 87. 87. 87. 87. 87.]",269.7834670593875,None,s,1,0.43700846229876333,269.7834670593875,None,None,None,,,,,,,16_IB,22,F,16,2021_Nov_03_1359,Partial repeat,2021.2.3,120.11178865782642,
6,6,0,1,1,2,3,3,3,0,0,0,1,1,1,0,0,46,46,46,,,,,,,,,,,,,,,,,,,,,,,,,,,,,,,,16_IB,22,F,16,2021_Nov_03_1359,Partial repeat,2021.2.3,120.11178865782642,
6,6,0,1,1,3,2,3,2,0,0,0,0,1,1,0,0,47,47,47,0,0,0,0,,,,,,,270.24139450543953,None,0.8836968053228281,270.574458013396,None,"[87. 93. 93. 87. 93. 93. 93. 93. 87. 87. 93. 87. 87. 93. 87. 87. 87. 87.
 87. 93. 93. 93. 93. 87. 87. 93. 87. 87. 93. 87. 93. 93. 87. 93.]",271.54029966010967,None,s,1,0.5041366116074641,271.54029966010967,None,None,None,,,,,,,16_IB,22,F,16,2021_Nov_03_1359,Partial repeat,2021.2.3,120.11178865782642,
6,6,0,1,1,3,2,3,2,0,0,0,0,1,1,0,0,47,47,47,1,0,1,0,,,,,,,,,0.8550027300312034,272.1147945553421,None,"[87. 93. 87. 93. 87. 93. 93. 87. 93. 87. 93. 87. 87. 87. 93. 93. 87. 93.
 87. 87. 93. 93. 87. 93. 87. 87. 93. 87. 93. 87. 87. 93. 87. 93.]",273.0473213203313,None,s,1,0.39020541194804537,273.0473213203313,None,None,None,,,,,,,16_IB,22,F,16,2021_Nov_03_1359,Partial repeat,2021.2.3,120.11178865782642,
6,6,0,1,1,3,2,3,2,0,0,0,0,1,1,0,0,47,47,47,,,,,,,,,,,,,,,,,,,,,,,,,,,,,,,,16_IB,22,F,16,2021_Nov_03_1359,Partial repeat,2021.2.3,120.11178865782642,
6,6,0,1,1,2,3,3,2,0,0,0,0,1,1,0,0,48,48,48,0,0,0,0,,,,,,,273.4552831787387,None,0.8816835249850583,274.0714276092931,None,"[93. 93. 87. 87. 93. 87. 93. 93. 87. 93. 93. 87. 93. 93. 93. 87. 93. 87.
 93. 93. 87. 93. 93. 87. 87. 87. 93. 93. 87. 87. 87. 93. 87. 93.]",275.0372830466058,None,s,1,0.5272146991137561,275.0372830466058,None,None,None,,,,,,,16_IB,22,F,16,2021_Nov_03_1359,Partial repeat,2021.2.3,120.11178865782642,
6,6,0,1,1,2,3,3,2,0,0,0,0,1,1,0,0,48,48,48,1,0,1,0,,,,,,,,,0.8036865177167258,275.6367588113899,None,"[87. 93. 93. 93. 87. 87. 87. 87. 87. 87. 93. 93. 93. 87. 93. 93. 87. 87.
 87. 87. 93. 93. 87. 87. 93. 87. 87. 87. 93. 93. 93. 87. 93. 87.]",276.51931453663747,None,s,1,0.4851729334823176,276.51931453663747,None,None,None,,,,,,,16_IB,22,F,16,2021_Nov_03_1359,Partial repeat,2021.2.3,120.11178865782642,
6,6,0,1,1,2,3,3,2,0,0,0,0,1,1,0,0,48,48,48,,,,,,,,,,,,,,,,,,,,,,,,,,,,,,,,16_IB,22,F,16,2021_Nov_03_1359,Partial repeat,2021.2.3,120.11178865782642,
6,6,0,1,1,2,3,3,2,0,1,0,0,0,1,0,0,49,49,49,0,0,0,0,,,,,,,277.03555184527795,None,0.891869346708614,277.38525804136225,None,"[93. 93. 93. 87. 87. 93. 87. 87. 87. 87. 87. 93. 93. 93. 93. 87. 93. 93.
 93. 87. 93. 93. 87. 87. 87. 87. 93. 93. 87. 93. 93. 93. 93. 87.]",278.35941670253305,None,s,1,0.4690751343987358,278.35941670253305,None,None,None,,,,,,,16_IB,22,F,16,2021_Nov_03_1359,Partial repeat,2021.2.3,120.11178865782642,
6,6,0,1,1,2,3,3,2,0,1,0,0,0,1,0,0,49,49,49,1,0,1,0,,,,,,,,,0.9929879162743129,278.88396140428085,None,"[93. 93. 87. 87. 93. 93. 87. 87. 87. 87. 87. 87. 93. 93. 93. 87. 87. 93.
 93. 87. 93. 93. 93. 93. 87. 93. 93. 87. 93. 93. 93. 87. 93. 93.]",279.9580554099866,None,l,1,0.6315534142031538,279.9580554099866,None,None,None,,,,,,,16_IB,22,F,16,2021_Nov_03_1359,Partial repeat,2021.2.3,120.11178865782642,
6,6,0,1,1,2,3,3,2,0,1,0,0,0,1,0,0,49,49,49,,,,,,,,,,,,,,,,,,,,,,,,,,,,,,,,16_IB,22,F,16,2021_Nov_03_1359,Partial repeat,2021.2.3,120.11178865782642,
6,6,0,1,1,3,2,2,3,1,0,0,0,0,1,0,0,50,50,50,0,0,0,0,,,,,,,280.59913324477384,None,0.9277111369612252,280.8988940580475,None,"[93. 93. 93. 93. 93. 93. 93. 93. 93. 87. 93. 93. 93. 93. 87. 93. 93. 93.
 93. 87. 93. 87. 87. 93. 93. 87. 93. 93. 93. 87. 87. 93. 93. 93.]",281.90636599738355,None,l,1,0.4901728276454378,281.90636599738355,None,None,None,,,,,,,16_IB,22,F,16,2021_Nov_03_1359,Partial repeat,2021.2.3,120.11178865782642,
6,6,0,1,1,3,2,2,3,1,0,0,0,0,1,0,0,50,50,50,1,0,1,0,,,,,,,,,0.7751996466528351,282.46423135366604,None,"[93. 93. 87. 93. 87. 87. 93. 87. 93. 93. 93. 93. 93. 93. 93. 87. 93. 93.
 87. 93. 87. 93. 93. 87. 87. 93. 93. 87. 87. 93. 93. 87. 87. 87.]",283.321793701607,None,s,1,0.6107453235472349,283.321793701607,None,None,None,,,,,,,16_IB,22,F,16,2021_Nov_03_1359,Partial repeat,2021.2.3,120.11178865782642,
6,6,0,1,1,3,2,2,3,1,0,0,0,0,1,0,0,50,50,50,,,,,,,,,,,,,,,,,,,,,,,,,,,,,,,,16_IB,22,F,16,2021_Nov_03_1359,Partial repeat,2021.2.3,120.11178865782642,
6,6,0,1,1,3,2,2,2,1,1,0,1,1,1,0,0,51,51,51,0,0,0,0,,,,,,,283.9629122667702,None,0.7161688328990202,286.0194809859695,None,"[93. 93. 87. 87. 93. 87. 87. 93. 87. 87. 87. 87. 93. 87. 87. 93. 93. 93.
 93. 87. 87. 93. 93. 93. 87. 87. 93. 87. 93. 93. 93. 87. 87. 87.]",286.81046007364785,None,l,1,0.5612941573417629,286.81046007364785,None,None,None,,,,,,,16_IB,22,F,16,2021_Nov_03_1359,Partial repeat,2021.2.3,120.11178865782642,
6,6,0,1,1,3,2,2,2,1,1,0,1,1,1,0,0,51,51,51,1,0,1,0,,,,,,,,,0.8747506440988069,287.44327830135626,None,"[93. 87. 87. 93. 87. 87. 87. 93. 93. 87. 87. 93. 87. 87. 87. 93. 93. 87.
 87. 87. 93. 93. 93. 87. 93. 93. 93. 87. 93. 87. 87. 87. 87. 87.]",288.39244101952863,None,l,1,0.7391595392818999,288.39244101952863,None,None,None,,,,,,,16_IB,22,F,16,2021_Nov_03_1359,Partial repeat,2021.2.3,120.11178865782642,
6,6,0,1,1,3,2,2,2,1,1,0,1,1,1,0,0,51,51,51,,,,,,,,,,,,,,,,,,,,,,,,,,,,,,,,16_IB,22,F,16,2021_Nov_03_1359,Partial repeat,2021.2.3,120.11178865782642,
6,6,0,1,1,3,3,3,2,0,1,1,0,0,1,0,0,52,52,52,0,0,0,0,,,,,,,289.1584408412127,None,0.9363526870121281,289.7163042732245,None,"[93. 93. 93. 87. 93. 87. 87. 93. 87. 87. 93. 87. 93. 87. 87. 93. 93. 93.
 87. 87. 87. 87. 93. 87. 93. 87. 93. 93. 93. 87. 87. 93. 87. 87.]",290.74041954211316,None,s,1,0.3750565985483263,290.74041954211316,None,None,None,,,,,,,16_IB,22,F,16,2021_Nov_03_1359,Partial repeat,2021.2.3,120.11178865782642,
6,6,0,1,1,3,3,3,2,0,1,1,0,0,1,0,0,52,52,52,1,0,1,0,,,,,,,,,0.9895214461245598,291.17337092928756,None,"[87. 87. 87. 87. 93. 93. 93. 87. 93. 87. 93. 87. 87. 93. 87. 93. 93. 93.
 93. 93. 93. 93. 87. 87. 93. 87. 93. 93. 87. 87. 93. 93. 93. 87.]",292.23912290502994,None,l,1,0.6529801575761667,292.23912290502994,None,None,None,,,,,,,16_IB,22,F,16,2021_Nov_03_1359,Partial repeat,2021.2.3,120.11178865782642,
6,6,0,1,1,3,3,3,2,0,1,1,0,0,1,0,0,52,52,52,,,,,,,,,,,,,,,,,,,,,,,,,,,,,,,,16_IB,22,F,16,2021_Nov_03_1359,Partial repeat,2021.2.3,120.11178865782642,
6,6,0,1,1,3,2,3,3,1,1,0,1,1,1,0,0,53,53,53,0,0,0,0,,,,,,,292.9135249221781,None,0.8110953699276827,293.2549038410343,None,"[93. 87. 87. 87. 87. 87. 87. 87. 93. 93. 93. 87. 93. 93. 87. 87. 87. 93.
 93. 87. 93. 87. 87. 87. 87. 93. 87. 87. 93. 93. 87. 87. 87. 93.]",294.15412951489816,None,l,1,0.5615234661509021,294.15412951489816,None,None,None,,,,,,,16_IB,22,F,16,2021_Nov_03_1359,Partial repeat,2021.2.3,120.11178865782642,
6,6,0,1,1,3,2,3,3,1,1,0,1,1,1,0,0,53,53,53,1,0,1,0,,,,,,,,,0.8741404156574819,294.78691759571484,None,"[87. 93. 87. 93. 93. 93. 93. 87. 93. 87. 87. 87. 93. 87. 87. 87. 87. 93.
 93. 87. 87. 87. 87. 93. 93. 87. 93. 87. 93. 87. 93. 87. 87. 93.]",295.73611687501034,None,s,0,0.339568895593402,295.73611687501034,None,296.08579548989655,None,,,,,,,16_IB,22,F,16,2021_Nov_03_1359,Partial repeat,2021.2.3,120.11178865782642,
6,6,0,1,1,3,2,3,3,1,1,0,1,1,1,0,0,53,53,53,,,,,,,,,,,,,,,,,,,,,,,,,,,,,,,,16_IB,22,F,16,2021_Nov_03_1359,Partial repeat,2021.2.3,120.11178865782642,
6,6,0,1,1,2,2,2,2,0,1,1,1,0,1,0,0,54,54,54,0,0,0,0,,,,,,,296.58540005246687,None,0.9385259314387794,297.15154554137007,None,"[87. 93. 93. 93. 87. 93. 87. 87. 87. 87. 93. 93. 93. 87. 87. 87. 93. 93.
 93. 93. 93. 87. 93. 93. 93. 93. 93. 87. 93. 93. 93. 87. 93. 87.]",298.1756543960255,None,s,1,0.6837915643882297,298.1756543960255,None,None,None,,,,,,,16_IB,22,F,16,2021_Nov_03_1359,Partial repeat,2021.2.3,120.11178865782642,
6,6,0,1,1,2,2,2,2,0,1,1,1,0,1,0,0,54,54,54,1,0,1,0,,,,,,,,,0.7415890668810219,298.93336286018166,None,"[87. 87. 87. 93. 93. 93. 87. 87. 87. 93. 93. 87. 93. 93. 93. 93. 93. 93.
 93. 93. 87. 93. 93. 87. 87. 87. 87. 93. 93. 93. 93. 87. 93. 87.]",299.7493144789096,None,l,1,0.7104279473278439,299.7493144789096,None,None,None,,,,,,,16_IB,22,F,16,2021_Nov_03_1359,Partial repeat,2021.2.3,120.11178865782642,
6,6,0,1,1,2,2,2,2,0,1,1,1,0,1,0,0,54,54,54,,,,,,,,,,,,,,,,,,,,,,,,,,,,,,,,16_IB,22,F,16,2021_Nov_03_1359,Partial repeat,2021.2.3,120.11178865782642,
6,6,0,1,1,3,2,3,2,1,1,0,0,1,1,0,0,55,55,55,0,0,0,0,,,,,,,300.4903308653502,None,0.9840835646718503,300.7900669838291,None,"[87. 87. 87. 87. 93. 87. 93. 87. 93. 87. 93. 87. 93. 93. 93. 93. 87. 87.
 87. 87. 93. 93. 93. 87. 87. 87. 87. 87. 93. 93. 87. 87. 93. 87.]",301.86415040605243,None,l,1,0.46667332507058745,301.86415040605243,None,None,None,,,,,,,16_IB,22,F,16,2021_Nov_03_1359,Partial repeat,2021.2.3,120.11178865782642,
6,6,0,1,1,3,2,3,2,1,1,0,0,1,1,0,0,55,55,55,1,0,1,0,,,,,,,,,0.9163464127759806,302.3970230264531,None,"[93. 87. 87. 87. 87. 87. 93. 87. 93. 87. 87. 87. 87. 87. 87. 93. 93. 93.
 87. 87. 93. 87. 87. 87. 93. 87. 87. 87. 93. 87. 87. 87. 87. 87.]",303.38781924436444,None,l,1,0.4634302891627158,303.38781924436444,None,None,None,,,,,,,16_IB,22,F,16,2021_Nov_03_1359,Partial repeat,2021.2.3,120.11178865782642,
6,6,0,1,1,3,2,3,2,1,1,0,0,1,1,0,0,55,55,55,,,,,,,,,,,,,,,,,,,,,,,,,,,,,,,,16_IB,22,F,16,2021_Nov_03_1359,Partial repeat,2021.2.3,120.11178865782642,
6,6,0,1,1,3,3,3,2,0,0,1,0,1,1,0,0,56,56,56,0,0,0,0,,,,,,,303.87073589847023,None,0.8984312586753969,304.2787182824213,None,"[87. 87. 87. 87. 93. 87. 87. 93. 93. 87. 87. 87. 87. 87. 87. 87. 93. 93.
 87. 87. 87. 87. 93. 87. 87. 87. 93. 87. 87. 93. 93. 87. 87. 87.]",305.2528952241537,None,s,1,0.629869036771197,305.2528952241537,None,None,None,,,,,,,16_IB,22,F,16,2021_Nov_03_1359,Partial repeat,2021.2.3,120.11178865782642,
6,6,0,1,1,3,3,3,2,0,0,1,0,1,1,0,0,56,56,56,1,0,1,0,,,,,,,,,0.988438400553906,305.95229703283985,None,"[87. 93. 87. 93. 93. 87. 93. 93. 93. 87. 93. 87. 87. 87. 87. 93. 93. 87.
 93. 93. 87. 87. 93. 87. 93. 93. 93. 93. 87. 93. 87. 93. 93. 87.]",307.01804708431337,None,s,1,0.4327394699175784,307.01804708431337,None,None,None,,,,,,,16_IB,22,F,16,2021_Nov_03_1359,Partial repeat,2021.2.3,120.11178865782642,
6,6,0,1,1,3,3,3,2,0,0,1,0,1,1,0,0,56,56,56,,,,,,,,,,,,,,,,,,,,,,,,,,,,,,,,16_IB,22,F,16,2021_Nov_03_1359,Partial repeat,2021.2.3,120.11178865782642,
6,6,0,1,1,2,2,2,3,1,0,1,0,0,1,0,0,57,57,57,0,0,0,0,,,,,,,307.45932414515846,None,0.9496455081872113,307.7923716175337,None,"[93. 93. 93. 93. 93. 93. 87. 93. 87. 87. 87. 87. 93. 87. 87. 87. 93. 87.
 93. 93. 87. 93. 87. 87. 87. 93. 87. 93. 87. 93. 87. 87. 87. 93.]",308.8164926592308,None,l,1,0.618279801648896,308.8164926592308,None,None,None,,,,,,,16_IB,22,F,16,2021_Nov_03_1359,Partial repeat,2021.2.3,120.11178865782642,
6,6,0,1,1,2,2,2,3,1,0,1,0,0,1,0,0,57,57,57,1,0,1,0,,,,,,,,,0.8788949572990605,309.5075466651433,None,"[87. 87. 93. 87. 87. 93. 87. 93. 87. 87. 93. 87. 87. 93. 93. 87. 93. 93.
 93. 87. 87. 93. 93. 87. 93. 93. 93. 87. 87. 93. 87. 93. 93. 93.]",310.4650767494968,None,s,1,0.6494863251809875,310.4650767494968,None,None,None,,,,,,,16_IB,22,F,16,2021_Nov_03_1359,Partial repeat,2021.2.3,120.11178865782642,
6,6,0,1,1,2,2,2,3,1,0,1,0,0,1,0,0,57,57,57,,,,,,,,,,,,,,,,,,,,,,,,,,,,,,,,16_IB,22,F,16,2021_Nov_03_1359,Partial repeat,2021.2.3,120.11178865782642,
6,6,0,1,1,3,3,2,2,1,0,1,1,0,1,0,0,58,58,58,0,0,0,0,,,,,,,311.1394928779555,None,0.7192545712827343,311.43090075707187,None,"[87. 87. 93. 87. 93. 93. 87. 93. 93. 93. 87. 93. 93. 93. 93. 93. 87. 93.
 87. 93. 87. 87. 87. 87. 87. 93. 87. 93. 93. 93. 87. 87. 87. 93.]",312.2302141776345,None,s,0,0.5646253889462969,312.2302141776345,None,312.80471099713577,None,,,,,,,16_IB,22,F,16,2021_Nov_03_1359,Partial repeat,2021.2.3,120.11178865782642,
6,6,0,1,1,3,3,2,2,1,0,1,1,0,1,0,0,58,58,58,1,0,1,0,,,,,,,,,0.9763756953618296,313.3375974081355,None,"[93. 93. 93. 93. 87. 93. 93. 93. 87. 87. 87. 87. 87. 93. 87. 87. 87. 93.
 93. 93. 87. 93. 93. 93. 93. 87. 93. 87. 93. 93. 93. 93. 93. 87.]",314.3950256344797,None,s,1,0.41582481833575,314.3950256344797,None,None,None,,,,,,,16_IB,22,F,16,2021_Nov_03_1359,Partial repeat,2021.2.3,120.11178865782642,
6,6,0,1,1,3,3,2,2,1,0,1,1,0,1,0,0,58,58,58,,,,,,,,,,,,,,,,,,,,,,,,,,,,,,,,16_IB,22,F,16,2021_Nov_03_1359,Partial repeat,2021.2.3,120.11178865782642,
6,6,0,1,1,2,2,3,3,0,1,1,1,0,1,0,0,59,59,59,0,0,0,0,,,,,,,314.82796258963026,None,0.9266992064401396,315.1776700685605,None,"[87. 93. 93. 87. 93. 93. 87. 87. 87. 93. 87. 93. 87. 93. 87. 93. 93. 87.
 93. 93. 93. 87. 87. 93. 87. 93. 93. 93. 93. 93. 93. 93. 87. 93.]",316.18512340662346,None,s,1,0.4017596895027964,316.18512340662346,None,None,None,,,,,,,16_IB,22,F,16,2021_Nov_03_1359,Partial repeat,2021.2.3,120.11178865782642,
6,6,0,1,1,2,2,3,3,0,1,1,1,0,1,0,0,59,59,59,1,0,1,0,,,,,,,,,0.8243038216444342,316.6514009004295,None,"[93. 93. 93. 93. 93. 87. 87. 93. 87. 93. 93. 93. 93. 93. 93. 93. 93. 87.
 93. 93. 93. 93. 87. 87. 87. 93. 87. 93. 87. 87. 93. 93. 87. 93.]",317.55063747848726,None,s,0,0.41133421422455285,317.55063747848726,None,317.9752641541254,None,,,,,,,16_IB,22,F,16,2021_Nov_03_1359,Partial repeat,2021.2.3,120.11178865782642,
6,6,0,1,1,2,2,3,3,0,1,1,1,0,1,0,0,59,59,59,,,,,,,,,,,,,,,,,,,,,,,,,,,,,,,,16_IB,22,F,16,2021_Nov_03_1359,Partial repeat,2021.2.3,120.11178865782642,
6,6,0,1,1,2,2,2,3,0,0,1,0,1,1,0,0,60,60,60,0,0,0,0,,,,,,,318.4748141957225,None,0.8294222447675604,318.8744872622956,None,"[87. 87. 93. 93. 93. 93. 93. 93. 87. 93. 87. 87. 87. 93. 93. 87. 87. 87.
 93. 87. 87. 87. 93. 93. 87. 87. 93. 93. 93. 87. 93. 93. 93. 93.]",319.78203796840717,None,s,1,0.5318666211715026,319.78203796840717,None,None,None,,,,,,,16_IB,22,F,16,2021_Nov_03_1359,Partial repeat,2021.2.3,120.11178865782642,
6,6,0,1,1,2,2,2,3,0,0,1,0,1,1,0,0,60,60,60,1,0,1,0,,,,,,,,,0.9421355490424537,320.37319094592567,None,"[87. 93. 87. 93. 93. 93. 93. 93. 93. 93. 87. 93. 93. 87. 87. 87. 87. 93.
 93. 93. 93. 87. 87. 87. 93. 87. 93. 87. 93. 87. 93. 93. 93. 87.]",321.3973161568738,None,s,1,0.4685953498137678,321.3973161568738,None,None,None,,,,,,,16_IB,22,F,16,2021_Nov_03_1359,Partial repeat,2021.2.3,120.11178865782642,
6,6,0,1,1,2,2,2,3,0,0,1,0,1,1,0,0,60,60,60,,,,,,,,,,,,,,,,,,,,,,,,,,,,,,,,16_IB,22,F,16,2021_Nov_03_1359,Partial repeat,2021.2.3,120.11178865782642,
6,6,0,1,1,3,2,2,2,0,1,0,1,0,1,0,0,61,61,61,0,0,0,0,,,,,,,321.8885584846503,None,0.9126682618670884,322.1882913960126,None,"[93. 93. 93. 87. 93. 87. 87. 93. 87. 87. 93. 93. 87. 87. 93. 93. 93. 93.
 87. 93. 87. 87. 93. 87. 93. 87. 93. 93. 93. 87. 87. 93. 93. 87.]",323.1791062151988,None,l,0,0.5748442233143578,323.1791062151988,None,323.7702620791206,None,,,,,,,16_IB,22,F,16,2021_Nov_03_1359,Partial repeat,2021.2.3,120.11178865782642,
6,6,0,1,1,3,2,2,2,0,1,0,1,0,1,0,0,61,61,61,1,0,1,0,,,,,,,,,0.8949994680141067,324.30312860600134,None,"[87. 87. 87. 87. 93. 87. 87. 87. 87. 93. 93. 87. 87. 93. 87. 93. 87. 87.
 87. 93. 93. 87. 93. 87. 87. 93. 87. 87. 87. 93. 87. 87. 87. 87.]",325.2773004163464,None,l,1,0.6206636511251418,325.2773004163464,None,None,None,,,,,,,16_IB,22,F,16,2021_Nov_03_1359,Partial repeat,2021.2.3,120.11178865782642,
6,6,0,1,1,3,2,2,2,0,1,0,1,0,1,0,0,61,61,61,,,,,,,,,,,,,,,,,,,,,,,,,,,,,,,,16_IB,22,F,16,2021_Nov_03_1359,Partial repeat,2021.2.3,120.11178865782642,
6,6,0,1,1,3,2,2,2,0,0,0,1,1,1,0,0,62,62,62,0,0,0,0,,,,,,,325.9184093601598,None,0.7529960112546259,327.37548980682186,None,"[87. 87. 87. 87. 87. 93. 87. 93. 93. 87. 93. 93. 93. 87. 87. 87. 93. 87.
 93. 87. 93. 87. 93. 93. 87. 87. 87. 93. 87. 93. 93. 93. 93. 87.]",328.20811137416604,None,s,1,0.4098650342912151,328.20811137416604,None,None,None,,,,,,,16_IB,22,F,16,2021_Nov_03_1359,Partial repeat,2021.2.3,120.11178865782642,
6,6,0,1,1,3,2,2,2,0,0,0,1,1,1,0,0,62,62,62,1,0,1,0,,,,,,,,,0.9040828799083,328.68271935231496,None,"[87. 87. 87. 93. 87. 93. 93. 93. 93. 93. 87. 93. 87. 87. 93. 87. 87. 87.
 87. 93. 93. 87. 87. 93. 87. 93. 87. 87. 93. 87. 87. 87. 93. 87.]",329.6651825201898,None,s,1,0.39201005623544916,329.6651825201898,None,None,None,,,,,,,16_IB,22,F,16,2021_Nov_03_1359,Partial repeat,2021.2.3,120.11178865782642,
6,6,0,1,1,3,2,2,2,0,0,0,1,1,1,0,0,62,62,62,,,,,,,,,,,,,,,,,,,,,,,,,,,,,,,,16_IB,22,F,16,2021_Nov_03_1359,Partial repeat,2021.2.3,120.11178865782642,
6,6,0,1,1,3,3,3,2,1,1,1,0,1,1,0,0,63,63,63,0,0,0,0,,,,,,,330.0898252314091,None,0.9217778595704588,330.51443555075457,None,"[93. 87. 87. 93. 87. 87. 93. 87. 93. 93. 87. 93. 87. 93. 87. 93. 87. 93.
 93. 87. 93. 93. 93. 87. 93. 93. 87. 87. 87. 87. 87. 93. 93. 93.]",331.51358758923016,None,l,1,0.4955110725713894,331.51358758923016,None,None,None,,,,,,,16_IB,22,F,16,2021_Nov_03_1359,Partial repeat,2021.2.3,120.11178865782642,
6,6,0,1,1,3,3,3,2,1,1,1,0,1,1,0,0,63,63,63,1,0,1,0,,,,,,,,,0.7470279755297086,332.0714401170462,None,"[93. 87. 87. 93. 93. 87. 87. 93. 87. 87. 93. 87. 87. 87. 87. 87. 87. 93.
 87. 93. 87. 87. 93. 93. 87. 93. 93. 93. 93. 87. 93. 87. 93. 93.]",332.8957135609053,None,l,1,0.5374069144181703,332.8957135609053,None,None,None,,,,,,,16_IB,22,F,16,2021_Nov_03_1359,Partial repeat,2021.2.3,120.11178865782642,
6,6,0,1,1,3,3,3,2,1,1,1,0,1,1,0,0,63,63,63,,,,,,,,,,,,,,,,,,,,,,,,,,,,,,,,16_IB,22,F,16,2021_Nov_03_1359,Partial repeat,2021.2.3,120.11178865782642,
2,3,0,1,1,3,3,2,3,0,0,1,0,1,0,0,0,64,64,64,0,0,0,0,,,,,,,334.5193257615447,None,0.7644705843270564,344.2609354644828,None,"[93. 87. 93. 93. 93. 93. 93. 87. 93. 93. 87. 87. 93. 87. 93. 87. 93. 87.
 93. 93. 93. 87. 93. 93. 87. 87. 93. 93. 93. 87. 93. 93. 93. 93.]",345.1018827054977,None,s,1,0.6992697486239194,345.1018827054977,None,None,None,,,,,,,16_IB,22,F,16,2021_Nov_03_1359,Partial repeat,2021.2.3,120.11178865782642,
2,3,0,1,1,3,3,2,3,0,0,1,0,1,0,0,0,64,64,64,1,0,1,0,,,,,,,,,0.8940040717062133,345.8595571742226,None,"[93. 93. 93. 87. 87. 93. 93. 87. 87. 87. 87. 93. 87. 87. 87. 93. 93. 87.
 87. 93. 87. 87. 87. 87. 87. 93. 87. 87. 87. 87. 93. 87. 87. 93.]",346.83371455254564,None,s,1,0.7105587976675452,346.83371455254564,None,None,None,,,,,,,16_IB,22,F,16,2021_Nov_03_1359,Partial repeat,2021.2.3,120.11178865782642,
2,3,0,1,1,3,3,2,3,0,0,1,0,1,0,0,0,64,64,64,,,,,,,,,,,,,,,,,,,,,,,,,,,,,,,,16_IB,22,F,16,2021_Nov_03_1359,Partial repeat,2021.2.3,120.11178865782642,
2,4,0,1,1,2,3,2,3,0,0,0,0,1,0,0,0,65,65,65,0,0,0,0,,,,,,,347.5664145659521,None,0.7688894938873707,348.20752832043945,None,"[93. 93. 87. 93. 93. 87. 87. 93. 87. 87. 93. 87. 87. 87. 87. 93. 93. 93.
 93. 93. 87. 87. 93. 93. 87. 93. 87. 93. 93. 93. 87. 93. 87. 87.]",349.05680508366277,None,s,1,0.455397104489748,349.05680508366277,None,None,None,,,,,,,16_IB,22,F,16,2021_Nov_03_1359,Partial repeat,2021.2.3,120.11178865782642,
2,4,0,1,1,2,3,2,3,0,0,0,0,1,0,0,0,65,65,65,1,0,1,0,,,,,,,,,0.8619425765639163,349.5813430504677,None,"[93. 87. 93. 93. 93. 87. 93. 93. 87. 93. 93. 93. 87. 93. 87. 87. 93. 87.
 93. 93. 93. 87. 87. 87. 87. 87. 93. 87. 87. 93. 93. 87. 93. 93.]",350.5221906784518,None,s,1,0.9578774881629215,350.5221906784518,None,None,None,,,,,,,16_IB,22,F,16,2021_Nov_03_1359,Partial repeat,2021.2.3,120.11178865782642,
2,4,0,1,1,2,3,2,3,0,0,0,0,1,0,0,0,65,65,65,,,,,,,,,,,,,,,,,,,,,,,,,,,,,,,,16_IB,22,F,16,2021_Nov_03_1359,Partial repeat,2021.2.3,120.11178865782642,
7,4,0,1,1,2,2,3,3,0,0,1,1,1,0,0,0,66,66,66,0,0,0,0,,,,,,,351.48803585299356,None,0.8921918272507363,352.5870754499738,None,"[87. 93. 87. 93. 93. 93. 87. 87. 93. 93. 93. 87. 93. 93. 93. 87. 87. 87.
 93. 87. 93. 93. 87. 93. 93. 93. 87. 93. 87. 93. 87. 87. 93. 93.]",353.5612341111446,None,s,1,0.4469896493574197,353.5612341111446,None,None,None,,,,,,,16_IB,22,F,16,2021_Nov_03_1359,Partial repeat,2021.2.3,120.11178865782642,
7,4,0,1,1,2,2,3,3,0,0,1,1,1,0,0,0,66,66,66,1,0,1,0,,,,,,,,,0.9926535012434403,354.07746981622586,None,"[93. 87. 93. 87. 93. 87. 87. 87. 87. 87. 93. 87. 87. 87. 87. 87. 93. 93.
 87. 87. 93. 93. 93. 93. 87. 87. 87. 87. 93. 87. 87. 93. 87. 93.]",355.1515513141785,None,s,1,0.44142305775858404,355.1515513141785,None,None,None,,,,,,,16_IB,22,F,16,2021_Nov_03_1359,Partial repeat,2021.2.3,120.11178865782642,
7,4,0,1,1,2,2,3,3,0,0,1,1,1,0,0,0,66,66,66,,,,,,,,,,,,,,,,,,,,,,,,,,,,,,,,16_IB,22,F,16,2021_Nov_03_1359,Partial repeat,2021.2.3,120.11178865782642,
1,5,0,1,1,2,2,3,3,1,0,1,1,0,0,0,0,67,67,67,0,0,0,0,,,,,,,355.6177976989584,None,0.9101872414964877,355.9841504317101,None,"[87. 93. 87. 87. 93. 93. 87. 93. 87. 93. 93. 93. 87. 93. 93. 93. 87. 93.
 87. 87. 93. 87. 87. 87. 87. 93. 87. 93. 87. 93. 87. 87. 93. 87.]",356.9749694201455,None,l,1,0.6973037863881473,356.9749694201455,None,None,None,,,,,,,16_IB,22,F,16,2021_Nov_03_1359,Partial repeat,2021.2.3,120.11178865782642,
1,5,0,1,1,2,2,3,3,1,0,1,1,0,0,0,0,67,67,67,1,0,1,0,,,,,,,,,0.9423386988904882,357.7326631315682,None,"[87. 87. 87. 87. 87. 87. 93. 87. 93. 93. 93. 93. 87. 87. 87. 87. 93. 87.
 87. 93. 87. 87. 93. 87. 93. 87. 93. 93. 87. 87. 93. 93. 87. 87.]",358.756768779107,None,s,1,0.5315199319102248,358.756768779107,None,None,None,,,,,,,16_IB,22,F,16,2021_Nov_03_1359,Partial repeat,2021.2.3,120.11178865782642,
1,5,0,1,1,2,2,3,3,1,0,1,1,0,0,0,0,67,67,67,,,,,,,,,,,,,,,,,,,,,,,,,,,,,,,,16_IB,22,F,16,2021_Nov_03_1359,Partial repeat,2021.2.3,120.11178865782642,
1,2,0,1,1,2,2,3,3,0,1,1,1,0,0,0,0,68,68,68,0,0,0,0,,,,,,,359.3062776734041,None,0.9309358152881261,359.8058629932784,None,"[93. 87. 87. 87. 87. 93. 93. 87. 93. 87. 93. 93. 87. 93. 87. 87. 93. 87.
 93. 87. 93. 93. 93. 93. 87. 87. 93. 87. 87. 93. 87. 93. 87. 93.]",360.8133330083456,None,s,1,0.5389617243545217,360.8133330083456,None,None,None,,,,,,,16_IB,22,F,16,2021_Nov_03_1359,Partial repeat,2021.2.3,120.11178865782642,
1,2,0,1,1,2,2,3,3,0,1,1,1,0,0,0,0,68,68,68,1,0,1,0,,,,,,,,,0.7905292373351984,361.4128094145526,None,"[87. 87. 87. 93. 93. 93. 93. 93. 87. 87. 93. 93. 87. 87. 93. 87. 93. 87.
 87. 87. 87. 87. 93. 93. 93. 93. 93. 93. 93. 93. 87. 93. 87. 87.]",362.278734638714,None,s,0,0.4495726607474353,362.278734638714,None,362.7450336201982,None,,,,,,,16_IB,22,F,16,2021_Nov_03_1359,Partial repeat,2021.2.3,120.11178865782642,
1,2,0,1,1,2,2,3,3,0,1,1,1,0,0,0,0,68,68,68,,,,,,,,,,,,,,,,,,,,,,,,,,,,,,,,16_IB,22,F,16,2021_Nov_03_1359,Partial repeat,2021.2.3,120.11178865782642,
3,6,0,1,1,3,2,3,2,1,1,0,0,1,0,0,0,69,69,69,0,0,0,0,,,,,,,363.2445615326924,None,0.9093139240004904,363.3028524732945,None,"[93. 93. 93. 93. 93. 93. 87. 93. 93. 93. 93. 93. 93. 87. 93. 87. 87. 87.
 87. 87. 87. 87. 93. 87. 87. 87. 93. 93. 87. 93. 93. 93. 93. 87.]",364.2936650475003,None,l,1,0.9456772974044725,364.2936650475003,None,None,None,,,,,,,16_IB,22,F,16,2021_Nov_03_1359,Partial repeat,2021.2.3,120.11178865782642,
3,6,0,1,1,3,2,3,2,1,1,0,0,1,0,0,0,69,69,69,1,0,1,0,,,,,,,,,0.9301487776493882,365.30944854919653,None,"[87. 87. 93. 87. 93. 87. 87. 93. 87. 93. 87. 93. 87. 87. 93. 93. 93. 87.
 87. 93. 87. 93. 87. 87. 93. 93. 93. 87. 87. 87. 93. 93. 93. 93.]",366.3169163192815,None,l,1,0.618435988208148,366.3169163192815,None,None,None,,,,,,,16_IB,22,F,16,2021_Nov_03_1359,Partial repeat,2021.2.3,120.11178865782642,
3,6,0,1,1,3,2,3,2,1,1,0,0,1,0,0,0,69,69,69,,,,,,,,,,,,,,,,,,,,,,,,,,,,,,,,16_IB,22,F,16,2021_Nov_03_1359,Partial repeat,2021.2.3,120.11178865782642,
2,2,0,1,1,3,2,2,2,0,0,0,1,1,0,0,0,70,70,70,0,0,0,0,,,,,,,366.9580643899135,None,0.9305146248739492,367.4242793449521,None,"[87. 93. 87. 87. 93. 87. 87. 93. 87. 93. 87. 93. 87. 93. 87. 93. 87. 93.
 93. 93. 87. 87. 87. 93. 87. 87. 93. 93. 87. 93. 87. 93. 87. 87.]",368.44009106927115,None,s,1,0.5912829388489627,368.44009106927115,None,None,None,,,,,,,16_IB,22,F,16,2021_Nov_03_1359,Partial repeat,2021.2.3,120.11178865782642,
2,2,0,1,1,3,2,2,2,0,0,0,1,1,0,0,0,70,70,70,1,0,1,0,,,,,,,,,0.9236336692642811,369.09784141836644,None,"[87. 93. 93. 93. 93. 93. 93. 87. 87. 87. 87. 87. 93. 93. 93. 93. 93. 93.
 93. 87. 93. 93. 93. 87. 93. 87. 87. 87. 93. 93. 87. 87. 87. 93.]",370.0969918532828,None,s,1,0.42243211914319545,370.0969918532828,None,None,None,,,,,,,16_IB,22,F,16,2021_Nov_03_1359,Partial repeat,2021.2.3,120.11178865782642,
2,2,0,1,1,3,2,2,2,0,0,0,1,1,0,0,0,70,70,70,,,,,,,,,,,,,,,,,,,,,,,,,,,,,,,,16_IB,22,F,16,2021_Nov_03_1359,Partial repeat,2021.2.3,120.11178865782642,
4,3,0,1,1,2,2,2,3,0,0,1,0,1,0,0,0,71,71,71,0,0,0,0,,,,,,,370.5382592927781,None,0.7190180963021989,370.8962850690132,None,"[93. 93. 87. 87. 87. 93. 93. 93. 93. 93. 87. 87. 87. 93. 87. 93. 93. 87.
 93. 87. 93. 87. 93. 93. 87. 87. 87. 87. 87. 87. 93. 87. 87. 87.]",371.695619335831,None,s,1,0.6317868922615162,371.695619335831,None,None,None,,,,,,,16_IB,22,F,16,2021_Nov_03_1359,Partial repeat,2021.2.3,120.11178865782642,
4,3,0,1,1,2,2,2,3,0,0,1,0,1,0,0,0,71,71,71,1,0,1,0,,,,,,,,,0.7934759158577323,372.3950070332048,None,"[93. 93. 93. 87. 93. 87. 93. 93. 93. 93. 87. 87. 87. 87. 87. 87. 87. 87.
 93. 93. 87. 87. 87. 87. 93. 87. 87. 93. 87. 93. 93. 93. 87. 87.]",373.2692646659816,None,s,1,0.45015282807071344,373.2692646659816,None,None,None,,,,,,,16_IB,22,F,16,2021_Nov_03_1359,Partial repeat,2021.2.3,120.11178865782642,
4,3,0,1,1,2,2,2,3,0,0,1,0,1,0,0,0,71,71,71,,,,,,,,,,,,,,,,,,,,,,,,,,,,,,,,16_IB,22,F,16,2021_Nov_03_1359,Partial repeat,2021.2.3,120.11178865782642,
8,1,0,1,1,3,2,2,2,0,1,0,1,0,0,0,0,72,72,72,0,0,0,0,,,,,,,373.743844742221,None,0.7535722309060844,374.0352721847448,None,"[87. 87. 93. 93. 93. 87. 87. 93. 87. 93. 93. 87. 87. 93. 87. 93. 87. 87.
 87. 93. 87. 87. 87. 93. 87. 93. 87. 87. 93. 87. 87. 87. 87. 87.]",374.86787803721927,None,s,1,0.5155722258641617,374.86787803721927,None,None,None,,,,,,,16_IB,22,F,16,2021_Nov_03_1359,Partial repeat,2021.2.3,120.11178865782642,
8,1,0,1,1,3,2,2,2,0,1,0,1,0,0,0,0,72,72,72,1,0,1,0,,,,,,,,,0.8387482182886552,375.442366197507,None,"[93. 93. 93. 93. 87. 93. 87. 87. 87. 87. 87. 87. 87. 87. 87. 93. 87. 93.
 87. 87. 87. 87. 87. 93. 87. 93. 87. 93. 93. 87. 93. 87. 93. 87.]",376.35826855492996,None,s,0,0.5131883763879159,376.35826855492996,None,376.88279722109655,None,,,,,,,16_IB,22,F,16,2021_Nov_03_1359,Partial repeat,2021.2.3,120.11178865782642,
8,1,0,1,1,3,2,2,2,0,1,0,1,0,0,0,0,72,72,72,,,,,,,,,,,,,,,,,,,,,,,,,,,,,,,,16_IB,22,F,16,2021_Nov_03_1359,Partial repeat,2021.2.3,120.11178865782642,
2,5,0,1,1,2,3,3,2,0,1,0,0,0,0,0,0,73,73,73,0,0,0,0,,,,,,,377.38236810894887,None,0.7228938168612548,378.0401498877818,None,"[93. 93. 93. 93. 93. 87. 87. 93. 93. 87. 87. 87. 93. 93. 87. 93. 87. 93.
 87. 87. 93. 87. 87. 93. 93. 93. 87. 87. 87. 93. 93. 93. 93. 87.]",378.8477783985327,None,s,1,0.6307853098714986,378.8477783985327,None,None,None,,,,,,,16_IB,22,F,16,2021_Nov_03_1359,Partial repeat,2021.2.3,120.11178865782642,
2,5,0,1,1,2,3,3,2,0,1,0,0,0,0,0,0,73,73,73,1,0,1,0,,,,,,,,,0.8029852487729289,379.53884811931493,None,"[93. 93. 93. 93. 87. 93. 87. 93. 87. 87. 93. 87. 93. 93. 93. 87. 93. 93.
 93. 93. 93. 93. 87. 93. 87. 93. 93. 87. 93. 93. 87. 87. 93. 93.]",380.42140961737095,None,l,1,0.7050848917278927,380.42140961737095,None,None,None,,,,,,,16_IB,22,F,16,2021_Nov_03_1359,Partial repeat,2021.2.3,120.11178865782642,
2,5,0,1,1,2,3,3,2,0,1,0,0,0,0,0,0,73,73,73,,,,,,,,,,,,,,,,,,,,,,,,,,,,,,,,16_IB,22,F,16,2021_Nov_03_1359,Partial repeat,2021.2.3,120.11178865782642,
1,6,0,1,1,2,2,2,2,1,0,1,1,0,0,0,0,74,74,74,0,0,0,0,,,,,,,381.1457935784547,None,0.7405506301099938,381.5038286553263,None,"[93. 93. 87. 93. 93. 87. 93. 93. 93. 87. 93. 93. 87. 87. 87. 87. 93. 87.
 93. 87. 87. 87. 93. 87. 87. 87. 93. 87. 87. 93. 87. 87. 87. 87.]",382.3197963096354,None,l,1,0.5987516710720229,382.3197963096354,None,None,None,,,,,,,16_IB,22,F,16,2021_Nov_03_1359,Partial repeat,2021.2.3,120.11178865782642,
1,6,0,1,1,2,2,2,2,1,0,1,1,0,0,0,0,74,74,74,1,0,1,0,,,,,,,,,0.8416848222199265,382.97754890371107,None,"[93. 87. 93. 93. 93. 93. 93. 93. 93. 93. 87. 93. 87. 93. 87. 93. 87. 87.
 93. 93. 93. 93. 93. 93. 87. 87. 93. 87. 93. 87. 93. 87. 87. 87.]",383.8934172657009,None,s,1,0.7858561133762123,383.8934172657009,None,None,None,,,,,,,16_IB,22,F,16,2021_Nov_03_1359,Partial repeat,2021.2.3,120.11178865782642,
1,6,0,1,1,2,2,2,2,1,0,1,1,0,0,0,0,74,74,74,,,,,,,,,,,,,,,,,,,,,,,,,,,,,,,,16_IB,22,F,16,2021_Nov_03_1359,Partial repeat,2021.2.3,120.11178865782642,
3,5,0,1,1,2,3,2,3,1,0,0,0,0,0,0,0,75,75,75,0,0,0,0,,,,,,,384.70106117061005,None,0.98269961265596,385.2006195507074,None,"[87. 87. 87. 87. 93. 87. 87. 87. 87. 87. 93. 93. 93. 87. 87. 93. 87. 87.
 87. 93. 87. 93. 93. 87. 87. 93. 93. 93. 87. 87. 93. 93. 93. 87.]",386.26639397626604,None,l,1,0.5241509410025174,386.26639397626604,None,None,None,,,,,,,16_IB,22,F,16,2021_Nov_03_1359,Partial repeat,2021.2.3,120.11178865782642,
3,5,0,1,1,2,3,2,3,1,0,0,0,0,0,0,0,75,75,75,1,0,1,0,,,,,,,,,0.9039593282403536,386.8575254661064,None,"[93. 87. 87. 93. 93. 93. 87. 93. 87. 93. 87. 93. 93. 87. 87. 93. 87. 87.
 93. 93. 87. 87. 87. 93. 93. 93. 87. 87. 93. 93. 93. 93. 87. 93.]",387.8483431716959,None,s,1,0.3985500076050812,387.8483431716959,None,None,None,,,,,,,16_IB,22,F,16,2021_Nov_03_1359,Partial repeat,2021.2.3,120.11178865782642,
3,5,0,1,1,2,3,2,3,1,0,0,0,0,0,0,0,75,75,75,,,,,,,,,,,,,,,,,,,,,,,,,,,,,,,,16_IB,22,F,16,2021_Nov_03_1359,Partial repeat,2021.2.3,120.11178865782642,
4,8,0,1,1,2,2,2,2,0,0,1,1,1,0,0,0,76,76,76,0,0,0,0,,,,,,,388.2646945253873,None,0.9971257703887262,388.70594977784276,None,"[87. 87. 93. 87. 93. 93. 87. 87. 93. 93. 87. 87. 87. 93. 93. 87. 93. 87.
 87. 93. 93. 87. 87. 93. 87. 93. 87. 87. 87. 87. 87. 87. 93. 87.]",389.78003255864314,None,s,1,0.5145392137328599,389.78003255864314,None,None,None,,,,,,,16_IB,22,F,16,2021_Nov_03_1359,Partial repeat,2021.2.3,120.11178865782642,
4,8,0,1,1,2,2,2,2,0,0,1,1,1,0,0,0,76,76,76,1,0,1,0,,,,,,,,,0.8619738401535243,390.3545094940255,None,"[93. 93. 87. 87. 87. 93. 93. 93. 87. 87. 93. 87. 93. 87. 93. 87. 87. 93.
 87. 87. 87. 87. 93. 93. 87. 93. 93. 93. 93. 93. 87. 87. 87. 87.]",391.29538887246053,None,s,1,0.5031956437123881,391.29538887246053,None,None,None,,,,,,,16_IB,22,F,16,2021_Nov_03_1359,Partial repeat,2021.2.3,120.11178865782642,
4,8,0,1,1,2,2,2,2,0,0,1,1,1,0,0,0,76,76,76,,,,,,,,,,,,,,,,,,,,,,,,,,,,,,,,16_IB,22,F,16,2021_Nov_03_1359,Partial repeat,2021.2.3,120.11178865782642,
5,6,0,1,1,2,3,3,3,1,1,0,1,1,0,0,0,77,77,77,0,0,0,0,,,,,,,391.8199178593386,None,0.7209549072304677,392.1196507707009,None,"[87. 87. 93. 93. 87. 93. 93. 93. 93. 87. 87. 87. 93. 93. 87. 93. 93. 87.
 87. 87. 87. 87. 87. 93. 93. 87. 93. 93. 87. 93. 93. 87. 93. 87.]",392.9189872825009,None,s,0,0.6227360896173195,392.9189872825009,None,393.55176413841036,None,,,,,,,16_IB,22,F,16,2021_Nov_03_1359,Partial repeat,2021.2.3,120.11178865782642,
5,6,0,1,1,2,3,3,3,1,1,0,1,1,0,0,0,77,77,77,1,0,1,0,,,,,,,,,0.9462327686581345,394.08464573873607,None,"[93. 93. 87. 93. 87. 93. 87. 87. 93. 87. 93. 93. 87. 93. 87. 93. 87. 93.
 93. 93. 87. 93. 87. 93. 87. 93. 93. 87. 93. 87. 87. 93. 87. 93.]",395.10876838399054,None,l,1,0.5129568225966068,395.10876838399054,None,None,None,,,,,,,16_IB,22,F,16,2021_Nov_03_1359,Partial repeat,2021.2.3,120.11178865782642,
5,6,0,1,1,2,3,3,3,1,1,0,1,1,0,0,0,77,77,77,,,,,,,,,,,,,,,,,,,,,,,,,,,,,,,,16_IB,22,F,16,2021_Nov_03_1359,Partial repeat,2021.2.3,120.11178865782642,
5,8,0,1,1,3,2,3,3,1,1,0,1,1,0,0,0,78,78,78,0,0,0,0,,,,,,,395.6416169510194,None,0.7507319452773635,395.9247193612955,None,"[87. 87. 93. 87. 87. 93. 87. 93. 87. 93. 87. 93. 93. 93. 93. 93. 93. 87.
 93. 93. 87. 87. 87. 93. 93. 87. 87. 87. 87. 87. 93. 93. 93. 93.]",396.75734926714176,None,l,1,0.4802439165850956,396.75734926714176,None,None,None,,,,,,,16_IB,22,F,16,2021_Nov_03_1359,Partial repeat,2021.2.3,120.11178865782642,
5,8,0,1,1,3,2,3,3,1,1,0,1,1,0,0,0,78,78,78,1,0,1,0,,,,,,,,,0.8709776772837013,397.3068658585162,None,"[93. 87. 93. 87. 87. 87. 87. 87. 93. 87. 93. 87. 93. 93. 87. 93. 87. 93.
 87. 93. 93. 93. 87. 87. 87. 93. 87. 93. 87. 93. 93. 87. 87. 87.]",398.2643792658655,None,s,0,0.701300815317154,398.2643792658655,None,398.9887503984828,None,,,,,,,16_IB,22,F,16,2021_Nov_03_1359,Partial repeat,2021.2.3,120.11178865782642,
5,8,0,1,1,3,2,3,3,1,1,0,1,1,0,0,0,78,78,78,,,,,,,,,,,,,,,,,,,,,,,,,,,,,,,,16_IB,22,F,16,2021_Nov_03_1359,Partial repeat,2021.2.3,120.11178865782642,
2,8,0,1,1,3,2,3,2,0,1,0,0,0,0,0,0,79,79,79,0,0,0,0,,,,,,,399.488344056861,None,0.7945539335550558,399.83801208826117,None,"[93. 87. 93. 93. 87. 93. 87. 93. 93. 93. 93. 93. 87. 93. 93. 93. 87. 87.
 93. 87. 93. 93. 93. 93. 87. 87. 93. 93. 87. 87. 87. 93. 93. 87.]",400.7205819248211,None,s,1,0.4531065820956428,400.7205819248211,None,None,None,,,,,,,16_IB,22,F,16,2021_Nov_03_1359,Partial repeat,2021.2.3,120.11178865782642,
2,8,0,1,1,3,2,3,2,0,1,0,0,0,0,0,0,79,79,79,1,0,1,0,,,,,,,,,0.882456112793317,401.236799349339,None,"[93. 93. 87. 93. 93. 87. 93. 87. 87. 93. 87. 93. 87. 93. 93. 93. 93. 87.
 93. 93. 87. 87. 87. 93. 87. 93. 93. 87. 93. 87. 93. 87. 93. 87.]",402.2026223947778,None,s,0,0.5071057597924664,402.2026223947778,None,402.72717286933585,None,,,,,,,16_IB,22,F,16,2021_Nov_03_1359,Partial repeat,2021.2.3,120.11178865782642,
2,8,0,1,1,3,2,3,2,0,1,0,0,0,0,0,0,79,79,79,,,,,,,,,,,,,,,,,,,,,,,,,,,,,,,,16_IB,22,F,16,2021_Nov_03_1359,Partial repeat,2021.2.3,120.11178865782642,
4,4,0,1,1,3,3,3,2,1,1,1,0,1,0,0,0,80,80,80,0,0,0,0,,,,,,,403.2267556235165,None,0.9302049450151045,403.8262397268045,None,"[93. 87. 93. 93. 87. 87. 93. 93. 93. 93. 87. 93. 87. 87. 93. 87. 93. 87.
 87. 87. 87. 93. 87. 87. 93. 93. 87. 93. 87. 93. 93. 87. 93. 87.]",404.8420552996631,None,s,0,0.6685821364935691,404.8420552996631,None,405.5331003256506,None,,,,,,,16_IB,22,F,16,2021_Nov_03_1359,Partial repeat,2021.2.3,120.11178865782642,
4,4,0,1,1,3,3,3,2,1,1,1,0,1,0,0,0,80,80,80,1,0,1,0,,,,,,,,,0.8890236030369952,406.0659803224171,None,"[93. 87. 93. 87. 87. 87. 93. 87. 93. 93. 93. 87. 87. 93. 93. 87. 87. 87.
 93. 93. 93. 93. 93. 87. 87. 87. 87. 93. 87. 87. 87. 93. 93. 87.]",407.04013513504833,None,l,1,0.6456066767059383,407.04013513504833,None,None,None,,,,,,,16_IB,22,F,16,2021_Nov_03_1359,Partial repeat,2021.2.3,120.11178865782642,
4,4,0,1,1,3,3,3,2,1,1,1,0,1,0,0,0,80,80,80,,,,,,,,,,,,,,,,,,,,,,,,,,,,,,,,16_IB,22,F,16,2021_Nov_03_1359,Partial repeat,2021.2.3,120.11178865782642,
8,6,0,1,1,2,2,3,2,1,1,1,0,1,0,0,0,81,81,81,0,0,0,0,,,,,,,407.71456537481754,None,0.8185862330044106,408.3473412685926,None,"[87. 93. 87. 87. 93. 87. 93. 87. 93. 87. 87. 87. 87. 87. 93. 87. 87. 93.
 93. 93. 87. 93. 87. 87. 93. 87. 93. 93. 87. 87. 87. 87. 87. 87.]",409.2548797876625,None,l,1,0.655059651722695,409.2548797876625,None,None,None,,,,,,,16_IB,22,F,16,2021_Nov_03_1359,Partial repeat,2021.2.3,120.11178865782642,
8,6,0,1,1,2,2,3,2,1,1,1,0,1,0,0,0,81,81,81,1,0,1,0,,,,,,,,,0.8013446492916256,409.97094096148066,None,"[93. 93. 93. 87. 87. 93. 87. 87. 87. 87. 87. 93. 87. 93. 87. 87. 87. 93.
 87. 93. 93. 87. 87. 93. 93. 93. 93. 87. 87. 93. 93. 93. 87. 93.]",410.8618428859427,None,l,1,0.5350307620210515,410.8618428859427,None,None,None,,,,,,,16_IB,22,F,16,2021_Nov_03_1359,Partial repeat,2021.2.3,120.11178865782642,
8,6,0,1,1,2,2,3,2,1,1,1,0,1,0,0,0,81,81,81,,,,,,,,,,,,,,,,,,,,,,,,,,,,,,,,16_IB,22,F,16,2021_Nov_03_1359,Partial repeat,2021.2.3,120.11178865782642,
5,2,0,1,1,2,3,2,2,0,1,0,1,0,0,0,0,82,82,82,0,0,0,0,,,,,,,411.41968066102527,None,0.9189961445603125,412.04416904581194,None,"[93. 87. 93. 93. 93. 87. 93. 87. 87. 93. 93. 87. 87. 93. 87. 93. 87. 87.
 93. 93. 93. 93. 93. 87. 93. 87. 87. 87. 93. 93. 87. 93. 93. 93.]",413.04330152087823,None,s,1,0.7375203821884497,413.04330152087823,None,None,None,,,,,,,16_IB,22,F,16,2021_Nov_03_1359,Partial repeat,2021.2.3,120.11178865782642,
5,2,0,1,1,2,3,2,2,0,1,0,1,0,0,0,0,82,82,82,1,0,1,0,,,,,,,,,0.8303376155211463,413.84261141361276,None,"[93. 87. 93. 93. 87. 93. 93. 87. 93. 93. 93. 93. 93. 93. 93. 93. 93. 93.
 87. 93. 93. 87. 93. 93. 93. 87. 93. 93. 87. 93. 87. 93. 87. 93.]",414.7501444805839,None,l,1,0.5840117649877357,414.7501444805839,None,None,None,,,,,,,16_IB,22,F,16,2021_Nov_03_1359,Partial repeat,2021.2.3,120.11178865782642,
5,2,0,1,1,2,3,2,2,0,1,0,1,0,0,0,0,82,82,82,,,,,,,,,,,,,,,,,,,,,,,,,,,,,,,,16_IB,22,F,16,2021_Nov_03_1359,Partial repeat,2021.2.3,120.11178865782642,
4,7,0,1,1,2,3,2,3,1,1,0,0,1,0,0,0,83,83,83,0,0,0,0,,,,,,,415.34964333660537,None,0.910445745423518,415.7576218720187,None,"[87. 93. 93. 87. 87. 93. 87. 93. 87. 93. 87. 93. 93. 93. 93. 93. 93. 87.
 87. 93. 87. 93. 93. 87. 93. 87. 87. 93. 87. 87. 87. 87. 87. 87.]",416.75675370566205,None,l,1,0.656646532821469,416.75675370566205,None,None,None,,,,,,,16_IB,22,F,16,2021_Nov_03_1359,Partial repeat,2021.2.3,120.11178865782642,
4,7,0,1,1,2,3,2,3,1,1,0,0,1,0,0,0,83,83,83,1,0,1,0,,,,,,,,,0.7815103539984127,417.4811357424751,None,"[87. 93. 93. 87. 87. 93. 93. 93. 87. 87. 87. 87. 87. 93. 87. 87. 87. 87.
 87. 93. 93. 87. 87. 87. 93. 93. 87. 87. 93. 87. 93. 93. 93. 87.]",418.34706032521353,None,l,1,0.5217879377814825,418.34706032521353,None,None,None,,,,,,,16_IB,22,F,16,2021_Nov_03_1359,Partial repeat,2021.2.3,120.11178865782642,
4,7,0,1,1,2,3,2,3,1,1,0,0,1,0,0,0,83,83,83,,,,,,,,,,,,,,,,,,,,,,,,,,,,,,,,16_IB,22,F,16,2021_Nov_03_1359,Partial repeat,2021.2.3,120.11178865782642,
2,6,0,1,1,3,3,3,3,1,0,1,1,0,0,0,0,84,84,84,0,0,0,0,,,,,,,418.8965798029931,None,0.7212481173567615,419.3212144964218,None,"[93. 87. 93. 87. 87. 87. 93. 93. 87. 87. 93. 87. 87. 87. 93. 87. 87. 93.
 93. 87. 93. 87. 87. 93. 93. 93. 87. 87. 93. 93. 87. 93. 93. 87.]",420.120500656496,None,l,1,0.5403715726388327,420.120500656496,None,None,None,,,,,,,16_IB,22,F,16,2021_Nov_03_1359,Partial repeat,2021.2.3,120.11178865782642,
2,6,0,1,1,3,3,3,3,1,0,1,1,0,0,0,0,84,84,84,1,0,1,0,,,,,,,,,0.71281300518264,420.7200056060392,None,"[87. 87. 93. 93. 87. 87. 87. 87. 93. 87. 93. 93. 93. 87. 93. 93. 93. 87.
 93. 93. 87. 87. 93. 87. 87. 93. 93. 87. 93. 93. 93. 93. 87. 87.]",421.5193203094477,None,s,1,0.3735588752788317,421.5193203094477,None,None,None,,,,,,,16_IB,22,F,16,2021_Nov_03_1359,Partial repeat,2021.2.3,120.11178865782642,
2,6,0,1,1,3,3,3,3,1,0,1,1,0,0,0,0,84,84,84,,,,,,,,,,,,,,,,,,,,,,,,,,,,,,,,16_IB,22,F,16,2021_Nov_03_1359,Partial repeat,2021.2.3,120.11178865782642,
1,8,0,1,1,3,3,2,2,1,0,1,1,0,0,0,0,85,85,85,0,0,0,0,,,,,,,421.9106564774447,None,0.8334742923885725,422.26867776371546,None,"[87. 87. 87. 87. 87. 87. 87. 93. 93. 93. 87. 87. 93. 87. 93. 93. 93. 87.
 87. 93. 93. 93. 87. 87. 93. 87. 87. 87. 93. 93. 87. 93. 93. 93.]",423.18457498975295,None,l,1,0.5973921745098778,423.18457498975295,None,None,None,,,,,,,16_IB,22,F,16,2021_Nov_03_1359,Partial repeat,2021.2.3,120.11178865782642,
1,8,0,1,1,3,3,2,2,1,0,1,1,0,0,0,0,85,85,85,1,0,1,0,,,,,,,,,0.9823553803108456,423.8423160382099,None,"[87. 87. 93. 87. 87. 87. 87. 93. 93. 93. 87. 93. 87. 87. 87. 93. 93. 93.
 87. 87. 87. 93. 93. 93. 87. 93. 93. 87. 93. 93. 87. 87. 93. 87.]",424.89973175679916,None,s,1,0.5442627667307534,424.89973175679916,None,None,None,,,,,,,16_IB,22,F,16,2021_Nov_03_1359,Partial repeat,2021.2.3,120.11178865782642,
1,8,0,1,1,3,3,2,2,1,0,1,1,0,0,0,0,85,85,85,,,,,,,,,,,,,,,,,,,,,,,,,,,,,,,,16_IB,22,F,16,2021_Nov_03_1359,Partial repeat,2021.2.3,120.11178865782642,
2,7,0,1,1,2,3,3,2,1,1,0,0,1,0,0,0,86,86,86,0,0,0,0,,,,,,,425.46590290263157,None,0.8397742179970202,425.79064234047655,None,"[87. 87. 87. 93. 87. 87. 93. 93. 87. 93. 87. 93. 93. 93. 87. 93. 87. 87.
 87. 87. 87. 87. 87. 87. 93. 93. 93. 93. 93. 87. 93. 93. 93. 93.]",426.7148283583465,None,l,1,0.537147138004002,426.7148283583465,None,None,None,,,,,,,16_IB,22,F,16,2021_Nov_03_1359,Partial repeat,2021.2.3,120.11178865782642,
2,7,0,1,1,2,3,3,2,1,1,0,0,1,0,0,0,86,86,86,1,0,1,0,,,,,,,,,0.9817791274558014,427.3143249693876,None,"[93. 87. 93. 93. 87. 87. 87. 93. 93. 93. 93. 87. 93. 93. 87. 93. 93. 93.
 87. 93. 93. 93. 93. 87. 93. 87. 87. 93. 93. 93. 87. 87. 93. 87.]",428.3800560988766,None,l,1,0.535890269164156,428.3800560988766,None,None,None,,,,,,,16_IB,22,F,16,2021_Nov_03_1359,Partial repeat,2021.2.3,120.11178865782642,
2,7,0,1,1,2,3,3,2,1,1,0,0,1,0,0,0,86,86,86,,,,,,,,,,,,,,,,,,,,,,,,,,,,,,,,16_IB,22,F,16,2021_Nov_03_1359,Partial repeat,2021.2.3,120.11178865782642,
6,7,0,1,1,3,3,2,3,0,1,1,0,0,0,0,0,87,87,87,0,0,0,0,,,,,,,428.92962047628134,None,0.8401950124016693,429.17105571209686,None,"[87. 93. 87. 93. 93. 87. 87. 87. 87. 87. 93. 93. 87. 93. 93. 87. 93. 87.
 87. 93. 93. 93. 93. 87. 93. 87. 93. 93. 87. 87. 87. 87. 87. 93.]",430.0952645004945,None,s,1,0.6926611649687402,430.0952645004945,None,None,None,,,,,,,16_IB,22,F,16,2021_Nov_03_1359,Partial repeat,2021.2.3,120.11178865782642,
6,7,0,1,1,3,3,2,3,0,1,1,0,0,0,0,0,87,87,87,1,0,1,0,,,,,,,,,0.938421791683431,430.85293993135383,None,"[87. 87. 87. 87. 93. 87. 93. 87. 87. 93. 87. 87. 93. 87. 93. 93. 93. 93.
 93. 87. 87. 87. 87. 93. 93. 93. 93. 87. 93. 87. 87. 93. 87. 87.]",431.8770449374697,None,l,1,0.6720580090386647,431.8770449374697,None,None,None,,,,,,,16_IB,22,F,16,2021_Nov_03_1359,Partial repeat,2021.2.3,120.11178865782642,
6,7,0,1,1,3,3,2,3,0,1,1,0,0,0,0,0,87,87,87,,,,,,,,,,,,,,,,,,,,,,,,,,,,,,,,16_IB,22,F,16,2021_Nov_03_1359,Partial repeat,2021.2.3,120.11178865782642,
8,4,0,1,1,2,3,2,3,0,1,0,0,0,0,0,0,88,88,88,0,0,0,0,,,,,,,432.55980983083646,None,0.9988395973558266,432.9428014031764,None,"[87. 87. 93. 87. 93. 87. 87. 93. 93. 93. 93. 93. 93. 87. 87. 87. 87. 93.
 93. 87. 87. 93. 93. 93. 93. 87. 87. 87. 87. 93. 93. 87. 93. 93.]",434.02520087772245,None,s,1,0.5707981255072809,434.02520087772245,None,None,None,,,,,,,16_IB,22,F,16,2021_Nov_03_1359,Partial repeat,2021.2.3,120.11178865782642,
8,4,0,1,1,2,3,2,3,0,1,0,0,0,0,0,0,88,88,88,1,0,1,0,,,,,,,,,0.7329290606273546,434.65797452651714,None,"[93. 93. 93. 93. 93. 87. 87. 87. 87. 87. 93. 93. 93. 93. 93. 93. 93. 87.
 87. 93. 93. 93. 93. 93. 87. 87. 93. 87. 87. 93. 87. 87. 93. 87.]",435.47393737015045,None,l,1,0.4501618079957552,435.47393737015045,None,None,None,,,,,,,16_IB,22,F,16,2021_Nov_03_1359,Partial repeat,2021.2.3,120.11178865782642,
8,4,0,1,1,2,3,2,3,0,1,0,0,0,0,0,0,88,88,88,,,,,,,,,,,,,,,,,,,,,,,,,,,,,,,,16_IB,22,F,16,2021_Nov_03_1359,Partial repeat,2021.2.3,120.11178865782642,
6,6,0,1,1,2,2,2,2,0,1,1,1,0,0,0,0,89,89,89,0,0,0,0,,,,,,,435.94020620474294,None,0.7140519717911497,436.2815886514254,None,"[87. 87. 87. 87. 87. 93. 93. 93. 93. 93. 93. 87. 87. 93. 87. 93. 93. 87.
 93. 93. 93. 93. 87. 87. 87. 87. 87. 93. 87. 93. 87. 93. 93. 93.]",437.0725763983173,None,s,1,0.6428475946340768,437.0725763983173,None,None,None,,,,,,,16_IB,22,F,16,2021_Nov_03_1359,Partial repeat,2021.2.3,120.11178865782642,
6,6,0,1,1,2,2,2,2,0,1,1,1,0,0,0,0,89,89,89,1,0,1,0,,,,,,,,,0.7084494301176764,437.78862346082315,None,"[93. 87. 87. 93. 93. 87. 87. 93. 93. 87. 93. 87. 87. 87. 93. 87. 93. 87.
 87. 87. 87. 87. 93. 93. 93. 87. 93. 87. 93. 93. 87. 93. 93. 93.]",438.57959677569306,None,l,1,0.5922630335626309,438.57959677569306,None,None,None,,,,,,,16_IB,22,F,16,2021_Nov_03_1359,Partial repeat,2021.2.3,120.11178865782642,
6,6,0,1,1,2,2,2,2,0,1,1,1,0,0,0,0,89,89,89,,,,,,,,,,,,,,,,,,,,,,,,,,,,,,,,16_IB,22,F,16,2021_Nov_03_1359,Partial repeat,2021.2.3,120.11178865782642,
3,4,0,1,1,3,3,2,2,0,0,1,1,1,0,0,0,90,90,90,0,0,0,0,,,,,,,439.1957549968465,None,0.9449822590267036,439.87016054182277,None,"[93. 87. 87. 93. 93. 87. 87. 87. 93. 93. 93. 93. 93. 87. 93. 93. 87. 93.
 87. 93. 93. 93. 93. 93. 87. 87. 93. 87. 93. 93. 87. 93. 87. 87.]",440.902577110297,None,s,1,0.6220799136426649,440.902577110297,None,None,None,,,,,,,16_IB,22,F,16,2021_Nov_03_1359,Partial repeat,2021.2.3,120.11178865782642,
3,4,0,1,1,3,3,2,2,0,0,1,1,1,0,0,0,90,90,90,1,0,1,0,,,,,,,,,0.8857456325637281,441.58535002145436,None,"[93. 93. 87. 87. 87. 93. 87. 93. 93. 87. 87. 93. 93. 87. 93. 93. 87. 93.
 87. 87. 93. 93. 93. 87. 93. 93. 87. 93. 93. 87. 93. 93. 93. 93.]",442.55117306689317,None,s,1,0.7158996082853264,442.55117306689317,None,None,None,,,,,,,16_IB,22,F,16,2021_Nov_03_1359,Partial repeat,2021.2.3,120.11178865782642,
3,4,0,1,1,3,3,2,2,0,0,1,1,1,0,0,0,90,90,90,,,,,,,,,,,,,,,,,,,,,,,,,,,,,,,,16_IB,22,F,16,2021_Nov_03_1359,Partial repeat,2021.2.3,120.11178865782642,
6,3,0,1,1,2,2,3,2,0,1,1,0,0,0,0,0,91,91,91,0,0,0,0,,,,,,,443.2838907194382,None,0.9057227262431278,443.633582162789,None,"[87. 87. 87. 87. 87. 87. 87. 87. 87. 93. 93. 93. 87. 93. 87. 93. 87. 87.
 87. 87. 87. 93. 93. 87. 87. 87. 93. 93. 87. 87. 93. 93. 87. 87.]",444.6244040376296,None,s,1,0.5952215982633788,444.6244040376296,None,None,None,,,,,,,16_IB,22,F,16,2021_Nov_03_1359,Partial repeat,2021.2.3,120.11178865782642,
6,3,0,1,1,2,2,3,2,0,1,1,0,0,0,0,0,91,91,91,1,0,1,0,,,,,,,,,0.9972078059584113,445.2821874200217,None,"[87. 87. 93. 87. 93. 87. 87. 93. 93. 93. 87. 87. 87. 93. 93. 93. 93. 87.
 93. 93. 87. 87. 87. 93. 87. 87. 87. 93. 93. 87. 93. 87. 87. 93.]",446.3562281876002,None,l,1,0.622935572244387,446.3562281876002,None,None,None,,,,,,,16_IB,22,F,16,2021_Nov_03_1359,Partial repeat,2021.2.3,120.11178865782642,
6,3,0,1,1,2,2,3,2,0,1,1,0,0,0,0,0,91,91,91,,,,,,,,,,,,,,,,,,,,,,,,,,,,,,,,16_IB,22,F,16,2021_Nov_03_1359,Partial repeat,2021.2.3,120.11178865782642,
3,3,0,1,1,3,3,3,3,1,1,1,1,1,0,0,0,92,92,92,0,0,0,0,,,,,,,446.9890114577429,None,0.942585455929866,447.33872150236675,None,"[87. 87. 87. 87. 93. 93. 93. 93. 93. 87. 93. 93. 93. 93. 93. 93. 87. 87.
 87. 87. 87. 93. 87. 93. 87. 87. 87. 93. 87. 93. 87. 87. 93. 93.]",448.3711473714793,None,l,1,0.5759843531232036,448.3711473714793,None,None,None,,,,,,,16_IB,22,F,16,2021_Nov_03_1359,Partial repeat,2021.2.3,120.11178865782642,
3,3,0,1,1,3,3,3,3,1,1,1,1,1,0,0,0,92,92,92,1,0,1,0,,,,,,,,,0.7977394168763435,449.0206063630467,None,"[93. 87. 93. 93. 93. 87. 93. 93. 93. 93. 93. 87. 87. 87. 87. 93. 87. 87.
 87. 87. 93. 87. 93. 87. 93. 93. 87. 93. 87. 87. 93. 93. 93. 87.]",449.90316850252566,None,l,1,0.724017140115393,449.90316850252566,None,None,None,,,,,,,16_IB,22,F,16,2021_Nov_03_1359,Partial repeat,2021.2.3,120.11178865782642,
3,3,0,1,1,3,3,3,3,1,1,1,1,1,0,0,0,92,92,92,,,,,,,,,,,,,,,,,,,,,,,,,,,,,,,,16_IB,22,F,16,2021_Nov_03_1359,Partial repeat,2021.2.3,120.11178865782642,
8,2,0,1,1,3,3,3,2,1,0,1,0,0,0,0,0,93,93,93,0,0,0,0,,,,,,,450.6442034902393,None,0.8302618958194006,451.16041514194876,None,"[87. 93. 93. 93. 87. 87. 87. 93. 87. 93. 87. 93. 93. 87. 87. 87. 87. 87.
 93. 87. 93. 87. 93. 87. 87. 87. 87. 93. 93. 93. 93. 87. 87. 93.]",452.07631910293094,None,l,1,0.6628535855270457,452.07631910293094,None,None,None,,,,,,,16_IB,22,F,16,2021_Nov_03_1359,Partial repeat,2021.2.3,120.11178865782642,
8,2,0,1,1,3,3,3,2,1,0,1,0,0,0,0,0,93,93,93,1,0,1,0,,,,,,,,,0.8209589272067743,452.80067580352625,None,"[93. 87. 93. 93. 87. 93. 93. 87. 87. 93. 87. 87. 93. 93. 87. 87. 93. 93.
 93. 87. 93. 87. 93. 93. 93. 87. 87. 87. 93. 87. 93. 93. 87. 93.]",453.69989698742756,None,s,1,0.5758355429334188,453.69989698742756,None,None,None,,,,,,,16_IB,22,F,16,2021_Nov_03_1359,Partial repeat,2021.2.3,120.11178865782642,
8,2,0,1,1,3,3,3,2,1,0,1,0,0,0,0,0,93,93,93,,,,,,,,,,,,,,,,,,,,,,,,,,,,,,,,16_IB,22,F,16,2021_Nov_03_1359,Partial repeat,2021.2.3,120.11178865782642,
5,5,0,1,1,3,2,2,3,1,1,0,0,1,0,0,0,94,94,94,0,0,0,0,,,,,,,454.3077253656593,None,0.8593114436582658,454.7656563395376,None,"[87. 87. 87. 87. 87. 87. 87. 93. 87. 87. 87. 87. 93. 87. 87. 87. 87. 93.
 93. 93. 87. 93. 87. 87. 87. 87. 87. 87. 87. 87. 87. 87. 93. 93.]",455.7148203405559,None,l,1,0.5928977218609361,455.7148203405559,None,None,None,,,,,,,16_IB,22,F,16,2021_Nov_03_1359,Partial repeat,2021.2.3,120.11178865782642,
5,5,0,1,1,3,2,2,3,1,1,0,0,1,0,0,0,94,94,94,1,0,1,0,,,,,,,,,0.8013258728661458,456.3809367729864,None,"[93. 87. 93. 93. 93. 93. 87. 93. 93. 93. 93. 93. 87. 93. 93. 87. 87. 87.
 87. 87. 93. 87. 93. 93. 93. 93. 93. 87. 87. 93. 87. 87. 93. 87.]",457.263506288833,None,l,1,0.4508054762191023,457.263506288833,None,None,None,,,,,,,16_IB,22,F,16,2021_Nov_03_1359,Partial repeat,2021.2.3,120.11178865782642,
5,5,0,1,1,3,2,2,3,1,1,0,0,1,0,0,0,94,94,94,,,,,,,,,,,,,,,,,,,,,,,,,,,,,,,,16_IB,22,F,16,2021_Nov_03_1359,Partial repeat,2021.2.3,120.11178865782642,
8,5,0,1,1,2,2,2,3,1,1,1,0,1,0,0,0,95,95,95,0,0,0,0,,,,,,,457.72977255773185,None,0.8259601518906241,458.03782825636154,None,"[87. 93. 87. 93. 87. 87. 87. 93. 87. 93. 87. 93. 93. 87. 93. 93. 87. 93.
 87. 87. 93. 93. 93. 87. 93. 87. 87. 93. 93. 93. 93. 87. 87. 93.]",458.9537078432586,None,l,1,0.632554355170214,458.9537078432586,None,None,None,,,,,,,16_IB,22,F,16,2021_Nov_03_1359,Partial repeat,2021.2.3,120.11178865782642,
8,5,0,1,1,2,2,2,3,1,1,1,0,1,0,0,0,95,95,95,1,0,1,0,,,,,,,,,0.8925135161306181,459.65312215969607,None,"[93. 93. 87. 87. 87. 87. 93. 93. 87. 93. 93. 87. 93. 93. 87. 87. 93. 87.
 93. 93. 93. 93. 87. 93. 87. 93. 87. 87. 93. 87. 93. 87. 93. 87.]",460.6355862897053,None,l,1,0.4866607146905153,460.6355862897053,None,None,None,,,,,,,16_IB,22,F,16,2021_Nov_03_1359,Partial repeat,2021.2.3,120.11178865782642,
8,5,0,1,1,2,2,2,3,1,1,1,0,1,0,0,0,95,95,95,,,,,,,,,,,,,,,,,,,,,,,,,,,,,,,,16_IB,22,F,16,2021_Nov_03_1359,Partial repeat,2021.2.3,120.11178865782642,
1,4,0,1,1,2,2,2,2,1,1,1,1,1,0,0,0,96,96,96,0,0,0,0,,,,,,,461.1434719470326,None,0.7847295778103535,461.4515542647259,None,"[87. 93. 87. 93. 93. 93. 93. 87. 93. 93. 87. 87. 87. 87. 93. 93. 87. 93.
 93. 93. 87. 87. 87. 93. 87. 87. 93. 93. 87. 93. 87. 87. 93. 93.]",462.31748269600394,None,l,1,0.5807902167580323,462.31748269600394,None,None,None,,,,,,,16_IB,22,F,16,2021_Nov_03_1359,Partial repeat,2021.2.3,120.11178865782642,
1,4,0,1,1,2,2,2,2,1,1,1,1,1,0,0,0,96,96,96,1,0,1,0,,,,,,,,,0.9676244165051426,462.95858618772036,None,"[87. 93. 93. 87. 93. 87. 93. 93. 87. 87. 93. 87. 87. 87. 87. 87. 87. 93.
 93. 93. 87. 87. 93. 87. 87. 93. 87. 93. 93. 87. 87. 93. 87. 87.]",464.00766115919214,None,l,1,0.5226137702047708,464.00766115919214,None,None,None,,,,,,,16_IB,22,F,16,2021_Nov_03_1359,Partial repeat,2021.2.3,120.11178865782642,
1,4,0,1,1,2,2,2,2,1,1,1,1,1,0,0,0,96,96,96,,,,,,,,,,,,,,,,,,,,,,,,,,,,,,,,16_IB,22,F,16,2021_Nov_03_1359,Partial repeat,2021.2.3,120.11178865782642,
3,2,0,1,1,2,3,3,3,0,0,0,1,1,0,0,0,97,97,97,0,0,0,0,,,,,,,464.5488966558114,None,0.8586434060898998,464.9069076793112,None,"[93. 93. 87. 87. 93. 87. 93. 87. 87. 87. 93. 93. 87. 87. 87. 87. 87. 93.
 93. 93. 93. 87. 93. 93. 93. 93. 87. 93. 87. 87. 87. 87. 87. 93.]",465.85609509227834,None,s,1,0.54621622121158,465.85609509227834,None,None,None,,,,,,,16_IB,22,F,16,2021_Nov_03_1359,Partial repeat,2021.2.3,120.11178865782642,
3,2,0,1,1,2,3,3,3,0,0,0,1,1,0,0,0,97,97,97,1,0,1,0,,,,,,,,,0.8795491410015562,466.47221322447876,None,"[87. 93. 87. 93. 87. 87. 93. 93. 93. 87. 87. 93. 87. 93. 93. 93. 87. 93.
 87. 87. 93. 87. 87. 87. 87. 93. 87. 93. 87. 93. 87. 87. 87. 87.]",467.4380648132519,None,s,1,0.468245453434065,467.4380648132519,None,None,None,,,,,,,16_IB,22,F,16,2021_Nov_03_1359,Partial repeat,2021.2.3,120.11178865782642,
3,2,0,1,1,2,3,3,3,0,0,0,1,1,0,0,0,97,97,97,,,,,,,,,,,,,,,,,,,,,,,,,,,,,,,,16_IB,22,F,16,2021_Nov_03_1359,Partial repeat,2021.2.3,120.11178865782642,
6,4,0,1,1,2,3,2,2,1,0,0,1,0,0,0,0,98,98,98,0,0,0,0,,,,,,,467.92929014331276,None,0.9507733659069685,468.27903193838756,None,"[87. 93. 87. 87. 87. 87. 93. 87. 93. 87. 93. 87. 93. 93. 93. 87. 87. 87.
 93. 93. 87. 87. 93. 93. 93. 87. 93. 93. 93. 87. 93. 87. 93. 87.]",469.3114436961878,None,l,1,0.530915390503651,469.3114436961878,None,None,None,,,,,,,16_IB,22,F,16,2021_Nov_03_1359,Partial repeat,2021.2.3,120.11178865782642,
6,4,0,1,1,2,3,2,2,1,0,0,1,0,0,0,0,98,98,98,1,0,1,0,,,,,,,,,0.789963153505583,469.91092491307063,None,"[87. 93. 93. 93. 87. 93. 93. 93. 93. 93. 87. 93. 93. 93. 87. 93. 87. 93.
 87. 87. 87. 93. 93. 87. 93. 87. 93. 87. 87. 93. 93. 87. 87. 87.]",470.7851937707528,None,s,1,0.6411702728582895,470.7851937707528,None,None,None,,,,,,,16_IB,22,F,16,2021_Nov_03_1359,Partial repeat,2021.2.3,120.11178865782642,
6,4,0,1,1,2,3,2,2,1,0,0,1,0,0,0,0,98,98,98,,,,,,,,,,,,,,,,,,,,,,,,,,,,,,,,16_IB,22,F,16,2021_Nov_03_1359,Partial repeat,2021.2.3,120.11178865782642,
4,2,0,1,1,3,3,2,2,0,1,1,1,0,0,0,0,99,99,99,0,0,0,0,,,,,,,471.44294476127106,None,0.78576005299483,472.1589786746008,None,"[93. 87. 87. 87. 87. 93. 93. 93. 87. 93. 93. 87. 93. 93. 87. 93. 87. 87.
 87. 87. 93. 87. 93. 93. 93. 93. 93. 87. 87. 93. 93. 87. 87. 87.]",473.033233100261,None,s,1,0.5363456796640094,473.033233100261,None,None,None,,,,,,,16_IB,22,F,16,2021_Nov_03_1359,Partial repeat,2021.2.3,120.11178865782642,
4,2,0,1,1,3,3,2,2,0,1,1,1,0,0,0,0,99,99,99,1,0,1,0,,,,,,,,,0.7583505633637277,473.6410467257574,None,"[87. 87. 87. 87. 93. 93. 87. 93. 93. 93. 93. 93. 93. 93. 93. 87. 93. 93.
 93. 87. 93. 93. 93. 93. 87. 93. 93. 93. 93. 87. 93. 93. 87. 93.]",474.4736612374454,None,s,0,0.45572615461242094,474.4736612374454,None,474.9399220542473,None,,,,,,,16_IB,22,F,16,2021_Nov_03_1359,Partial repeat,2021.2.3,120.11178865782642,
4,2,0,1,1,3,3,2,2,0,1,1,1,0,0,0,0,99,99,99,,,,,,,,,,,,,,,,,,,,,,,,,,,,,,,,16_IB,22,F,16,2021_Nov_03_1359,Partial repeat,2021.2.3,120.11178865782642,
1,1,0,1,1,2,2,3,2,0,0,1,0,1,0,0,0,100,100,100,0,0,0,0,,,,,,,475.4394801136332,None,0.7310872518136688,475.5061178948745,None,"[87. 93. 93. 87. 87. 87. 93. 87. 87. 87. 93. 93. 87. 93. 87. 87. 93. 93.
 93. 87. 87. 87. 93. 87. 87. 93. 93. 87. 87. 87. 93. 87. 87. 87.]",476.32205893011815,None,l,0,0.367340918379341,476.32205893011815,None,476.7051425466925,None,,,,,,,16_IB,22,F,16,2021_Nov_03_1359,Partial repeat,2021.2.3,120.11178865782642,
1,1,0,1,1,2,2,3,2,0,0,1,0,1,0,0,0,100,100,100,1,0,1,0,,,,,,,,,0.7480898338887126,477.23792857495573,None,"[87. 87. 87. 87. 87. 87. 87. 87. 93. 87. 93. 87. 93. 93. 87. 93. 93. 87.
 87. 93. 93. 87. 87. 93. 93. 87. 93. 87. 87. 93. 87. 87. 87. 93.]",478.07054918016365,None,s,1,0.8748923941984685,478.07054918016365,None,None,None,,,,,,,16_IB,22,F,16,2021_Nov_03_1359,Partial repeat,2021.2.3,120.11178865782642,
