prime_tar_pos,probe_tar_pos,dimension,tar_color,tar_shape,prime_dist_color,probe_dist_color,prime_dist_shape,probe_dist_shape,prime_tar_ori,probe_tar_ori,col_rep,shape_rep,resp_rep,pos_fixed,sparse,MainLoop.thisRepN,MainLoop.thisTrialN,MainLoop.thisN,MainLoop.thisIndex,PrimeProbe.thisRepN,PrimeProbe.thisTrialN,PrimeProbe.thisN,PrimeProbe.thisIndex,Instruction.started,Instruction.stopped,instruction_key.keys,instruction_key.rt,instruction_key.started,instruction_key.stopped,PairStartText.started,PairStartText.stopped,fixdur,FixCross.started,FixCross.stopped,dist_ori,SearchFixCross.started,SearchFixCross.stopped,key_resp.keys,key_resp.corr,key_resp.rt,key_resp.started,key_resp.stopped,feedback_text.started,feedback_text.stopped,participant,age,gender,group,date,expName,psychopyVersion,frameRate,
,,,,,,,,,,,,,,,,,,,,,,,,45.3819854999856,None,space,1.6832924096925126,45.3819854999856,None,,,,,,,,,,,,,,,,17_KH,43,F,17,2021_Nov_03_1614,Partial repeat,2021.2.3,120.09559684222607,
1,1,0,1,1,3,3,3,3,1,1,1,1,1,0,0,0,0,0,0,0,0,0,0,,,,,,,90.90159477060661,None,0.8133665387368036,95.20560918210322,None,"[93. 87. 93. 87. 87. 87. 93. 93. 87. 87. 87. 93. 87. 87. 87. 93. 87. 87.
 93. 87. 87. 93. 93. 93. 93. 87. 87. 87. 87. 93. 87. 93. 87. 87.]",96.1048537779534,None,l,1,0.6700313048895623,96.1048537779534,None,None,None,17_KH,43,F,17,2021_Nov_03_1614,Partial repeat,2021.2.3,120.09559684222607,
1,1,0,1,1,3,3,3,3,1,1,1,1,1,0,0,0,0,0,0,1,0,1,0,,,,,,,,,0.7680997937757796,96.83755892274348,None,"[93. 87. 87. 93. 93. 93. 87. 87. 93. 93. 93. 93. 87. 87. 93. 87. 93. 93.
 93. 93. 93. 93. 93. 93. 87. 93. 87. 87. 93. 87. 87. 93. 93. 87.]",97.69515334184689,None,l,1,0.6306966660449689,97.69515334184689,None,None,None,17_KH,43,F,17,2021_Nov_03_1614,Partial repeat,2021.2.3,120.09559684222607,
1,1,0,1,1,3,3,3,3,1,1,1,1,1,0,0,0,0,0,0,,,,,,,,,,,,,,,,,,,,,,,,,,17_KH,43,F,17,2021_Nov_03_1614,Partial repeat,2021.2.3,120.09559684222607,
7,3,0,1,1,3,3,3,2,0,1,1,0,0,0,0,0,1,1,1,0,0,0,0,,,,,,,98.33625907854366,None,0.7434206985573808,99.335395722861,None,"[93. 87. 87. 87. 87. 93. 87. 87. 93. 93. 87. 87. 93. 87. 87. 93. 87. 87.
 93. 93. 87. 93. 93. 93. 93. 93. 87. 93. 93. 87. 87. 93. 87. 87.]",100.16803076009455,None,s,1,0.7667787759201019,100.16803076009455,None,None,None,17_KH,43,F,17,2021_Nov_03_1614,Partial repeat,2021.2.3,120.09559684222607,
7,3,0,1,1,3,3,3,2,0,1,1,0,0,0,0,0,1,1,1,1,0,1,0,,,,,,,,,0.8212292681562473,100.99230356252883,None,"[93. 93. 87. 87. 87. 93. 93. 87. 93. 93. 93. 87. 87. 93. 93. 93. 93. 87.
 87. 93. 93. 93. 87. 93. 93. 87. 87. 87. 93. 87. 93. 93. 93. 87.]",101.89985715504372,None,l,1,0.6502661684280611,101.89985715504372,None,None,None,17_KH,43,F,17,2021_Nov_03_1614,Partial repeat,2021.2.3,120.09559684222607,
7,3,0,1,1,3,3,3,2,0,1,1,0,0,0,0,0,1,1,1,,,,,,,,,,,,,,,,,,,,,,,,,,17_KH,43,F,17,2021_Nov_03_1614,Partial repeat,2021.2.3,120.09559684222607,
3,6,0,1,1,2,3,3,3,0,1,0,1,0,0,0,0,2,2,2,0,0,0,0,,,,,,,102.57427071781058,None,0.9558004836982582,103.46516943515599,None,"[87. 87. 93. 93. 87. 87. 93. 87. 87. 93. 93. 93. 87. 93. 87. 93. 87. 93.
 93. 93. 87. 87. 93. 93. 93. 87. 87. 93. 93. 87. 87. 87. 93. 93.]",104.5059427863307,None,s,1,0.5879070009141287,104.5059427863307,None,None,None,17_KH,43,F,17,2021_Nov_03_1614,Partial repeat,2021.2.3,120.09559684222607,
3,6,0,1,1,2,3,3,3,0,1,0,1,0,0,0,0,2,2,2,1,0,1,0,,,,,,,,,0.7534432813071452,105.16372296160625,None,"[87. 87. 93. 93. 93. 93. 87. 93. 87. 93. 87. 87. 93. 93. 87. 93. 87. 93.
 87. 87. 87. 87. 93. 93. 87. 87. 87. 87. 93. 87. 87. 87. 87. 93.]",105.99631021280584,None,l,1,0.5695311871895683,105.99631021280584,None,None,None,17_KH,43,F,17,2021_Nov_03_1614,Partial repeat,2021.2.3,120.09559684222607,
3,6,0,1,1,2,3,3,3,0,1,0,1,0,0,0,0,2,2,2,,,,,,,,,,,,,,,,,,,,,,,,,,17_KH,43,F,17,2021_Nov_03_1614,Partial repeat,2021.2.3,120.09559684222607,
3,4,0,1,1,2,3,2,2,1,1,0,1,1,0,0,0,3,3,3,0,0,0,0,,,,,,,106.59581355878981,None,0.7965884770254765,107.32017731504311,None,"[93. 93. 93. 93. 87. 87. 87. 93. 93. 87. 87. 87. 87. 87. 93. 87. 87. 93.
 87. 93. 93. 93. 87. 93. 93. 93. 93. 87. 93. 87. 93. 87. 87. 93.]",108.21109238867939,None,l,1,0.6908195114265254,108.21109238867939,None,None,None,17_KH,43,F,17,2021_Nov_03_1614,Partial repeat,2021.2.3,120.09559684222607,
3,4,0,1,1,2,3,2,2,1,1,0,1,1,0,0,0,3,3,3,1,0,1,0,,,,,,,,,0.7773910041972001,108.9687710266553,None,"[87. 87. 87. 87. 87. 87. 93. 93. 87. 87. 87. 87. 93. 87. 93. 93. 93. 93.
 93. 93. 87. 93. 87. 93. 93. 93. 87. 87. 87. 93. 87. 87. 93. 87.]",109.84313898422988,None,l,1,0.5467109518249345,109.84313898422988,None,None,None,17_KH,43,F,17,2021_Nov_03_1614,Partial repeat,2021.2.3,120.09559684222607,
3,4,0,1,1,2,3,2,2,1,1,0,1,1,0,0,0,3,3,3,,,,,,,,,,,,,,,,,,,,,,,,,,17_KH,43,F,17,2021_Nov_03_1614,Partial repeat,2021.2.3,120.09559684222607,
5,5,0,1,1,3,3,3,3,1,0,1,1,0,0,0,0,4,4,4,0,0,0,0,,,,,,,110.4174885971006,None,0.907755117183508,111.716373226227,None,"[87. 93. 87. 93. 93. 87. 93. 93. 93. 93. 93. 87. 93. 93. 93. 87. 87. 87.
 87. 93. 87. 87. 87. 93. 93. 87. 87. 87. 87. 93. 93. 93. 93. 87.]",112.7155265475485,None,s,0,0.3783995690646407,112.7155265475485,None,113.11518101284673,None,17_KH,43,F,17,2021_Nov_03_1614,Partial repeat,2021.2.3,120.09559684222607,
5,5,0,1,1,3,3,3,3,1,0,1,1,0,0,0,0,4,4,4,1,0,1,0,,,,,,,,,0.7263438838099332,113.64806389602018,None,"[93. 87. 93. 87. 93. 93. 93. 93. 93. 93. 93. 93. 87. 93. 93. 93. 87. 87.
 93. 93. 87. 93. 87. 93. 93. 87. 93. 87. 93. 93. 87. 93. 93. 93.]",114.46401134549524,None,s,1,0.5659607047164172,114.46401134549524,None,None,None,17_KH,43,F,17,2021_Nov_03_1614,Partial repeat,2021.2.3,120.09559684222607,
5,5,0,1,1,3,3,3,3,1,0,1,1,0,0,0,0,4,4,4,,,,,,,,,,,,,,,,,,,,,,,,,,17_KH,43,F,17,2021_Nov_03_1614,Partial repeat,2021.2.3,120.09559684222607,
6,4,0,1,1,2,2,2,2,1,0,1,1,0,0,0,0,5,5,5,0,0,0,0,,,,,,,115.05518292428678,None,0.8865407480557619,115.85445882159183,None,"[93. 93. 93. 87. 87. 93. 93. 93. 87. 93. 87. 87. 87. 87. 93. 93. 93. 87.
 93. 87. 87. 93. 87. 87. 87. 93. 87. 93. 93. 87. 93. 93. 87. 93.]",116.8286226141463,None,l,1,0.5523352715172223,116.8286226141463,None,None,None,17_KH,43,F,17,2021_Nov_03_1614,Partial repeat,2021.2.3,120.09559684222607,
6,4,0,1,1,2,2,2,2,1,0,1,1,0,0,0,0,5,5,5,1,0,1,0,,,,,,,,,0.7298590182840864,117.45309849117984,None,"[93. 93. 93. 87. 93. 93. 93. 93. 93. 87. 87. 93. 93. 93. 93. 93. 87. 87.
 87. 87. 87. 87. 93. 87. 87. 93. 93. 93. 87. 87. 87. 93. 93. 93.]",118.27740817545418,None,l,0,0.5115805216191802,118.27740817545418,None,118.80193684162077,None,17_KH,43,F,17,2021_Nov_03_1614,Partial repeat,2021.2.3,120.09559684222607,
6,4,0,1,1,2,2,2,2,1,0,1,1,0,0,0,0,5,5,5,,,,,,,,,,,,,,,,,,,,,,,,,,17_KH,43,F,17,2021_Nov_03_1614,Partial repeat,2021.2.3,120.09559684222607,
3,5,0,1,1,2,3,3,2,1,0,0,0,0,0,0,0,6,6,6,0,0,0,0,,,,,,,119.30152216149509,None,0.70684703236595,120.40062237297025,None,"[93. 93. 93. 93. 93. 87. 87. 87. 87. 87. 87. 87. 87. 87. 87. 93. 87. 93.
 93. 93. 93. 87. 87. 93. 93. 87. 87. 93. 93. 93. 93. 93. 87. 93.]",121.19154726038687,None,l,1,0.5414387734927004,121.19154726038687,None,None,None,17_KH,43,F,17,2021_Nov_03_1614,Partial repeat,2021.2.3,120.09559684222607,
3,5,0,1,1,2,3,3,2,1,0,0,0,0,0,0,0,6,6,6,1,0,1,0,,,,,,,,,0.8184280732067328,121.79101789378547,None,"[87. 87. 93. 93. 87. 93. 87. 87. 93. 93. 87. 93. 93. 87. 93. 93. 93. 93.
 93. 93. 93. 87. 93. 87. 87. 87. 93. 93. 87. 87. 87. 87. 93. 87.]",122.69856058210644,None,s,1,0.7464600911953312,122.69856058210644,None,None,None,17_KH,43,F,17,2021_Nov_03_1614,Partial repeat,2021.2.3,120.09559684222607,
3,5,0,1,1,2,3,3,2,1,0,0,0,0,0,0,0,6,6,6,,,,,,,,,,,,,,,,,,,,,,,,,,17_KH,43,F,17,2021_Nov_03_1614,Partial repeat,2021.2.3,120.09559684222607,
2,8,0,1,1,3,3,3,3,0,0,1,1,1,0,0,0,7,7,7,0,0,0,0,,,,,,,123.47291141367896,None,0.7247743637412851,124.13068260902946,None,"[93. 87. 87. 87. 93. 93. 87. 93. 93. 87. 87. 87. 93. 87. 93. 93. 87. 87.
 87. 87. 87. 93. 93. 93. 87. 93. 93. 93. 87. 87. 93. 87. 93. 87.]",124.95499101045425,None,s,1,0.6020539112105325,124.95499101045425,None,None,None,17_KH,43,F,17,2021_Nov_03_1614,Partial repeat,2021.2.3,120.09559684222607,
2,8,0,1,1,3,3,3,3,0,0,1,1,1,0,0,0,7,7,7,1,0,1,0,,,,,,,,,0.8439505429053196,125.62940553535373,None,"[87. 87. 87. 87. 87. 93. 87. 87. 93. 93. 93. 93. 93. 93. 87. 93. 93. 93.
 93. 87. 93. 87. 93. 87. 87. 87. 87. 87. 87. 87. 93. 87. 93. 87.]",126.56191273693548,None,l,0,0.6270902638716507,126.56191273693548,None,127.21133292239756,None,17_KH,43,F,17,2021_Nov_03_1614,Partial repeat,2021.2.3,120.09559684222607,
2,8,0,1,1,3,3,3,3,0,0,1,1,1,0,0,0,7,7,7,,,,,,,,,,,,,,,,,,,,,,,,,,17_KH,43,F,17,2021_Nov_03_1614,Partial repeat,2021.2.3,120.09559684222607,
1,6,0,1,1,2,2,2,2,0,0,1,1,1,0,0,0,8,8,8,0,0,0,0,,,,,,,127.71090797949728,None,0.9738196100543688,128.25210018004873,None,"[87. 87. 93. 93. 93. 93. 93. 87. 93. 93. 87. 87. 93. 87. 87. 87. 93. 87.
 93. 93. 87. 93. 87. 93. 93. 87. 93. 87. 87. 93. 87. 93. 87. 87.]",129.30955213904963,None,s,1,0.7906374755111756,129.30955213904963,None,None,None,17_KH,43,F,17,2021_Nov_03_1614,Partial repeat,2021.2.3,120.09559684222607,
1,6,0,1,1,2,2,2,2,0,0,1,1,1,0,0,0,8,8,8,1,0,1,0,,,,,,,,,0.9468950261815309,130.1588298644092,None,"[87. 87. 93. 93. 87. 87. 87. 87. 87. 87. 87. 87. 93. 93. 93. 93. 93. 93.
 93. 93. 93. 87. 87. 93. 93. 93. 87. 93. 93. 93. 93. 93. 93. 93.]",131.18295154752923,None,s,1,1.0291292200708995,131.18295154752923,None,None,None,17_KH,43,F,17,2021_Nov_03_1614,Partial repeat,2021.2.3,120.09559684222607,
1,6,0,1,1,2,2,2,2,0,0,1,1,1,0,0,0,8,8,8,,,,,,,,,,,,,,,,,,,,,,,,,,17_KH,43,F,17,2021_Nov_03_1614,Partial repeat,2021.2.3,120.09559684222607,
1,2,0,1,1,3,2,3,3,0,0,0,1,1,0,0,0,9,9,9,0,0,0,0,,,,,,,132.23201818050075,None,0.8565945974812107,132.95641464933942,None,"[87. 87. 93. 87. 93. 87. 87. 93. 93. 87. 93. 93. 87. 87. 93. 87. 93. 93.
 87. 93. 93. 93. 87. 93. 93. 87. 93. 87. 87. 87. 93. 93. 87. 87.]",133.89725393881963,None,s,1,0.5871369723136013,133.89725393881963,None,None,None,17_KH,43,F,17,2021_Nov_03_1614,Partial repeat,2021.2.3,120.09559684222607,
1,2,0,1,1,3,2,3,3,0,0,0,1,1,0,0,0,9,9,9,1,0,1,0,,,,,,,,,0.8330679359730929,134.55502288918797,None,"[93. 93. 93. 93. 93. 93. 87. 87. 93. 87. 87. 87. 93. 87. 93. 87. 87. 93.
 87. 87. 87. 87. 93. 87. 87. 87. 93. 87. 87. 87. 93. 93. 87. 93.]",135.47091402170554,None,s,1,0.7092196992380195,135.47091402170554,None,None,None,17_KH,43,F,17,2021_Nov_03_1614,Partial repeat,2021.2.3,120.09559684222607,
1,2,0,1,1,3,2,3,3,0,0,0,1,1,0,0,0,9,9,9,,,,,,,,,,,,,,,,,,,,,,,,,,17_KH,43,F,17,2021_Nov_03_1614,Partial repeat,2021.2.3,120.09559684222607,
8,6,0,1,1,2,2,3,2,1,0,1,0,0,0,0,0,10,10,10,0,0,0,0,,,,,,,136.19528130578328,None,0.8826311611571653,137.53582156375342,None,"[93. 87. 93. 87. 93. 87. 93. 87. 93. 87. 93. 93. 93. 87. 93. 87. 93. 93.
 93. 87. 87. 93. 87. 93. 87. 87. 87. 87. 87. 87. 93. 87. 93. 87.]",138.5016288943225,None,l,1,0.5905480611108942,138.5016288943225,None,None,None,17_KH,43,F,17,2021_Nov_03_1614,Partial repeat,2021.2.3,120.09559684222607,
8,6,0,1,1,2,2,3,2,1,0,1,0,0,0,0,0,10,10,10,1,0,1,0,,,,,,,,,0.8785662932426822,139.1510580597096,None,"[93. 93. 93. 87. 93. 87. 87. 93. 87. 87. 93. 87. 87. 87. 93. 87. 87. 87.
 87. 87. 93. 93. 87. 93. 93. 87. 87. 87. 93. 93. 87. 93. 93. 87.]",140.10856505282572,None,s,1,0.7276375261826615,140.10856505282572,None,None,None,17_KH,43,F,17,2021_Nov_03_1614,Partial repeat,2021.2.3,120.09559684222607,
8,6,0,1,1,2,2,3,2,1,0,1,0,0,0,0,0,10,10,10,,,,,,,,,,,,,,,,,,,,,,,,,,17_KH,43,F,17,2021_Nov_03_1614,Partial repeat,2021.2.3,120.09559684222607,
5,6,0,1,1,2,2,3,3,1,1,1,1,1,0,0,0,11,11,11,0,0,0,0,,,,,,,140.8579350148466,None,0.9377243740471466,141.52410276113733,None,"[93. 93. 93. 93. 93. 87. 93. 93. 93. 87. 93. 87. 87. 87. 87. 93. 93. 87.
 87. 93. 87. 93. 93. 93. 87. 93. 93. 87. 93. 87. 93. 87. 87. 93.]",142.5481619054881,None,l,1,0.5280769652454183,142.5481619054881,None,None,None,17_KH,43,F,17,2021_Nov_03_1614,Partial repeat,2021.2.3,120.09559684222607,
5,6,0,1,1,2,2,3,3,1,1,1,1,1,0,0,0,11,11,11,1,0,1,0,,,,,,,,,0.8454192109311682,143.13930878948668,None,"[87. 87. 87. 87. 87. 87. 87. 87. 93. 93. 93. 87. 93. 93. 93. 87. 87. 87.
 87. 93. 93. 93. 87. 93. 93. 93. 93. 87. 87. 93. 93. 93. 93. 93.]",144.08851031376616,None,l,1,0.5877043111722742,144.08851031376616,None,None,None,17_KH,43,F,17,2021_Nov_03_1614,Partial repeat,2021.2.3,120.09559684222607,
5,6,0,1,1,2,2,3,3,1,1,1,1,1,0,0,0,11,11,11,,,,,,,,,,,,,,,,,,,,,,,,,,17_KH,43,F,17,2021_Nov_03_1614,Partial repeat,2021.2.3,120.09559684222607,
3,8,0,1,1,2,3,2,2,1,0,0,1,0,0,0,0,12,12,12,0,0,0,0,,,,,,,144.70463582233424,None,0.9439693017485631,144.8877830039528,None,"[93. 93. 87. 93. 93. 87. 93. 93. 93. 87. 87. 87. 87. 87. 87. 93. 87. 87.
 93. 87. 93. 93. 93. 87. 87. 93. 87. 93. 93. 93. 93. 87. 87. 93.]",145.92022362579883,None,l,1,0.5479488986820797,145.92022362579883,None,None,None,17_KH,43,F,17,2021_Nov_03_1614,Partial repeat,2021.2.3,120.09559684222607,
3,8,0,1,1,2,3,2,2,1,0,0,1,0,0,0,0,12,12,12,1,0,1,0,,,,,,,,,0.876629284306627,146.52805873897523,None,"[93. 93. 93. 87. 87. 87. 87. 93. 93. 87. 87. 93. 93. 93. 93. 93. 93. 87.
 93. 93. 87. 93. 93. 87. 93. 87. 93. 93. 93. 93. 93. 93. 93. 87.]",147.49386895594944,None,s,1,0.6213533744048618,147.49386895594944,None,None,None,17_KH,43,F,17,2021_Nov_03_1614,Partial repeat,2021.2.3,120.09559684222607,
3,8,0,1,1,2,3,2,2,1,0,0,1,0,0,0,0,12,12,12,,,,,,,,,,,,,,,,,,,,,,,,,,17_KH,43,F,17,2021_Nov_03_1614,Partial repeat,2021.2.3,120.09559684222607,
7,7,0,1,1,3,3,3,3,0,1,1,1,0,0,0,0,13,13,13,0,0,0,0,,,,,,,148.1433231368428,None,0.9345087557493791,148.8510499777767,None,"[93. 87. 93. 93. 93. 93. 87. 93. 93. 87. 87. 87. 93. 93. 93. 87. 87. 93.
 93. 93. 87. 87. 87. 87. 87. 93. 87. 87. 93. 87. 87. 93. 93. 93.]",149.87515177677415,None,l,0,0.6240944966266397,149.87515177677415,None,150.51625238208726,None,17_KH,43,F,17,2021_Nov_03_1614,Partial repeat,2021.2.3,120.09559684222607,
7,7,0,1,1,3,3,3,3,0,1,1,1,0,0,0,0,13,13,13,1,0,1,0,,,,,,,,,0.8882825930251502,151.04913686881628,None,"[93. 93. 93. 93. 87. 93. 87. 93. 93. 87. 87. 93. 93. 87. 93. 87. 93. 87.
 87. 87. 93. 87. 87. 87. 87. 87. 93. 87. 93. 87. 93. 87. 87. 93.]",152.02329136073604,None,l,1,0.4921466802552459,152.02329136073604,None,None,None,17_KH,43,F,17,2021_Nov_03_1614,Partial repeat,2021.2.3,120.09559684222607,
7,7,0,1,1,3,3,3,3,0,1,1,1,0,0,0,0,13,13,13,,,,,,,,,,,,,,,,,,,,,,,,,,17_KH,43,F,17,2021_Nov_03_1614,Partial repeat,2021.2.3,120.09559684222607,
2,5,0,1,1,2,2,2,3,1,1,1,0,1,0,0,0,14,14,14,0,0,0,0,,,,,,,152.54782964825063,None,0.9321900215130492,153.1389928885401,None,"[87. 93. 93. 93. 93. 93. 93. 87. 87. 87. 93. 87. 93. 87. 87. 87. 87. 93.
 87. 93. 87. 93. 93. 87. 87. 87. 87. 87. 93. 87. 87. 93. 87. 93.]",154.15478408731724,None,l,1,0.6805285169430135,154.15478408731724,None,None,None,17_KH,43,F,17,2021_Nov_03_1614,Partial repeat,2021.2.3,120.09559684222607,
2,5,0,1,1,2,2,2,3,1,1,1,0,1,0,0,0,14,14,14,1,0,1,0,,,,,,,,,0.9743506799031438,154.90415533218402,None,"[93. 87. 87. 93. 87. 93. 93. 93. 93. 93. 93. 93. 93. 93. 93. 93. 93. 93.
 87. 87. 87. 93. 87. 87. 87. 93. 93. 93. 87. 87. 87. 93. 93. 93.]",155.9615803514098,None,l,1,0.5377464206067089,155.9615803514098,None,None,None,17_KH,43,F,17,2021_Nov_03_1614,Partial repeat,2021.2.3,120.09559684222607,
2,5,0,1,1,2,2,2,3,1,1,1,0,1,0,0,0,14,14,14,,,,,,,,,,,,,,,,,,,,,,,,,,17_KH,43,F,17,2021_Nov_03_1614,Partial repeat,2021.2.3,120.09559684222607,
8,3,0,1,1,2,3,3,2,0,1,0,0,0,0,0,0,15,15,15,0,0,0,0,,,,,,,156.51943255851802,None,0.8303225127116258,157.09392873659453,None,"[87. 93. 87. 87. 93. 87. 93. 87. 93. 93. 93. 93. 87. 93. 93. 93. 93. 87.
 93. 93. 93. 93. 93. 93. 87. 87. 87. 93. 93. 93. 87. 87. 93. 87.]",158.00148393266863,None,s,1,0.5294088806076616,158.00148393266863,None,None,None,17_KH,43,F,17,2021_Nov_03_1614,Partial repeat,2021.2.3,120.09559684222607,
8,3,0,1,1,2,3,3,2,0,1,0,0,0,0,0,0,15,15,15,1,0,1,0,,,,,,,,,0.8124834493759728,158.60099401359912,None,"[93. 93. 87. 87. 87. 87. 87. 87. 87. 93. 93. 93. 93. 93. 87. 93. 87. 87.
 93. 87. 87. 93. 93. 93. 93. 93. 93. 87. 93. 93. 87. 93. 93. 93.]",159.49186739472498,None,l,1,0.655480618661386,159.49186739472498,None,None,None,17_KH,43,F,17,2021_Nov_03_1614,Partial repeat,2021.2.3,120.09559684222607,
8,3,0,1,1,2,3,3,2,0,1,0,0,0,0,0,0,15,15,15,,,,,,,,,,,,,,,,,,,,,,,,,,17_KH,43,F,17,2021_Nov_03_1614,Partial repeat,2021.2.3,120.09559684222607,
6,1,0,1,1,3,2,3,3,1,1,0,1,1,0,0,0,16,16,16,0,0,0,0,,,,,,,160.1662671668928,None,0.9892064661667881,160.98223642475932,None,"[87. 93. 93. 93. 93. 93. 87. 87. 87. 93. 93. 93. 87. 93. 93. 87. 93. 93.
 87. 87. 87. 87. 93. 93. 93. 93. 87. 93. 93. 93. 93. 93. 93. 87.]",162.05630894278875,None,l,1,0.4901015022514912,162.05630894278875,None,None,None,17_KH,43,F,17,2021_Nov_03_1614,Partial repeat,2021.2.3,120.09559684222607,
6,1,0,1,1,3,2,3,3,1,1,0,1,1,0,0,0,16,16,16,1,0,1,0,,,,,,,,,0.9650066387304871,162.60584477685916,None,"[93. 93. 87. 93. 93. 93. 93. 87. 87. 93. 93. 87. 87. 93. 93. 93. 93. 93.
 93. 87. 87. 87. 93. 93. 93. 93. 93. 87. 93. 93. 93. 93. 87. 93.]",163.65494059458797,None,l,1,0.6194618172667106,163.65494059458797,None,None,None,17_KH,43,F,17,2021_Nov_03_1614,Partial repeat,2021.2.3,120.09559684222607,
6,1,0,1,1,3,2,3,3,1,1,0,1,1,0,0,0,16,16,16,,,,,,,,,,,,,,,,,,,,,,,,,,17_KH,43,F,17,2021_Nov_03_1614,Partial repeat,2021.2.3,120.09559684222607,
3,3,0,1,1,2,2,3,2,0,0,1,0,1,0,0,0,17,17,17,0,0,0,0,,,,,,,164.29607808173387,None,0.7995844511132263,165.01214823547707,None,"[87. 87. 93. 93. 87. 93. 93. 87. 87. 87. 93. 93. 93. 87. 93. 93. 87. 93.
 93. 87. 87. 87. 93. 93. 93. 87. 93. 87. 93. 93. 93. 93. 87. 87.]",165.8863420466405,None,s,1,0.7087290104573185,165.8863420466405,None,None,None,17_KH,43,F,17,2021_Nov_03_1614,Partial repeat,2021.2.3,120.09559684222607,
3,3,0,1,1,2,2,3,2,0,0,1,0,1,0,0,0,17,17,17,1,0,1,0,,,,,,,,,0.7369943524192273,166.6606822947324,None,"[93. 93. 87. 87. 93. 93. 93. 93. 87. 87. 93. 93. 93. 93. 93. 93. 87. 87.
 93. 87. 87. 93. 93. 93. 93. 93. 93. 87. 87. 87. 93. 87. 93. 93.]",167.47665411829075,None,s,1,0.8457883286355354,167.47665411829075,None,None,None,17_KH,43,F,17,2021_Nov_03_1614,Partial repeat,2021.2.3,120.09559684222607,
3,3,0,1,1,2,2,3,2,0,0,1,0,1,0,0,0,17,17,17,,,,,,,,,,,,,,,,,,,,,,,,,,17_KH,43,F,17,2021_Nov_03_1614,Partial repeat,2021.2.3,120.09559684222607,
6,8,0,1,1,3,3,3,2,0,0,1,0,1,0,0,0,18,18,18,0,0,0,0,,,,,,,168.3508812834625,None,0.8729141869607868,169.05029592061328,None,"[87. 93. 87. 93. 87. 93. 93. 87. 93. 93. 93. 87. 93. 93. 93. 93. 87. 93.
 93. 87. 93. 87. 87. 87. 87. 93. 87. 87. 93. 93. 87. 87. 93. 93.]",170.00778142605122,None,l,0,0.5546796734633972,170.00778142605122,None,170.57397213529111,None,17_KH,43,F,17,2021_Nov_03_1614,Partial repeat,2021.2.3,120.09559684222607,
6,8,0,1,1,3,3,3,2,0,0,1,0,1,0,0,0,18,18,18,1,0,1,0,,,,,,,,,0.7550612027750385,171.12351598715395,None,"[87. 93. 93. 93. 93. 93. 93. 87. 93. 87. 87. 93. 93. 93. 87. 87. 87. 93.
 93. 93. 87. 87. 93. 93. 87. 93. 93. 93. 93. 93. 87. 87. 87. 87.]",171.96443211914084,None,s,1,0.6940436253462394,171.96443211914084,None,None,None,17_KH,43,F,17,2021_Nov_03_1614,Partial repeat,2021.2.3,120.09559684222607,
6,8,0,1,1,3,3,3,2,0,0,1,0,1,0,0,0,18,18,18,,,,,,,,,,,,,,,,,,,,,,,,,,17_KH,43,F,17,2021_Nov_03_1614,Partial repeat,2021.2.3,120.09559684222607,
4,7,0,1,1,3,2,2,3,1,1,0,0,1,0,0,0,19,19,19,0,0,0,0,,,,,,,172.68047789880075,None,0.8098403665948496,173.51309433475762,None,"[87. 87. 87. 93. 93. 87. 93. 93. 87. 93. 87. 93. 87. 93. 87. 87. 87. 87.
 87. 87. 87. 93. 93. 93. 93. 87. 87. 93. 93. 87. 93. 93. 87. 87.]",174.41234598626397,None,l,1,0.5662108597825863,174.41234598626397,None,None,None,17_KH,43,F,17,2021_Nov_03_1614,Partial repeat,2021.2.3,120.09559684222607,
4,7,0,1,1,3,2,2,3,1,1,0,0,1,0,0,0,19,19,19,1,0,1,0,,,,,,,,,0.7865003441260582,175.03676638018806,None,"[87. 87. 93. 87. 87. 87. 93. 87. 87. 87. 93. 93. 93. 93. 87. 87. 93. 93.
 93. 93. 93. 87. 87. 93. 93. 87. 87. 87. 93. 93. 87. 87. 87. 93.]",175.90268486940477,None,l,1,0.5149072632593743,175.90268486940477,None,None,None,17_KH,43,F,17,2021_Nov_03_1614,Partial repeat,2021.2.3,120.09559684222607,
4,7,0,1,1,3,2,2,3,1,1,0,0,1,0,0,0,19,19,19,,,,,,,,,,,,,,,,,,,,,,,,,,17_KH,43,F,17,2021_Nov_03_1614,Partial repeat,2021.2.3,120.09559684222607,
4,3,0,1,1,3,2,3,2,0,0,0,0,1,0,0,0,20,20,20,0,0,0,0,,,,,,,176.42726677369865,None,0.7758819257406299,177.13501157448263,None,"[93. 87. 87. 87. 93. 93. 93. 93. 87. 87. 93. 93. 87. 93. 87. 87. 93. 87.
 93. 87. 93. 87. 87. 87. 93. 93. 93. 93. 93. 87. 93. 93. 93. 87.]",178.00091563167734,None,s,1,0.7206274115815177,178.00091563167734,None,None,None,17_KH,43,F,17,2021_Nov_03_1614,Partial repeat,2021.2.3,120.09559684222607,
4,3,0,1,1,3,2,3,2,0,0,0,0,1,0,0,0,20,20,20,1,0,1,0,,,,,,,,,0.9879468478725243,178.78358315699734,None,"[93. 93. 87. 87. 93. 87. 93. 87. 87. 93. 93. 87. 87. 87. 93. 87. 87. 93.
 87. 87. 87. 87. 93. 93. 93. 87. 93. 87. 93. 87. 93. 93. 93. 93.]",179.87433588641215,None,s,1,0.7191890199610498,179.87433588641215,None,None,None,17_KH,43,F,17,2021_Nov_03_1614,Partial repeat,2021.2.3,120.09559684222607,
4,3,0,1,1,3,2,3,2,0,0,0,0,1,0,0,0,20,20,20,,,,,,,,,,,,,,,,,,,,,,,,,,17_KH,43,F,17,2021_Nov_03_1614,Partial repeat,2021.2.3,120.09559684222607,
6,5,0,1,1,3,2,3,2,0,1,0,0,0,0,0,0,21,21,21,0,0,0,0,,,,,,,180.61530384539583,None,0.7356749090208846,181.47288415319053,None,"[87. 93. 87. 87. 93. 87. 93. 87. 87. 93. 87. 93. 93. 87. 93. 93. 93. 93.
 87. 93. 93. 93. 87. 87. 87. 87. 93. 93. 87. 87. 93. 93. 93. 87.]",182.30556601431817,None,l,0,0.6399867195614206,182.30556601431817,None,182.96331379772164,None,17_KH,43,F,17,2021_Nov_03_1614,Partial repeat,2021.2.3,120.09559684222607,
6,5,0,1,1,3,2,3,2,0,1,0,0,0,0,0,0,21,21,21,1,0,1,0,,,,,,,,,0.8133786750096406,183.5044870762831,None,"[87. 87. 93. 87. 87. 93. 93. 87. 87. 87. 87. 93. 87. 87. 93. 87. 87. 93.
 87. 87. 93. 93. 93. 93. 87. 87. 93. 87. 87. 93. 87. 93. 87. 87.]",184.41204387591642,None,l,1,0.6135504606754694,184.41204387591642,None,None,None,17_KH,43,F,17,2021_Nov_03_1614,Partial repeat,2021.2.3,120.09559684222607,
6,5,0,1,1,3,2,3,2,0,1,0,0,0,0,0,0,21,21,21,,,,,,,,,,,,,,,,,,,,,,,,,,17_KH,43,F,17,2021_Nov_03_1614,Partial repeat,2021.2.3,120.09559684222607,
5,3,0,1,1,3,2,3,2,1,1,0,0,1,0,0,0,22,22,22,0,0,0,0,,,,,,,185.0448271460591,None,0.8482753441152742,185.89407761093025,None,"[87. 93. 87. 87. 87. 93. 93. 93. 87. 93. 93. 93. 93. 93. 93. 93. 87. 87.
 87. 87. 87. 93. 93. 93. 93. 87. 93. 87. 87. 93. 87. 87. 87. 87.]",186.82661848723,None,l,1,0.4709537356538931,186.82661848723,None,None,None,17_KH,43,F,17,2021_Nov_03_1614,Partial repeat,2021.2.3,120.09559684222607,
5,3,0,1,1,3,2,3,2,1,1,0,0,1,0,0,0,22,22,22,1,0,1,0,,,,,,,,,0.7518442987901794,187.3678241576672,None,"[93. 93. 93. 87. 93. 87. 93. 87. 87. 87. 87. 93. 87. 93. 93. 87. 87. 93.
 93. 93. 93. 87. 93. 87. 93. 93. 93. 93. 93. 93. 87. 93. 93. 87.]",188.20875824950417,None,l,1,0.5769332113923156,188.20875824950417,None,None,None,17_KH,43,F,17,2021_Nov_03_1614,Partial repeat,2021.2.3,120.09559684222607,
5,3,0,1,1,3,2,3,2,1,1,0,0,1,0,0,0,22,22,22,,,,,,,,,,,,,,,,,,,,,,,,,,17_KH,43,F,17,2021_Nov_03_1614,Partial repeat,2021.2.3,120.09559684222607,
6,2,0,1,1,3,2,2,2,1,0,0,1,0,0,0,0,23,23,23,0,0,0,0,,,,,,,188.8165657814825,None,0.7855307313975242,189.41604058413213,None,"[87. 87. 87. 93. 93. 87. 87. 87. 93. 87. 87. 87. 93. 93. 87. 87. 87. 87.
 93. 93. 87. 87. 93. 87. 93. 87. 87. 93. 87. 93. 93. 87. 93. 87.]",190.2903386265716,None,l,1,0.5433171814584057,190.2903386265716,None,None,None,17_KH,43,F,17,2021_Nov_03_1614,Partial repeat,2021.2.3,120.09559684222607,
6,2,0,1,1,3,2,2,2,1,0,0,1,0,0,0,0,23,23,23,1,0,1,0,,,,,,,,,0.8562989821754441,190.90641346270422,None,"[93. 87. 93. 87. 87. 93. 87. 87. 87. 93. 87. 87. 93. 87. 93. 93. 93. 87.
 93. 93. 87. 87. 93. 87. 87. 87. 93. 87. 87. 87. 93. 87. 87. 93.]",191.84730470746945,None,s,1,0.5214645330524945,191.84730470746945,None,None,None,17_KH,43,F,17,2021_Nov_03_1614,Partial repeat,2021.2.3,120.09559684222607,
6,2,0,1,1,3,2,2,2,1,0,0,1,0,0,0,0,23,23,23,,,,,,,,,,,,,,,,,,,,,,,,,,17_KH,43,F,17,2021_Nov_03_1614,Partial repeat,2021.2.3,120.09559684222607,
4,2,0,1,1,2,3,2,3,1,1,0,0,1,0,0,0,24,24,24,0,0,0,0,,,,,,,192.39682322311273,None,0.8417902111761302,193.07956951520828,None,"[93. 87. 93. 87. 87. 87. 87. 93. 93. 87. 93. 87. 93. 93. 93. 93. 87. 93.
 93. 87. 87. 93. 93. 87. 87. 93. 93. 87. 87. 87. 87. 93. 87. 93.]",194.00378247285335,None,l,1,0.5409019022445136,194.00378247285335,None,None,None,17_KH,43,F,17,2021_Nov_03_1614,Partial repeat,2021.2.3,120.09559684222607,
4,2,0,1,1,2,3,2,3,1,1,0,0,1,0,0,0,24,24,24,1,0,1,0,,,,,,,,,0.8428457232431521,194.61157493138307,None,"[87. 93. 93. 93. 87. 87. 93. 87. 87. 87. 87. 87. 93. 93. 93. 93. 93. 87.
 93. 93. 93. 93. 87. 93. 93. 87. 93. 87. 87. 93. 93. 93. 93. 93.]",195.54411292128134,None,l,1,0.648587563802721,195.54411292128134,None,None,None,17_KH,43,F,17,2021_Nov_03_1614,Partial repeat,2021.2.3,120.09559684222607,
4,2,0,1,1,2,3,2,3,1,1,0,0,1,0,0,0,24,24,24,,,,,,,,,,,,,,,,,,,,,,,,,,17_KH,43,F,17,2021_Nov_03_1614,Partial repeat,2021.2.3,120.09559684222607,
3,2,0,1,1,2,2,2,2,0,1,1,1,0,0,0,0,25,25,25,0,0,0,0,,,,,,,196.2102165252436,None,0.8058891497007078,198.3250434724614,None,"[87. 93. 87. 87. 93. 93. 87. 87. 87. 93. 93. 93. 93. 87. 93. 87. 87. 87.
 93. 93. 87. 93. 93. 93. 87. 93. 93. 93. 93. 87. 93. 93. 87. 93.]",199.2076068947863,None,s,1,0.6331215666104981,199.2076068947863,None,None,None,17_KH,43,F,17,2021_Nov_03_1614,Partial repeat,2021.2.3,120.09559684222607,
3,2,0,1,1,2,2,2,2,0,1,1,1,0,0,0,0,25,25,25,1,0,1,0,,,,,,,,,0.8331265329964894,199.90702762545698,None,"[93. 87. 87. 93. 87. 93. 87. 87. 87. 87. 93. 93. 87. 93. 87. 87. 93. 93.
 93. 93. 87. 93. 93. 93. 93. 93. 93. 87. 93. 93. 87. 93. 87. 93.]",200.8145420911569,None,l,1,0.5782013051430113,200.8145420911569,None,None,None,17_KH,43,F,17,2021_Nov_03_1614,Partial repeat,2021.2.3,120.09559684222607,
3,2,0,1,1,2,2,2,2,0,1,1,1,0,0,0,0,25,25,25,,,,,,,,,,,,,,,,,,,,,,,,,,17_KH,43,F,17,2021_Nov_03_1614,Partial repeat,2021.2.3,120.09559684222607,
4,4,0,1,1,2,3,2,3,0,0,0,0,1,0,0,0,26,26,26,0,0,0,0,,,,,,,201.42237335579193,None,0.9624636933224038,202.14674512983402,None,"[87. 87. 87. 93. 93. 93. 93. 87. 93. 93. 87. 93. 87. 87. 87. 93. 87. 93.
 87. 87. 87. 87. 93. 87. 93. 87. 93. 87. 93. 93. 87. 87. 87. 87.]",203.1958380611577,None,s,1,0.6766934473853325,203.1958380611577,None,None,None,17_KH,43,F,17,2021_Nov_03_1614,Partial repeat,2021.2.3,120.09559684222607,
4,4,0,1,1,2,3,2,3,0,0,0,0,1,0,0,0,26,26,26,1,0,1,0,,,,,,,,,0.743612624361991,203.93687529385352,None,"[87. 93. 87. 87. 87. 93. 93. 93. 87. 93. 93. 93. 87. 93. 87. 93. 87. 87.
 87. 93. 93. 87. 87. 93. 93. 87. 87. 87. 93. 87. 87. 93. 93. 87.]",204.7694882019823,None,s,1,0.6393154701363528,204.7694882019823,None,None,None,17_KH,43,F,17,2021_Nov_03_1614,Partial repeat,2021.2.3,120.09559684222607,
4,4,0,1,1,2,3,2,3,0,0,0,0,1,0,0,0,26,26,26,,,,,,,,,,,,,,,,,,,,,,,,,,17_KH,43,F,17,2021_Nov_03_1614,Partial repeat,2021.2.3,120.09559684222607,
7,4,0,1,1,2,3,3,3,0,0,0,1,1,0,0,0,27,27,27,0,0,0,0,,,,,,,205.42725490736848,None,0.8979684431899495,206.13496603343447,None,"[87. 93. 87. 93. 93. 87. 93. 87. 87. 93. 93. 93. 87. 87. 87. 87. 87. 93.
 87. 87. 87. 93. 93. 93. 87. 87. 93. 93. 87. 87. 87. 87. 93. 87.]",207.1174753837804,None,l,0,0.5624315940440283,207.1174753837804,None,207.69195520556605,None,17_KH,43,F,17,2021_Nov_03_1614,Partial repeat,2021.2.3,120.09559684222607,
7,4,0,1,1,2,3,3,3,0,0,0,1,1,0,0,0,27,27,27,1,0,1,0,,,,,,,,,0.9061132759745518,208.23314836825375,None,"[87. 87. 93. 87. 87. 93. 93. 87. 93. 93. 87. 87. 87. 87. 93. 87. 93. 93.
 87. 93. 87. 87. 93. 93. 93. 93. 93. 93. 93. 87. 87. 87. 93. 87.]",209.22398884436916,None,s,1,1.0318539860018063,209.22398884436916,None,None,None,17_KH,43,F,17,2021_Nov_03_1614,Partial repeat,2021.2.3,120.09559684222607,
7,4,0,1,1,2,3,3,3,0,0,0,1,1,0,0,0,27,27,27,,,,,,,,,,,,,,,,,,,,,,,,,,17_KH,43,F,17,2021_Nov_03_1614,Partial repeat,2021.2.3,120.09559684222607,
7,1,0,1,1,3,3,2,2,1,1,1,1,1,0,0,0,28,28,28,0,0,0,0,,,,,,,210.27307407861372,None,0.9336072320061392,210.87256555826752,None,"[93. 87. 93. 87. 93. 93. 87. 87. 87. 93. 87. 87. 93. 93. 93. 87. 87. 93.
 93. 87. 93. 93. 87. 87. 93. 87. 87. 87. 93. 87. 93. 93. 87. 87.]",211.9050234985407,None,l,1,0.575660627684556,211.9050234985407,None,None,None,17_KH,43,F,17,2021_Nov_03_1614,Partial repeat,2021.2.3,120.09559684222607,
7,1,0,1,1,3,3,2,2,1,1,1,1,1,0,0,0,28,28,28,1,0,1,0,,,,,,,,,0.7900384186899043,212.54609523980616,None,"[87. 87. 93. 93. 93. 93. 93. 93. 87. 87. 87. 87. 93. 93. 93. 87. 87. 87.
 93. 93. 87. 87. 87. 93. 93. 87. 87. 87. 93. 87. 93. 93. 87. 87.]",213.4203666631838,None,l,1,0.5795444454088283,213.4203666631838,None,None,None,17_KH,43,F,17,2021_Nov_03_1614,Partial repeat,2021.2.3,120.09559684222607,
7,1,0,1,1,3,3,2,2,1,1,1,1,1,0,0,0,28,28,28,,,,,,,,,,,,,,,,,,,,,,,,,,17_KH,43,F,17,2021_Nov_03_1614,Partial repeat,2021.2.3,120.09559684222607,
8,5,0,1,1,3,3,3,2,1,1,1,0,1,0,0,0,29,29,29,0,0,0,0,,,,,,,214.01985942568353,None,0.9540280322961228,214.77754672287483,None,"[87. 93. 93. 87. 93. 93. 93. 87. 87. 93. 87. 93. 87. 87. 87. 93. 87. 87.
 87. 87. 87. 87. 93. 87. 87. 93. 87. 93. 93. 87. 87. 93. 87. 87.]",215.81828126794062,None,l,1,0.5655825857174932,215.81828126794062,None,None,None,17_KH,43,F,17,2021_Nov_03_1614,Partial repeat,2021.2.3,120.09559684222607,
8,5,0,1,1,3,3,3,2,1,1,1,0,1,0,0,0,29,29,29,1,0,1,0,,,,,,,,,0.8454637912599182,216.44273886441079,None,"[93. 93. 87. 87. 87. 87. 93. 87. 87. 93. 93. 93. 93. 93. 93. 93. 93. 87.
 87. 93. 93. 87. 93. 87. 93. 87. 87. 87. 87. 93. 87. 87. 93. 93.]",217.375282306406,None,l,1,0.657308995614585,217.375282306406,None,None,None,17_KH,43,F,17,2021_Nov_03_1614,Partial repeat,2021.2.3,120.09559684222607,
8,5,0,1,1,3,3,3,2,1,1,1,0,1,0,0,0,29,29,29,,,,,,,,,,,,,,,,,,,,,,,,,,17_KH,43,F,17,2021_Nov_03_1614,Partial repeat,2021.2.3,120.09559684222607,
4,1,0,1,1,2,3,3,3,1,0,0,1,0,0,0,0,30,30,30,0,0,0,0,,,,,,,218.05800839366566,None,0.8281015978398488,218.6574976283373,None,"[93. 93. 93. 87. 87. 93. 87. 87. 87. 93. 87. 87. 93. 87. 93. 93. 93. 93.
 93. 93. 93. 87. 93. 87. 87. 87. 87. 87. 93. 93. 87. 93. 87. 93.]",219.59003497680897,None,l,1,0.5219096807813912,219.59003497680897,None,None,None,17_KH,43,F,17,2021_Nov_03_1614,Partial repeat,2021.2.3,120.09559684222607,
4,1,0,1,1,2,3,3,3,1,0,0,1,0,0,0,0,30,30,30,1,0,1,0,,,,,,,,,0.9579226826971419,220.1812023863531,None,"[93. 93. 93. 93. 93. 93. 93. 87. 93. 93. 87. 87. 93. 93. 87. 93. 87. 93.
 87. 87. 93. 93. 93. 87. 93. 93. 87. 87. 87. 93. 93. 87. 87. 87.]",221.2219677197354,None,s,1,0.5540039340776275,221.2219677197354,None,None,None,17_KH,43,F,17,2021_Nov_03_1614,Partial repeat,2021.2.3,120.09559684222607,
4,1,0,1,1,2,3,3,3,1,0,0,1,0,0,0,0,30,30,30,,,,,,,,,,,,,,,,,,,,,,,,,,17_KH,43,F,17,2021_Nov_03_1614,Partial repeat,2021.2.3,120.09559684222607,
5,4,0,1,1,2,2,3,2,0,1,1,0,0,0,0,0,31,31,31,0,0,0,0,,,,,,,221.79647319845026,None,0.7553158104724412,222.4042919553358,None,"[93. 87. 87. 87. 87. 93. 87. 93. 93. 93. 87. 93. 87. 93. 93. 87. 87. 93.
 87. 93. 93. 93. 93. 93. 93. 93. 93. 93. 87. 93. 93. 93. 87. 93.]",223.2452157844018,None,s,1,0.7387113777294871,223.2452157844018,None,None,None,17_KH,43,F,17,2021_Nov_03_1614,Partial repeat,2021.2.3,120.09559684222607,
5,4,0,1,1,2,2,3,2,0,1,1,0,0,0,0,0,31,31,31,1,0,1,0,,,,,,,,,0.92438647137337,224.0445227907294,None,"[87. 87. 93. 93. 93. 87. 87. 93. 87. 93. 87. 87. 93. 87. 87. 87. 87. 87.
 93. 93. 87. 93. 87. 87. 87. 87. 87. 87. 87. 87. 93. 87. 87. 93.]",225.05200114430045,None,l,1,0.5640720339833933,225.05200114430045,None,None,None,17_KH,43,F,17,2021_Nov_03_1614,Partial repeat,2021.2.3,120.09559684222607,
5,4,0,1,1,2,2,3,2,0,1,1,0,0,0,0,0,31,31,31,,,,,,,,,,,,,,,,,,,,,,,,,,17_KH,43,F,17,2021_Nov_03_1614,Partial repeat,2021.2.3,120.09559684222607,
2,4,0,1,1,3,2,3,3,1,0,0,1,0,0,0,0,32,32,32,0,0,0,0,,,,,,,225.6265114336893,None,0.7097333405957722,226.16771838697605,None,"[87. 87. 93. 93. 93. 93. 93. 93. 87. 87. 87. 93. 93. 93. 93. 93. 93. 87.
 87. 93. 93. 93. 87. 93. 93. 87. 87. 93. 87. 93. 87. 87. 93. 93.]",226.9587003610577,None,l,1,0.7043153771337529,226.9587003610577,None,None,None,17_KH,43,F,17,2021_Nov_03_1614,Partial repeat,2021.2.3,120.09559684222607,
2,4,0,1,1,3,2,3,3,1,0,0,1,0,0,0,0,32,32,32,1,0,1,0,,,,,,,,,0.9995903474898314,227.73303643989857,None,"[87. 87. 87. 93. 93. 87. 93. 93. 93. 93. 87. 93. 93. 93. 87. 93. 87. 93.
 93. 93. 87. 93. 93. 93. 87. 93. 87. 87. 87. 87. 93. 93. 93. 93.]",228.81542821736366,None,s,1,0.7516238690004684,228.81542821736366,None,None,None,17_KH,43,F,17,2021_Nov_03_1614,Partial repeat,2021.2.3,120.09559684222607,
2,4,0,1,1,3,2,3,3,1,0,0,1,0,0,0,0,32,32,32,,,,,,,,,,,,,,,,,,,,,,,,,,17_KH,43,F,17,2021_Nov_03_1614,Partial repeat,2021.2.3,120.09559684222607,
5,7,0,1,1,3,2,2,3,1,0,0,0,0,0,0,0,33,33,33,0,0,0,0,,,,,,,229.58975852339427,None,0.8325786973966137,230.37239686395333,None,"[87. 87. 93. 87. 93. 93. 93. 93. 93. 87. 87. 93. 93. 87. 87. 87. 93. 93.
 93. 87. 93. 93. 87. 93. 87. 93. 87. 93. 87. 87. 93. 87. 87. 93.]",231.28829056216273,None,l,1,0.566730412607285,231.28829056216273,None,None,None,17_KH,43,F,17,2021_Nov_03_1614,Partial repeat,2021.2.3,120.09559684222607,
5,7,0,1,1,3,2,2,3,1,0,0,0,0,0,0,0,33,33,33,1,0,1,0,,,,,,,,,0.9477314929359757,231.92940175095646,None,"[93. 93. 87. 93. 93. 87. 93. 87. 93. 93. 87. 87. 93. 87. 87. 93. 87. 87.
 87. 93. 93. 87. 87. 87. 93. 93. 87. 87. 87. 93. 93. 93. 93. 93.]",232.9618526355771,None,s,1,0.8932267087111541,232.9618526355771,None,None,None,17_KH,43,F,17,2021_Nov_03_1614,Partial repeat,2021.2.3,120.09559684222607,
5,7,0,1,1,3,2,2,3,1,0,0,0,0,0,0,0,33,33,33,,,,,,,,,,,,,,,,,,,,,,,,,,17_KH,43,F,17,2021_Nov_03_1614,Partial repeat,2021.2.3,120.09559684222607,
4,6,0,1,1,2,3,2,2,0,1,0,1,0,0,0,0,34,34,34,0,0,0,0,,,,,,,233.86939596532102,None,0.7073579578606107,234.435575770367,None,"[87. 93. 93. 93. 87. 87. 87. 87. 87. 87. 93. 93. 93. 87. 93. 93. 87. 93.
 93. 87. 93. 87. 93. 93. 93. 93. 93. 93. 87. 87. 87. 93. 93. 87.]",235.2265728178936,None,s,1,0.8045143466224545,235.2265728178936,None,None,None,17_KH,43,F,17,2021_Nov_03_1614,Partial repeat,2021.2.3,120.09559684222607,
4,6,0,1,1,2,3,2,2,0,1,0,1,0,0,0,0,34,34,34,1,0,1,0,,,,,,,,,0.7572549073962086,236.09247687508832,None,"[87. 87. 93. 93. 87. 87. 93. 93. 87. 87. 87. 87. 93. 93. 87. 93. 87. 93.
 93. 87. 93. 87. 87. 93. 93. 87. 87. 87. 87. 87. 87. 93. 87. 93.]",236.9334077598105,None,l,1,0.601717805435328,236.9334077598105,None,None,None,17_KH,43,F,17,2021_Nov_03_1614,Partial repeat,2021.2.3,120.09559684222607,
4,6,0,1,1,2,3,2,2,0,1,0,1,0,0,0,0,34,34,34,,,,,,,,,,,,,,,,,,,,,,,,,,17_KH,43,F,17,2021_Nov_03_1614,Partial repeat,2021.2.3,120.09559684222607,
2,1,0,1,1,2,3,2,2,0,0,0,1,1,0,0,0,35,35,35,0,0,0,0,,,,,,,237.5578878060951,None,0.8870323184458979,238.11573937177673,None,"[87. 87. 93. 93. 93. 93. 87. 87. 87. 87. 87. 87. 93. 93. 93. 93. 93. 87.
 87. 87. 93. 87. 87. 93. 87. 93. 93. 87. 87. 87. 93. 87. 93. 93.]",239.0815713971424,None,s,1,0.6446575636036869,239.0815713971424,None,None,None,17_KH,43,F,17,2021_Nov_03_1614,Partial repeat,2021.2.3,120.09559684222607,
2,1,0,1,1,2,3,2,2,0,0,0,1,1,0,0,0,35,35,35,1,0,1,0,,,,,,,,,0.9458592429758461,239.78929054099717,None,"[93. 93. 93. 87. 93. 87. 93. 93. 87. 87. 93. 87. 87. 87. 93. 93. 93. 87.
 93. 87. 93. 87. 93. 87. 93. 93. 93. 87. 93. 93. 87. 87. 93. 87.]",240.82173725636312,None,l,0,0.5523833782608563,240.82173725636312,None,241.38792026852752,None,17_KH,43,F,17,2021_Nov_03_1614,Partial repeat,2021.2.3,120.09559684222607,
2,1,0,1,1,2,3,2,2,0,0,0,1,1,0,0,0,35,35,35,,,,,,,,,,,,,,,,,,,,,,,,,,17_KH,43,F,17,2021_Nov_03_1614,Partial repeat,2021.2.3,120.09559684222607,
8,2,0,1,1,3,3,2,2,0,1,1,1,0,0,0,0,36,36,36,0,0,0,0,,,,,,,241.88748121431854,None,0.8630741839621249,243.82748216362597,None,"[87. 93. 87. 87. 87. 93. 87. 93. 87. 87. 93. 93. 93. 93. 93. 87. 87. 93.
 87. 87. 93. 87. 93. 87. 93. 87. 87. 93. 87. 93. 87. 87. 87. 93.]",244.77666701089765,None,s,1,0.7253136497783998,244.77666701089765,None,None,None,17_KH,43,F,17,2021_Nov_03_1614,Partial repeat,2021.2.3,120.09559684222607,
8,2,0,1,1,3,3,2,2,0,1,1,1,0,0,0,0,36,36,36,1,0,1,0,,,,,,,,,0.7010673196429709,245.5593156142313,None,"[87. 87. 93. 87. 87. 93. 93. 87. 87. 87. 87. 87. 93. 87. 87. 87. 93. 87.
 87. 87. 93. 93. 87. 93. 93. 87. 87. 93. 93. 93. 93. 93. 87. 87.]",246.35029373977522,None,l,1,0.6399639490373374,246.35029373977522,None,None,None,17_KH,43,F,17,2021_Nov_03_1614,Partial repeat,2021.2.3,120.09559684222607,
8,2,0,1,1,3,3,2,2,0,1,1,1,0,0,0,0,36,36,36,,,,,,,,,,,,,,,,,,,,,,,,,,17_KH,43,F,17,2021_Nov_03_1614,Partial repeat,2021.2.3,120.09559684222607,
8,8,0,1,1,2,2,3,2,1,1,1,0,1,0,0,0,37,37,37,0,0,0,0,,,,,,,247.00808225355286,None,0.7947938780708388,247.59088678687476,None,"[93. 93. 93. 93. 93. 87. 93. 93. 87. 93. 93. 87. 87. 87. 87. 93. 93. 93.
 87. 93. 93. 93. 87. 93. 87. 93. 87. 87. 93. 87. 93. 87. 87. 93.]",248.48178422137426,None,l,1,0.540178056111472,248.48178422137426,None,None,None,17_KH,43,F,17,2021_Nov_03_1614,Partial repeat,2021.2.3,120.09559684222607,
8,8,0,1,1,2,2,3,2,1,1,1,0,1,0,0,0,37,37,37,1,0,1,0,,,,,,,,,0.8035416406498044,249.08962125881953,None,"[93. 87. 93. 93. 93. 93. 93. 93. 87. 93. 87. 93. 93. 87. 93. 87. 87. 87.
 87. 87. 93. 87. 87. 87. 93. 87. 93. 93. 87. 87. 93. 93. 93. 87.]",249.9971722856426,None,l,1,0.5770531575399218,249.9971722856426,None,None,None,17_KH,43,F,17,2021_Nov_03_1614,Partial repeat,2021.2.3,120.09559684222607,
8,8,0,1,1,2,2,3,2,1,1,1,0,1,0,0,0,37,37,37,,,,,,,,,,,,,,,,,,,,,,,,,,17_KH,43,F,17,2021_Nov_03_1614,Partial repeat,2021.2.3,120.09559684222607,
6,3,0,1,1,3,3,2,3,0,1,1,0,0,0,0,0,38,38,38,0,0,0,0,,,,,,,250.60495544353398,None,0.8781336446928297,251.35428948585468,None,"[87. 93. 87. 93. 93. 87. 93. 93. 93. 93. 93. 87. 93. 87. 87. 93. 93. 93.
 87. 93. 93. 87. 87. 93. 87. 87. 93. 93. 93. 87. 87. 87. 87. 87.]",252.3285289663545,None,s,1,0.7896926590765361,252.3285289663545,None,None,None,17_KH,43,F,17,2021_Nov_03_1614,Partial repeat,2021.2.3,120.09559684222607,
6,3,0,1,1,3,3,2,3,0,1,1,0,0,0,0,0,38,38,38,1,0,1,0,,,,,,,,,0.9884680553785471,253.17772843807688,None,"[93. 93. 93. 87. 93. 93. 87. 87. 87. 93. 93. 87. 87. 87. 93. 93. 87. 93.
 93. 93. 93. 87. 87. 87. 87. 93. 87. 87. 93. 93. 93. 87. 93. 87.]",254.26014042037787,None,l,1,0.553225246261718,254.26014042037787,None,None,None,17_KH,43,F,17,2021_Nov_03_1614,Partial repeat,2021.2.3,120.09559684222607,
6,3,0,1,1,3,3,2,3,0,1,1,0,0,0,0,0,38,38,38,,,,,,,,,,,,,,,,,,,,,,,,,,17_KH,43,F,17,2021_Nov_03_1614,Partial repeat,2021.2.3,120.09559684222607,
1,5,0,1,1,2,2,3,3,0,0,1,1,1,0,0,0,39,39,39,0,0,0,0,,,,,,,254.84301807594966,None,0.9563783798428418,255.49241677373357,None,"[93. 87. 93. 93. 93. 87. 87. 93. 93. 93. 87. 93. 93. 93. 93. 87. 93. 87.
 87. 93. 87. 93. 87. 87. 93. 87. 93. 87. 93. 93. 93. 93. 93. 93.]",256.53317184434127,None,s,1,0.5691569167283888,256.53317184434127,None,None,None,17_KH,43,F,17,2021_Nov_03_1614,Partial repeat,2021.2.3,120.09559684222607,
1,5,0,1,1,2,2,3,3,0,0,1,1,1,0,0,0,39,39,39,1,0,1,0,,,,,,,,,0.8997287622307176,257.1742862402534,None,"[87. 87. 93. 87. 93. 93. 93. 87. 87. 93. 93. 93. 87. 87. 87. 93. 93. 87.
 93. 87. 87. 87. 93. 93. 87. 93. 93. 93. 87. 93. 93. 93. 93. 87.]",258.15677666861666,None,s,1,0.944492140548391,258.15677666861666,None,None,None,17_KH,43,F,17,2021_Nov_03_1614,Partial repeat,2021.2.3,120.09559684222607,
1,5,0,1,1,2,2,3,3,0,0,1,1,1,0,0,0,39,39,39,,,,,,,,,,,,,,,,,,,,,,,,,,17_KH,43,F,17,2021_Nov_03_1614,Partial repeat,2021.2.3,120.09559684222607,
1,7,0,1,1,2,2,2,3,0,1,1,0,0,0,0,0,40,40,40,0,0,0,0,,,,,,,259.1309144835286,None,0.7301252120440629,259.6971298875651,None,"[87. 87. 93. 87. 87. 93. 87. 93. 87. 87. 87. 93. 93. 87. 87. 87. 87. 87.
 93. 87. 87. 87. 93. 87. 93. 93. 93. 93. 93. 93. 93. 93. 87. 87.]",260.5130978625857,None,s,1,0.6842160591586435,260.5130978625857,None,None,None,17_KH,43,F,17,2021_Nov_03_1614,Partial repeat,2021.2.3,120.09559684222607,
1,7,0,1,1,2,2,2,3,0,1,1,0,0,0,0,0,40,40,40,1,0,1,0,,,,,,,,,0.7645690125420691,261.26242965992424,None,"[93. 87. 87. 93. 93. 93. 87. 87. 93. 93. 87. 93. 93. 93. 87. 87. 87. 87.
 87. 93. 93. 87. 93. 87. 93. 87. 93. 87. 87. 93. 87. 87. 93. 93.]",262.1033932572318,None,l,1,0.5659578183149279,262.1033932572318,None,None,None,17_KH,43,F,17,2021_Nov_03_1614,Partial repeat,2021.2.3,120.09559684222607,
1,7,0,1,1,2,2,2,3,0,1,1,0,0,0,0,0,40,40,40,,,,,,,,,,,,,,,,,,,,,,,,,,17_KH,43,F,17,2021_Nov_03_1614,Partial repeat,2021.2.3,120.09559684222607,
7,2,0,1,1,2,3,2,3,1,0,0,0,0,0,0,0,41,41,41,0,0,0,0,,,,,,,262.677888793889,None,0.932067399460097,263.18576771626977,None,"[93. 93. 93. 87. 87. 87. 87. 87. 87. 87. 93. 93. 93. 93. 87. 87. 87. 93.
 93. 87. 87. 93. 93. 93. 87. 87. 87. 93. 93. 87. 87. 87. 93. 93.]",264.20157944058883,None,l,1,0.9157983925688313,264.20157944058883,None,None,None,17_KH,43,F,17,2021_Nov_03_1614,Partial repeat,2021.2.3,120.09559684222607,
7,2,0,1,1,2,3,2,3,1,0,0,0,0,0,0,0,41,41,41,1,0,1,0,,,,,,,,,0.7738085572618839,265.1757259147198,None,"[93. 87. 87. 87. 87. 87. 93. 87. 87. 87. 93. 93. 93. 93. 93. 93. 93. 93.
 93. 93. 87. 87. 93. 93. 93. 93. 87. 93. 87. 93. 87. 87. 87. 87.]",266.0333334829993,None,s,1,0.5720433213136857,266.0333334829993,None,None,None,17_KH,43,F,17,2021_Nov_03_1614,Partial repeat,2021.2.3,120.09559684222607,
7,2,0,1,1,2,3,2,3,1,0,0,0,0,0,0,0,41,41,41,,,,,,,,,,,,,,,,,,,,,,,,,,17_KH,43,F,17,2021_Nov_03_1614,Partial repeat,2021.2.3,120.09559684222607,
7,8,0,1,1,2,2,2,3,0,0,1,0,1,0,0,0,42,42,42,0,0,0,0,,,,,,,266.6244829326897,None,0.9509905116107256,290.3872942394446,None,"[87. 93. 93. 93. 87. 87. 93. 93. 87. 93. 93. 93. 87. 93. 93. 93. 87. 93.
 93. 87. 87. 87. 87. 87. 87. 87. 87. 93. 93. 93. 93. 93. 93. 93.]",291.4280653456335,None,l,0,0.6798771516441775,291.4280653456335,None,292.1191446877674,None,17_KH,43,F,17,2021_Nov_03_1614,Partial repeat,2021.2.3,120.09559684222607,
7,8,0,1,1,2,2,2,3,0,0,1,0,1,0,0,0,42,42,42,1,0,1,0,,,,,,,,,0.7885421609662864,292.66034490610764,None,"[87. 93. 87. 87. 93. 87. 87. 93. 87. 87. 93. 93. 87. 87. 93. 87. 87. 87.
 93. 87. 87. 93. 87. 87. 93. 93. 93. 93. 87. 93. 87. 87. 87. 87.]",293.53458714472436,None,s,1,0.6050506405954366,293.53458714472436,None,None,None,17_KH,43,F,17,2021_Nov_03_1614,Partial repeat,2021.2.3,120.09559684222607,
7,8,0,1,1,2,2,2,3,0,0,1,0,1,0,0,0,42,42,42,,,,,,,,,,,,,,,,,,,,,,,,,,17_KH,43,F,17,2021_Nov_03_1614,Partial repeat,2021.2.3,120.09559684222607,
7,5,0,1,1,3,3,3,2,1,0,1,0,0,0,0,0,43,43,43,0,0,0,0,,,,,,,294.1674053724346,None,0.8674313729239926,294.72525020317335,None,"[93. 87. 93. 93. 93. 93. 87. 87. 93. 87. 87. 93. 93. 93. 87. 93. 87. 93.
 93. 87. 93. 87. 87. 93. 87. 93. 93. 93. 87. 93. 93. 93. 93. 87.]",295.68276168625016,None,l,1,0.5368946105445502,295.68276168625016,None,None,None,17_KH,43,F,17,2021_Nov_03_1614,Partial repeat,2021.2.3,120.09559684222607,
7,5,0,1,1,3,3,3,2,1,0,1,0,0,0,0,0,43,43,43,1,0,1,0,,,,,,,,,0.7865171499171533,296.2905705010744,None,"[93. 87. 93. 87. 93. 87. 93. 93. 93. 87. 87. 87. 87. 87. 93. 93. 93. 93.
 93. 87. 87. 93. 87. 93. 87. 87. 93. 93. 87. 93. 93. 87. 93. 93.]",297.1648165882325,None,s,1,0.5588928620236402,297.1648165882325,None,None,None,17_KH,43,F,17,2021_Nov_03_1614,Partial repeat,2021.2.3,120.09559684222607,
7,5,0,1,1,3,3,3,2,1,0,1,0,0,0,0,0,43,43,43,,,,,,,,,,,,,,,,,,,,,,,,,,17_KH,43,F,17,2021_Nov_03_1614,Partial repeat,2021.2.3,120.09559684222607,
4,5,0,1,1,3,2,2,2,1,1,0,1,1,0,0,0,44,44,44,0,0,0,0,,,,,,,297.7393438753388,None,0.8223411298043586,298.23887242925775,None,"[93. 87. 93. 93. 93. 87. 87. 93. 93. 87. 93. 93. 93. 93. 87. 87. 93. 87.
 87. 87. 87. 87. 93. 93. 87. 93. 93. 87. 87. 93. 93. 87. 87. 93.]",299.1464471887375,None,l,1,0.6089652466362168,299.1464471887375,None,None,None,17_KH,43,F,17,2021_Nov_03_1614,Partial repeat,2021.2.3,120.09559684222607,
4,5,0,1,1,3,2,2,2,1,1,0,1,1,0,0,0,44,44,44,1,0,1,0,,,,,,,,,0.7555338662175981,299.82918995300497,None,"[87. 93. 87. 93. 93. 93. 93. 87. 87. 93. 87. 93. 87. 87. 93. 93. 87. 87.
 93. 93. 93. 87. 93. 93. 93. 93. 93. 87. 93. 93. 93. 93. 87. 87.]",300.67012693124707,None,l,1,0.5726837824222457,300.67012693124707,None,None,None,17_KH,43,F,17,2021_Nov_03_1614,Partial repeat,2021.2.3,120.09559684222607,
4,5,0,1,1,3,2,2,2,1,1,0,1,1,0,0,0,44,44,44,,,,,,,,,,,,,,,,,,,,,,,,,,17_KH,43,F,17,2021_Nov_03_1614,Partial repeat,2021.2.3,120.09559684222607,
5,1,0,1,1,3,3,2,3,0,0,1,0,1,0,0,0,45,45,45,0,0,0,0,,,,,,,301.2612863229988,None,0.7274137131242668,315.64057207255973,None,"[93. 87. 93. 87. 87. 93. 93. 93. 93. 93. 87. 87. 93. 93. 93. 93. 93. 87.
 87. 87. 93. 87. 93. 87. 87. 87. 93. 93. 93. 87. 93. 87. 87. 87.]",316.4564993172062,None,s,1,0.8183694093422673,316.4564993172062,None,None,None,17_KH,43,F,17,2021_Nov_03_1614,Partial repeat,2021.2.3,120.09559684222607,
5,1,0,1,1,3,3,2,3,0,0,1,0,1,0,0,0,45,45,45,1,0,1,0,,,,,,,,,0.8285689575203875,317.3474057316307,None,"[87. 93. 87. 87. 87. 87. 87. 93. 93. 87. 87. 93. 93. 87. 93. 87. 93. 93.
 87. 93. 93. 87. 87. 93. 87. 87. 87. 93. 93. 93. 87. 87. 87. 87.]",318.2716302348963,None,s,1,0.6182075141186942,318.2716302348963,None,None,None,17_KH,43,F,17,2021_Nov_03_1614,Partial repeat,2021.2.3,120.09559684222607,
5,1,0,1,1,3,3,2,3,0,0,1,0,1,0,0,0,45,45,45,,,,,,,,,,,,,,,,,,,,,,,,,,17_KH,43,F,17,2021_Nov_03_1614,Partial repeat,2021.2.3,120.09559684222607,
8,1,0,1,1,3,2,3,3,0,1,0,1,0,0,0,0,46,46,46,0,0,0,0,,,,,,,318.9210757565743,None,0.9894324243587296,322.2764774703319,None,"[87. 87. 93. 87. 87. 93. 93. 93. 93. 93. 93. 93. 87. 87. 93. 93. 93. 87.
 93. 87. 93. 93. 87. 87. 93. 87. 87. 87. 87. 87. 93. 87. 93. 93.]",323.35889105618844,None,s,1,0.6030606249878474,323.35889105618844,None,None,None,17_KH,43,F,17,2021_Nov_03_1614,Partial repeat,2021.2.3,120.09559684222607,
8,1,0,1,1,3,2,3,3,0,1,0,1,0,0,0,0,46,46,46,1,0,1,0,,,,,,,,,0.902005909021295,324.03332482378755,None,"[87. 87. 87. 93. 93. 93. 93. 93. 87. 87. 87. 87. 87. 93. 93. 93. 87. 93.
 93. 93. 93. 93. 87. 93. 87. 93. 87. 93. 93. 87. 87. 87. 87. 87.]",325.0241027611373,None,l,1,0.6978325124327966,325.0241027611373,None,None,None,17_KH,43,F,17,2021_Nov_03_1614,Partial repeat,2021.2.3,120.09559684222607,
8,1,0,1,1,3,2,3,3,0,1,0,1,0,0,0,0,46,46,46,,,,,,,,,,,,,,,,,,,,,,,,,,17_KH,43,F,17,2021_Nov_03_1614,Partial repeat,2021.2.3,120.09559684222607,
5,2,0,1,1,3,3,2,3,1,1,1,0,1,0,0,0,47,47,47,0,0,0,0,,,,,,,325.7401632935289,None,0.7364005689696597,328.6293542214953,None,"[93. 93. 87. 93. 93. 87. 87. 87. 87. 93. 93. 93. 93. 93. 93. 87. 93. 93.
 87. 93. 87. 87. 93. 87. 93. 87. 93. 93. 87. 87. 87. 87. 87. 93.]",329.4536520394395,None,l,1,1.2931133692218282,329.4536520394395,None,None,None,17_KH,43,F,17,2021_Nov_03_1614,Partial repeat,2021.2.3,120.09559684222607,
5,2,0,1,1,3,3,2,3,1,1,1,0,1,0,0,0,47,47,47,1,0,1,0,,,,,,,,,0.9356869419605666,330.8108029143732,None,"[87. 87. 87. 93. 87. 87. 93. 87. 87. 93. 93. 87. 93. 93. 87. 87. 93. 93.
 87. 93. 87. 93. 87. 93. 93. 93. 93. 93. 93. 87. 93. 93. 87. 93.]",331.83490503408393,None,l,1,0.8622097257430141,331.83490503408393,None,None,None,17_KH,43,F,17,2021_Nov_03_1614,Partial repeat,2021.2.3,120.09559684222607,
5,2,0,1,1,3,3,2,3,1,1,1,0,1,0,0,0,47,47,47,,,,,,,,,,,,,,,,,,,,,,,,,,17_KH,43,F,17,2021_Nov_03_1614,Partial repeat,2021.2.3,120.09559684222607,
1,4,0,1,1,2,2,2,2,1,1,1,1,1,0,0,0,48,48,48,0,0,0,0,,,,,,,332.7174886612411,None,0.8290534606708309,333.87483651725415,None,"[87. 87. 93. 87. 87. 93. 93. 87. 87. 87. 87. 87. 93. 93. 87. 93. 93. 93.
 93. 87. 93. 87. 93. 93. 87. 87. 87. 87. 93. 87. 87. 93. 93. 87.]",334.79070006857,None,l,1,0.6423362528948928,334.79070006857,None,None,None,17_KH,43,F,17,2021_Nov_03_1614,Partial repeat,2021.2.3,120.09559684222607,
1,4,0,1,1,2,2,2,2,1,1,1,1,1,0,0,0,48,48,48,1,0,1,0,,,,,,,,,0.8381630678118241,335.49008840736496,None,"[87. 87. 87. 87. 93. 87. 93. 87. 93. 87. 87. 93. 93. 93. 87. 93. 87. 93.
 93. 93. 87. 93. 87. 87. 87. 93. 87. 87. 93. 93. 93. 87. 93. 87.]",336.4142811601814,None,l,1,0.6187745322604314,336.4142811601814,None,None,None,17_KH,43,F,17,2021_Nov_03_1614,Partial repeat,2021.2.3,120.09559684222607,
1,4,0,1,1,2,2,2,2,1,1,1,1,1,0,0,0,48,48,48,,,,,,,,,,,,,,,,,,,,,,,,,,17_KH,43,F,17,2021_Nov_03_1614,Partial repeat,2021.2.3,120.09559684222607,
2,2,0,1,1,2,2,3,3,0,1,1,1,0,0,0,0,49,49,49,0,0,0,0,,,,,,,337.0553968389395,None,0.8023702047397353,340.0694837761621,None,"[87. 87. 87. 87. 93. 87. 87. 87. 87. 93. 93. 87. 93. 87. 93. 87. 87. 87.
 93. 93. 87. 93. 87. 87. 93. 93. 93. 87. 93. 87. 87. 93. 93. 87.]",340.96037832425645,None,s,1,1.7846651837098761,340.96037832425645,None,None,None,17_KH,43,F,17,2021_Nov_03_1614,Partial repeat,2021.2.3,120.09559684222607,
2,2,0,1,1,2,2,3,3,0,1,1,1,0,0,0,0,49,49,49,1,0,1,0,,,,,,,,,0.8417155776516687,342.8087994288762,None,"[87. 87. 93. 87. 93. 87. 93. 87. 93. 93. 93. 93. 93. 87. 87. 93. 87. 93.
 87. 87. 93. 93. 93. 93. 93. 93. 87. 93. 87. 93. 93. 87. 87. 87.]",343.7329867295957,None,l,1,0.5967535102572583,343.7329867295957,None,None,None,17_KH,43,F,17,2021_Nov_03_1614,Partial repeat,2021.2.3,120.09559684222607,
2,2,0,1,1,2,2,3,3,0,1,1,1,0,0,0,0,49,49,49,,,,,,,,,,,,,,,,,,,,,,,,,,17_KH,43,F,17,2021_Nov_03_1614,Partial repeat,2021.2.3,120.09559684222607,
2,6,0,1,1,2,2,3,3,1,0,1,1,0,0,0,0,50,50,50,0,0,0,0,,,,,,,344.34911640741484,None,0.9221333453670835,347.1550457880003,None,"[87. 87. 93. 87. 87. 93. 93. 87. 87. 87. 93. 87. 93. 87. 93. 93. 93. 93.
 93. 93. 93. 93. 87. 93. 87. 93. 93. 87. 87. 93. 93. 93. 93. 87.]",348.1625084266998,None,l,1,0.693686673315824,348.1625084266998,None,None,None,17_KH,43,F,17,2021_Nov_03_1614,Partial repeat,2021.2.3,120.09559684222607,
2,6,0,1,1,2,2,3,3,1,0,1,1,0,0,0,0,50,50,50,1,0,1,0,,,,,,,,,0.9949183480006984,348.9201883475216,None,"[87. 87. 93. 87. 87. 87. 93. 93. 93. 87. 93. 93. 93. 93. 87. 87. 87. 93.
 87. 93. 87. 93. 87. 93. 87. 93. 87. 87. 93. 93. 93. 93. 93. 93.]",350.0025599201581,None,s,1,0.5655947727573221,350.0025599201581,None,None,None,17_KH,43,F,17,2021_Nov_03_1614,Partial repeat,2021.2.3,120.09559684222607,
2,6,0,1,1,2,2,3,3,1,0,1,1,0,0,0,0,50,50,50,,,,,,,,,,,,,,,,,,,,,,,,,,17_KH,43,F,17,2021_Nov_03_1614,Partial repeat,2021.2.3,120.09559684222607,
8,7,0,1,1,3,2,2,3,0,1,0,0,0,0,0,0,51,51,51,0,0,0,0,,,,,,,350.5853997317572,None,0.9705499245748745,351.45132271093826,None,"[93. 93. 87. 93. 93. 87. 87. 93. 87. 87. 87. 93. 87. 87. 87. 93. 93. 93.
 87. 93. 87. 93. 93. 87. 87. 93. 93. 93. 93. 87. 87. 87. 87. 87.]",352.5087486923003,None,s,1,0.7634549206813972,352.5087486923003,None,None,None,17_KH,43,F,17,2021_Nov_03_1614,Partial repeat,2021.2.3,120.09559684222607,
8,7,0,1,1,3,2,2,3,0,1,0,0,0,0,0,0,51,51,51,1,0,1,0,,,,,,,,,0.8242525778834784,353.3330455481082,None,"[87. 87. 93. 93. 93. 87. 87. 87. 93. 93. 87. 93. 87. 87. 93. 93. 93. 87.
 93. 87. 87. 93. 93. 87. 87. 87. 87. 87. 93. 87. 93. 87. 93. 87.]",354.2572809555677,None,l,1,0.5989365942587028,354.2572809555677,None,None,None,17_KH,43,F,17,2021_Nov_03_1614,Partial repeat,2021.2.3,120.09559684222607,
8,7,0,1,1,3,2,2,3,0,1,0,0,0,0,0,0,51,51,51,,,,,,,,,,,,,,,,,,,,,,,,,,17_KH,43,F,17,2021_Nov_03_1614,Partial repeat,2021.2.3,120.09559684222607,
6,7,0,1,1,3,2,2,3,0,0,0,0,1,0,0,0,52,52,52,0,0,0,0,,,,,,,354.873422499717,None,0.7333867088740771,358.01234483170265,None,"[93. 93. 87. 87. 93. 87. 93. 93. 93. 93. 93. 93. 87. 87. 87. 93. 93. 87.
 93. 87. 93. 87. 93. 87. 93. 87. 87. 87. 87. 93. 93. 87. 93. 93.]",358.8366275761982,None,s,1,0.8840784097301366,358.8366275761982,None,None,None,17_KH,43,F,17,2021_Nov_03_1614,Partial repeat,2021.2.3,120.09559684222607,
6,7,0,1,1,3,2,2,3,0,0,0,0,1,0,0,0,52,52,52,1,0,1,0,,,,,,,,,0.7428025482902059,359.79416022624355,None,"[93. 93. 93. 93. 93. 87. 93. 87. 87. 87. 93. 87. 93. 93. 93. 87. 87. 93.
 87. 93. 93. 93. 93. 93. 93. 87. 87. 87. 93. 87. 93. 87. 93. 93.]",360.626749401712,None,l,0,1.557478844486468,360.626749401712,None,362.2087018042621,None,17_KH,43,F,17,2021_Nov_03_1614,Partial repeat,2021.2.3,120.09559684222607,
6,7,0,1,1,3,2,2,3,0,0,0,0,1,0,0,0,52,52,52,,,,,,,,,,,,,,,,,,,,,,,,,,17_KH,43,F,17,2021_Nov_03_1614,Partial repeat,2021.2.3,120.09559684222607,
3,1,0,1,1,2,3,2,3,0,1,0,0,0,0,0,0,53,53,53,0,0,0,0,,,,,,,362.7082816720358,None,0.7479077720498849,363.6658024557546,None,"[87. 93. 87. 87. 93. 93. 93. 93. 87. 87. 87. 93. 87. 93. 87. 93. 93. 93.
 87. 93. 93. 93. 87. 87. 93. 93. 93. 93. 87. 93. 93. 93. 93. 87.]",364.49842434380844,None,l,0,0.9008490617961797,364.49842434380844,None,365.42261292737385,None,17_KH,43,F,17,2021_Nov_03_1614,Partial repeat,2021.2.3,120.09559684222607,
3,1,0,1,1,2,3,2,3,0,1,0,0,0,0,0,0,53,53,53,1,0,1,0,,,,,,,,,0.7877218192831147,365.9554986969488,None,"[93. 93. 93. 87. 87. 93. 93. 87. 87. 93. 93. 87. 87. 87. 93. 87. 93. 87.
 87. 87. 87. 93. 87. 93. 93. 93. 87. 87. 87. 93. 93. 93. 93. 87.]",366.82975023620384,None,l,1,1.1615632352622924,366.82975023620384,None,None,None,17_KH,43,F,17,2021_Nov_03_1614,Partial repeat,2021.2.3,120.09559684222607,
3,1,0,1,1,2,3,2,3,0,1,0,0,0,0,0,0,53,53,53,,,,,,,,,,,,,,,,,,,,,,,,,,17_KH,43,F,17,2021_Nov_03_1614,Partial repeat,2021.2.3,120.09559684222607,
8,4,0,1,1,2,3,3,2,0,0,0,0,1,0,0,0,54,54,54,0,0,0,0,,,,,,,368.00370935060346,None,0.8607245930578633,371.01779789138527,None,"[87. 93. 87. 87. 93. 87. 93. 87. 93. 93. 87. 87. 87. 87. 87. 93. 87. 93.
 87. 93. 87. 87. 87. 87. 87. 93. 93. 93. 93. 93. 93. 93. 93. 87.]",371.96698498364276,None,s,1,0.7283761250437237,371.96698498364276,None,None,None,17_KH,43,F,17,2021_Nov_03_1614,Partial repeat,2021.2.3,120.09559684222607,
8,4,0,1,1,2,3,3,2,0,0,0,0,1,0,0,0,54,54,54,1,0,1,0,,,,,,,,,0.9401715815548457,372.75796631630146,None,"[87. 87. 87. 87. 87. 93. 93. 87. 93. 87. 93. 87. 93. 93. 87. 87. 93. 93.
 87. 87. 93. 87. 93. 93. 87. 87. 93. 87. 93. 87. 87. 87. 93. 87.]",373.78207741593724,None,l,0,1.3133371233052458,373.78207741593724,None,375.10593040686217,None,17_KH,43,F,17,2021_Nov_03_1614,Partial repeat,2021.2.3,120.09559684222607,
8,4,0,1,1,2,3,3,2,0,0,0,0,1,0,0,0,54,54,54,,,,,,,,,,,,,,,,,,,,,,,,,,17_KH,43,F,17,2021_Nov_03_1614,Partial repeat,2021.2.3,120.09559684222607,
6,6,0,1,1,3,3,2,3,1,0,1,0,0,0,0,0,55,55,55,0,0,0,0,,,,,,,375.60550482254257,None,0.7135391610059881,376.6379473686575,None,"[87. 93. 93. 87. 87. 87. 87. 87. 93. 87. 87. 93. 87. 93. 93. 87. 87. 87.
 87. 87. 87. 87. 87. 87. 87. 87. 87. 87. 87. 93. 87. 93. 93. 93.]",377.43727297626174,None,l,1,1.2101523286291922,377.43727297626174,None,None,None,17_KH,43,F,17,2021_Nov_03_1614,Partial repeat,2021.2.3,120.09559684222607,
6,6,0,1,1,3,3,2,3,1,0,1,0,0,0,0,0,55,55,55,1,0,1,0,,,,,,,,,0.8549649136527065,378.71117417014466,None,"[87. 93. 87. 87. 93. 87. 93. 87. 87. 93. 87. 87. 93. 87. 93. 93. 87. 93.
 93. 93. 93. 93. 87. 87. 87. 87. 93. 87. 87. 87. 87. 93. 93. 87.]",379.6520278916505,None,s,1,1.1230553909772425,379.6520278916505,None,None,None,17_KH,43,F,17,2021_Nov_03_1614,Partial repeat,2021.2.3,120.09559684222607,
6,6,0,1,1,3,3,2,3,1,0,1,0,0,0,0,0,55,55,55,,,,,,,,,,,,,,,,,,,,,,,,,,17_KH,43,F,17,2021_Nov_03_1614,Partial repeat,2021.2.3,120.09559684222607,
1,8,0,1,1,3,2,3,2,1,0,0,0,0,0,0,0,56,56,56,0,0,0,0,,,,,,,380.8010308312914,None,0.8683328089977489,381.6419681302468,None,"[87. 87. 87. 87. 93. 93. 93. 87. 87. 93. 87. 93. 93. 87. 93. 93. 87. 93.
 93. 93. 93. 93. 87. 93. 87. 93. 93. 93. 93. 93. 93. 93. 87. 93.]",382.59946069134094,None,l,1,0.8790255981475639,382.59946069134094,None,None,None,17_KH,43,F,17,2021_Nov_03_1614,Partial repeat,2021.2.3,120.09559684222607,
1,8,0,1,1,3,2,3,2,1,0,0,0,0,0,0,0,56,56,56,1,0,1,0,,,,,,,,,0.8591427593287628,383.5403381455071,None,"[87. 93. 87. 93. 93. 93. 93. 87. 93. 87. 87. 87. 87. 93. 87. 87. 87. 93.
 93. 93. 87. 87. 87. 93. 87. 93. 87. 87. 93. 87. 87. 93. 87. 87.]",384.489530048435,None,s,1,0.7969817927878466,384.489530048435,None,None,None,17_KH,43,F,17,2021_Nov_03_1614,Partial repeat,2021.2.3,120.09559684222607,
1,8,0,1,1,3,2,3,2,1,0,0,0,0,0,0,0,56,56,56,,,,,,,,,,,,,,,,,,,,,,,,,,17_KH,43,F,17,2021_Nov_03_1614,Partial repeat,2021.2.3,120.09559684222607,
3,7,0,1,1,2,3,3,3,1,1,0,1,1,0,0,0,57,57,57,0,0,0,0,,,,,,,385.30545985877325,None,0.9832963296829508,386.8208536958482,None,"[87. 93. 93. 87. 87. 87. 87. 93. 87. 87. 87. 87. 87. 87. 87. 93. 87. 93.
 87. 87. 87. 87. 93. 87. 93. 93. 93. 93. 93. 93. 87. 87. 87. 87.]",387.8948944634285,None,l,1,1.167711277026683,387.8948944634285,None,None,None,17_KH,43,F,17,2021_Nov_03_1614,Partial repeat,2021.2.3,120.09559684222607,
3,7,0,1,1,2,3,3,3,1,1,0,1,1,0,0,0,57,57,57,1,0,1,0,,,,,,,,,0.9911959521476893,389.13550867749655,None,"[87. 93. 87. 93. 93. 87. 93. 87. 87. 87. 87. 93. 87. 87. 87. 93. 93. 93.
 87. 93. 93. 93. 87. 93. 87. 93. 93. 93. 93. 93. 93. 87. 87. 87.]",390.21789692713355,None,l,1,0.8766273166475003,390.21789692713355,None,None,None,17_KH,43,F,17,2021_Nov_03_1614,Partial repeat,2021.2.3,120.09559684222607,
3,7,0,1,1,2,3,3,3,1,1,0,1,1,0,0,0,57,57,57,,,,,,,,,,,,,,,,,,,,,,,,,,17_KH,43,F,17,2021_Nov_03_1614,Partial repeat,2021.2.3,120.09559684222607,
2,7,0,1,1,2,3,3,2,1,1,0,0,1,0,0,0,58,58,58,0,0,0,0,,,,,,,391.1171116968035,None,0.8818886715084713,392.32446779510065,None,"[93. 87. 87. 93. 87. 87. 87. 93. 93. 87. 87. 87. 87. 93. 87. 93. 87. 93.
 93. 87. 93. 93. 93. 87. 87. 87. 87. 87. 93. 87. 87. 87. 87. 87.]",393.3152274518907,None,l,1,0.7073948501129053,393.3152274518907,None,None,None,17_KH,43,F,17,2021_Nov_03_1614,Partial repeat,2021.2.3,120.09559684222607,
2,7,0,1,1,2,3,3,2,1,1,0,0,1,0,0,0,58,58,58,1,0,1,0,,,,,,,,,0.7627931539089088,394.089566417133,None,"[87. 93. 87. 93. 93. 93. 87. 93. 87. 93. 93. 87. 93. 87. 93. 93. 93. 93.
 93. 87. 93. 87. 87. 93. 87. 93. 87. 93. 87. 93. 93. 93. 93. 87.]",394.9554932448518,None,l,1,0.7310559913457837,394.9554932448518,None,None,None,17_KH,43,F,17,2021_Nov_03_1614,Partial repeat,2021.2.3,120.09559684222607,
2,7,0,1,1,2,3,3,2,1,1,0,0,1,0,0,0,58,58,58,,,,,,,,,,,,,,,,,,,,,,,,,,17_KH,43,F,17,2021_Nov_03_1614,Partial repeat,2021.2.3,120.09559684222607,
5,8,0,1,1,3,3,2,2,1,0,1,1,0,0,0,0,59,59,59,0,0,0,0,,,,,,,395.70481189301427,None,0.9373743276246423,396.40422139877774,None,"[87. 87. 93. 93. 87. 87. 93. 87. 93. 87. 87. 87. 87. 93. 93. 87. 93. 87.
 87. 93. 93. 93. 87. 93. 93. 93. 87. 93. 87. 93. 87. 87. 87. 87.]",397.43665753066307,None,l,1,1.5610939058751683,397.43665753066307,None,None,None,17_KH,43,F,17,2021_Nov_03_1614,Partial repeat,2021.2.3,120.09559684222607,
5,8,0,1,1,3,3,2,2,1,0,1,1,0,0,0,0,59,59,59,1,0,1,0,,,,,,,,,0.8070103219847035,399.0602870497314,None,"[87. 87. 87. 93. 87. 93. 93. 87. 87. 93. 93. 93. 87. 93. 87. 87. 87. 87.
 87. 87. 87. 93. 87. 87. 93. 87. 87. 93. 93. 93. 87. 87. 87. 87.]",399.9511697314956,None,s,1,1.9746316565215238,399.9511697314956,None,None,None,17_KH,43,F,17,2021_Nov_03_1614,Partial repeat,2021.2.3,120.09559684222607,
5,8,0,1,1,3,3,2,2,1,0,1,1,0,0,0,0,59,59,59,,,,,,,,,,,,,,,,,,,,,,,,,,17_KH,43,F,17,2021_Nov_03_1614,Partial repeat,2021.2.3,120.09559684222607,
7,6,0,1,1,3,2,2,2,0,0,0,1,1,0,0,0,60,60,60,0,0,0,0,,,,,,,401.94945616930636,None,0.7610290176363147,403.0734512996205,None,"[93. 87. 87. 93. 87. 87. 87. 93. 87. 87. 93. 87. 93. 87. 87. 93. 87. 93.
 93. 93. 93. 93. 87. 93. 93. 93. 87. 87. 93. 87. 93. 93. 93. 93.]",403.92273255280816,None,s,1,1.1067962739471113,403.92273255280816,None,None,None,17_KH,43,F,17,2021_Nov_03_1614,Partial repeat,2021.2.3,120.09559684222607,
7,6,0,1,1,3,2,2,2,0,0,0,1,1,0,0,0,60,60,60,1,0,1,0,,,,,,,,,0.781100242355884,405.09672758690795,None,"[87. 87. 93. 87. 87. 87. 87. 87. 93. 87. 87. 93. 87. 93. 93. 93. 93. 87.
 87. 93. 93. 93. 93. 93. 93. 87. 93. 87. 93. 87. 87. 87. 87. 93.]",405.9626534524941,None,s,1,0.8910433039964119,405.9626534524941,None,None,None,17_KH,43,F,17,2021_Nov_03_1614,Partial repeat,2021.2.3,120.09559684222607,
7,6,0,1,1,3,2,2,2,0,0,0,1,1,0,0,0,60,60,60,,,,,,,,,,,,,,,,,,,,,,,,,,17_KH,43,F,17,2021_Nov_03_1614,Partial repeat,2021.2.3,120.09559684222607,
2,3,0,1,1,3,2,2,2,0,1,0,1,0,0,0,0,61,61,61,0,0,0,0,,,,,,,406.8701993479299,None,0.8521254615881781,407.5945839504384,None,"[93. 93. 93. 87. 93. 93. 93. 93. 87. 87. 93. 93. 87. 93. 93. 93. 87. 93.
 87. 87. 87. 93. 87. 87. 93. 87. 87. 87. 93. 87. 87. 93. 87. 93.]",408.5354588389091,None,s,1,1.2293799524195492,408.5354588389091,None,None,None,17_KH,43,F,17,2021_Nov_03_1614,Partial repeat,2021.2.3,120.09559684222607,
2,3,0,1,1,3,2,2,2,0,1,0,1,0,0,0,0,61,61,61,1,0,1,0,,,,,,,,,0.7935373797518661,409.82597834683475,None,"[87. 93. 93. 93. 93. 87. 93. 93. 87. 87. 87. 93. 93. 87. 87. 93. 93. 87.
 87. 87. 93. 87. 87. 87. 93. 87. 93. 93. 87. 93. 93. 93. 93. 93.]",410.7085671053792,None,l,1,1.0722052806813736,410.7085671053792,None,None,None,17_KH,43,F,17,2021_Nov_03_1614,Partial repeat,2021.2.3,120.09559684222607,
2,3,0,1,1,3,2,2,2,0,1,0,1,0,0,0,0,61,61,61,,,,,,,,,,,,,,,,,,,,,,,,,,17_KH,43,F,17,2021_Nov_03_1614,Partial repeat,2021.2.3,120.09559684222607,
4,8,0,1,1,2,2,2,3,1,0,1,0,0,0,0,0,62,62,62,0,0,0,0,,,,,,,411.8076034952428,None,0.9973975993609268,412.44039029321357,None,"[93. 87. 93. 93. 87. 93. 93. 93. 93. 93. 87. 93. 87. 87. 87. 87. 87. 93.
 93. 93. 87. 87. 87. 87. 93. 93. 87. 93. 87. 87. 87. 93. 93. 93.]",413.52281670753655,None,l,1,0.9779372311932093,413.52281670753655,None,None,None,17_KH,43,F,17,2021_Nov_03_1614,Partial repeat,2021.2.3,120.09559684222607,
4,8,0,1,1,2,2,2,3,1,0,1,0,0,0,0,0,62,62,62,1,0,1,0,,,,,,,,,0.9479620952727094,414.5635781923811,None,"[87. 93. 93. 93. 93. 93. 87. 87. 93. 93. 93. 93. 93. 93. 87. 93. 87. 93.
 93. 93. 93. 93. 87. 87. 93. 87. 93. 93. 93. 87. 87. 87. 93. 87.]",415.59602522846035,None,l,0,1.0487570919685822,415.59602522846035,None,416.65343389139525,None,17_KH,43,F,17,2021_Nov_03_1614,Partial repeat,2021.2.3,120.09559684222607,
4,8,0,1,1,2,2,2,3,1,0,1,0,0,0,0,0,62,62,62,,,,,,,,,,,,,,,,,,,,,,,,,,17_KH,43,F,17,2021_Nov_03_1614,Partial repeat,2021.2.3,120.09559684222607,
1,3,0,1,1,3,3,2,2,0,0,1,1,1,0,0,0,63,63,63,0,0,0,0,,,,,,,417.1529974028781,None,0.9251097637068734,418.89318218408516,None,"[93. 87. 87. 93. 93. 87. 93. 93. 93. 87. 93. 87. 87. 87. 87. 93. 93. 87.
 87. 87. 87. 93. 93. 93. 93. 93. 87. 93. 93. 87. 87. 87. 93. 87.]",419.9006557269822,None,s,1,0.7441666823942796,419.9006557269822,None,None,None,17_KH,43,F,17,2021_Nov_03_1614,Partial repeat,2021.2.3,120.09559684222607,
1,3,0,1,1,3,3,2,2,0,0,1,1,1,0,0,0,63,63,63,1,0,1,0,,,,,,,,,0.8042350427944576,420.7082755785159,None,"[87. 93. 93. 87. 87. 93. 87. 93. 93. 87. 93. 87. 93. 93. 93. 93. 93. 93.
 93. 87. 93. 87. 93. 93. 87. 93. 93. 87. 93. 87. 87. 93. 93. 93.]",421.60754326560345,None,s,1,1.0532922749916906,421.60754326560345,None,None,None,17_KH,43,F,17,2021_Nov_03_1614,Partial repeat,2021.2.3,120.09559684222607,
1,3,0,1,1,3,3,2,2,0,0,1,1,1,0,0,0,63,63,63,,,,,,,,,,,,,,,,,,,,,,,,,,17_KH,43,F,17,2021_Nov_03_1614,Partial repeat,2021.2.3,120.09559684222607,
2,2,0,1,1,2,3,3,3,0,1,0,1,0,1,0,0,64,64,64,0,0,0,0,,,,,,,425.07948067808684,None,0.7476172602606194,428.31843456809656,None,"[93. 93. 87. 93. 87. 93. 87. 93. 87. 87. 93. 87. 87. 93. 93. 87. 93. 93.
 93. 87. 93. 87. 93. 93. 93. 87. 93. 87. 93. 87. 87. 93. 93. 93.]",429.16762954985825,None,l,0,1.3001828154738178,429.16762954985825,None,430.4914818993566,None,17_KH,43,F,17,2021_Nov_03_1614,Partial repeat,2021.2.3,120.09559684222607,
2,2,0,1,1,2,3,3,3,0,1,0,1,0,1,0,0,64,64,64,1,0,1,0,,,,,,,,,0.8655244253021818,431.03268853193003,None,"[87. 87. 93. 93. 87. 87. 87. 93. 87. 93. 87. 93. 87. 87. 93. 93. 87. 87.
 93. 93. 93. 87. 87. 87. 87. 87. 87. 93. 87. 93. 87. 87. 87. 87.]",431.98187337920535,None,l,1,0.9820635069045238,431.98187337920535,None,None,None,17_KH,43,F,17,2021_Nov_03_1614,Partial repeat,2021.2.3,120.09559684222607,
2,2,0,1,1,2,3,3,3,0,1,0,1,0,1,0,0,64,64,64,,,,,,,,,,,,,,,,,,,,,,,,,,17_KH,43,F,17,2021_Nov_03_1614,Partial repeat,2021.2.3,120.09559684222607,
2,2,0,1,1,2,2,3,3,0,1,1,1,0,1,0,0,65,65,65,0,0,0,0,,,,,,,432.9893305658079,None,0.8835746052237768,433.613789445124,None,"[87. 93. 87. 87. 87. 93. 87. 87. 93. 87. 87. 93. 87. 87. 87. 93. 93. 93.
 93. 87. 87. 93. 87. 87. 93. 93. 87. 93. 87. 93. 87. 93. 93. 93.]",434.5879577276428,None,s,1,0.6320151115214685,434.5879577276428,None,None,None,17_KH,43,F,17,2021_Nov_03_1614,Partial repeat,2021.2.3,120.09559684222607,
2,2,0,1,1,2,2,3,3,0,1,1,1,0,1,0,0,65,65,65,1,0,1,0,,,,,,,,,0.8062062900330167,435.270713961796,None,"[93. 93. 93. 93. 87. 87. 87. 87. 93. 87. 93. 87. 93. 87. 87. 87. 93. 87.
 93. 87. 93. 93. 87. 93. 93. 93. 87. 87. 93. 93. 93. 87. 87. 87.]",436.1616242247619,None,l,1,1.6023557008484204,436.1616242247619,None,None,None,17_KH,43,F,17,2021_Nov_03_1614,Partial repeat,2021.2.3,120.09559684222607,
2,2,0,1,1,2,2,3,3,0,1,1,1,0,1,0,0,65,65,65,,,,,,,,,,,,,,,,,,,,,,,,,,17_KH,43,F,17,2021_Nov_03_1614,Partial repeat,2021.2.3,120.09559684222607,
2,2,0,1,1,2,2,3,3,1,0,1,1,0,1,0,0,66,66,66,0,0,0,0,,,,,,,437.77688092555036,None,0.7812849586789427,439.88340625246565,None,"[87. 87. 93. 87. 87. 93. 87. 87. 87. 93. 87. 87. 87. 87. 93. 87. 87. 87.
 93. 93. 93. 87. 87. 87. 87. 87. 87. 93. 87. 87. 93. 93. 87. 87.]",440.7493241002594,None,l,1,0.7748712922439154,440.7493241002594,None,None,None,17_KH,43,F,17,2021_Nov_03_1614,Partial repeat,2021.2.3,120.09559684222607,
2,2,0,1,1,2,2,3,3,1,0,1,1,0,1,0,0,66,66,66,1,0,1,0,,,,,,,,,0.8163749834064287,441.58192995273566,None,"[87. 93. 87. 93. 93. 93. 93. 87. 87. 87. 93. 87. 93. 87. 87. 87. 87. 93.
 87. 87. 93. 93. 93. 87. 87. 93. 93. 87. 87. 93. 87. 93. 93. 87.]",442.4811697379082,None,s,1,1.1699030202435097,442.4811697379082,None,None,None,17_KH,43,F,17,2021_Nov_03_1614,Partial repeat,2021.2.3,120.09559684222607,
2,2,0,1,1,2,2,3,3,1,0,1,1,0,1,0,0,66,66,66,,,,,,,,,,,,,,,,,,,,,,,,,,17_KH,43,F,17,2021_Nov_03_1614,Partial repeat,2021.2.3,120.09559684222607,
2,2,0,1,1,2,3,2,3,1,1,0,0,1,1,0,0,67,67,67,0,0,0,0,,,,,,,443.6718116293887,None,0.9412599881823205,444.8208161725888,None,"[93. 87. 93. 93. 87. 93. 93. 87. 93. 93. 93. 87. 87. 87. 87. 87. 93. 87.
 93. 93. 87. 87. 93. 87. 93. 87. 87. 93. 87. 93. 87. 93. 93. 93.]",445.84494330780944,None,l,1,0.7981366753374459,445.84494330780944,None,None,None,17_KH,43,F,17,2021_Nov_03_1614,Partial repeat,2021.2.3,120.09559684222607,
2,2,0,1,1,2,3,2,3,1,1,0,0,1,1,0,0,67,67,67,1,0,1,0,,,,,,,,,0.7525478386530964,446.70252329489085,None,"[93. 93. 93. 87. 93. 93. 87. 93. 93. 93. 87. 87. 87. 87. 93. 87. 87. 87.
 93. 93. 93. 93. 87. 87. 93. 87. 87. 93. 93. 93. 93. 93. 87. 87.]",447.54345193463087,None,l,1,1.0036733766100951,447.54345193463087,None,None,None,17_KH,43,F,17,2021_Nov_03_1614,Partial repeat,2021.2.3,120.09559684222607,
2,2,0,1,1,2,3,2,3,1,1,0,0,1,1,0,0,67,67,67,,,,,,,,,,,,,,,,,,,,,,,,,,17_KH,43,F,17,2021_Nov_03_1614,Partial repeat,2021.2.3,120.09559684222607,
2,2,0,1,1,3,3,2,2,1,0,1,1,0,1,0,0,68,68,68,0,0,0,0,,,,,,,448.55924986834725,None,0.7051720096965421,449.366896980373,None,"[93. 93. 87. 93. 87. 87. 93. 87. 87. 87. 93. 87. 87. 87. 87. 93. 87. 87.
 87. 87. 93. 93. 87. 93. 93. 93. 93. 87. 87. 87. 87. 93. 87. 93.]",450.15788761367,None,l,1,1.4292576971456583,450.15788761367,None,None,None,17_KH,43,F,17,2021_Nov_03_1614,Partial repeat,2021.2.3,120.09559684222607,
2,2,0,1,1,3,3,2,2,1,0,1,1,0,1,0,0,68,68,68,1,0,1,0,,,,,,,,,0.8495092560904236,451.6399377049747,None,"[93. 93. 93. 87. 93. 93. 93. 93. 87. 93. 87. 87. 87. 87. 87. 93. 87. 93.
 93. 87. 87. 87. 93. 87. 87. 87. 93. 93. 93. 93. 87. 93. 93. 87.]",452.5724641492525,None,s,1,1.542673192521761,452.5724641492525,None,None,None,17_KH,43,F,17,2021_Nov_03_1614,Partial repeat,2021.2.3,120.09559684222607,
2,2,0,1,1,3,3,2,2,1,0,1,1,0,1,0,0,68,68,68,,,,,,,,,,,,,,,,,,,,,,,,,,17_KH,43,F,17,2021_Nov_03_1614,Partial repeat,2021.2.3,120.09559684222607,
2,2,0,1,1,3,3,2,3,1,1,1,0,1,1,0,0,69,69,69,0,0,0,0,,,,,,,454.1377696944219,None,0.7524920945370274,454.79551330857066,None,"[93. 93. 87. 87. 87. 87. 93. 93. 87. 87. 93. 87. 93. 93. 93. 93. 93. 87.
 93. 93. 93. 93. 93. 93. 93. 93. 87. 93. 87. 93. 93. 87. 93. 87.]",455.63647498160935,None,l,1,0.9577596595809155,455.63647498160935,None,None,None,17_KH,43,F,17,2021_Nov_03_1614,Partial repeat,2021.2.3,120.09559684222607,
2,2,0,1,1,3,3,2,3,1,1,1,0,1,1,0,0,69,69,69,1,0,1,0,,,,,,,,,0.8584437920315272,456.6606062860774,None,"[93. 87. 93. 87. 93. 87. 93. 87. 93. 87. 87. 93. 87. 87. 87. 87. 93. 93.
 87. 93. 87. 87. 93. 93. 87. 93. 93. 93. 93. 87. 93. 93. 87. 93.]",457.6014276157075,None,l,1,1.4087841087130073,457.6014276157075,None,None,None,17_KH,43,F,17,2021_Nov_03_1614,Partial repeat,2021.2.3,120.09559684222607,
2,2,0,1,1,3,3,2,3,1,1,1,0,1,1,0,0,69,69,69,,,,,,,,,,,,,,,,,,,,,,,,,,17_KH,43,F,17,2021_Nov_03_1614,Partial repeat,2021.2.3,120.09559684222607,
2,2,0,1,1,3,3,2,3,1,0,1,0,0,1,0,0,70,70,70,0,0,0,0,,,,,,,459.0335823552159,None,0.8472562762051397,459.80792388615373,None,"[87. 87. 87. 87. 93. 87. 93. 87. 93. 87. 93. 87. 93. 93. 87. 87. 93. 93.
 87. 87. 87. 87. 93. 93. 93. 87. 87. 87. 87. 93. 87. 93. 93. 93.]",460.7403865088163,None,l,1,0.8458271347408299,460.7403865088163,None,None,None,17_KH,43,F,17,2021_Nov_03_1614,Partial repeat,2021.2.3,120.09559684222607,
2,2,0,1,1,3,3,2,3,1,0,1,0,0,1,0,0,70,70,70,1,0,1,0,,,,,,,,,0.7688694269840344,461.64795389193387,None,"[87. 87. 93. 93. 93. 87. 87. 93. 87. 87. 87. 87. 93. 93. 87. 93. 93. 87.
 93. 93. 93. 93. 87. 87. 93. 93. 87. 93. 87. 93. 93. 93. 93. 87.]",462.5138832853445,None,s,1,1.3450086786833708,462.5138832853445,None,None,None,17_KH,43,F,17,2021_Nov_03_1614,Partial repeat,2021.2.3,120.09559684222607,
2,2,0,1,1,3,3,2,3,1,0,1,0,0,1,0,0,70,70,70,,,,,,,,,,,,,,,,,,,,,,,,,,17_KH,43,F,17,2021_Nov_03_1614,Partial repeat,2021.2.3,120.09559684222607,
2,2,0,1,1,3,3,3,3,0,1,1,1,0,1,0,0,71,71,71,0,0,0,0,,,,,,,463.879389018708,None,0.9631992920212566,464.4122494520634,None,"[87. 93. 87. 87. 87. 87. 93. 93. 93. 87. 87. 87. 87. 93. 87. 93. 87. 87.
 87. 87. 87. 93. 87. 93. 93. 87. 93. 93. 93. 87. 87. 93. 93. 93.]",465.4613359691575,None,s,1,1.3409173605396063,465.4613359691575,None,None,None,17_KH,43,F,17,2021_Nov_03_1614,Partial repeat,2021.2.3,120.09559684222607,
2,2,0,1,1,3,3,3,3,0,1,1,1,0,1,0,0,71,71,71,1,0,1,0,,,,,,,,,0.9743636339635637,466.8684620530803,None,"[87. 87. 93. 93. 87. 87. 93. 93. 93. 93. 87. 93. 93. 93. 87. 93. 93. 93.
 93. 87. 87. 87. 93. 87. 93. 87. 93. 87. 87. 87. 93. 93. 87. 87.]",467.92585660470286,None,l,1,0.9724357440536551,467.92585660470286,None,None,None,17_KH,43,F,17,2021_Nov_03_1614,Partial repeat,2021.2.3,120.09559684222607,
2,2,0,1,1,3,3,3,3,0,1,1,1,0,1,0,0,71,71,71,,,,,,,,,,,,,,,,,,,,,,,,,,17_KH,43,F,17,2021_Nov_03_1614,Partial repeat,2021.2.3,120.09559684222607,
2,2,0,1,1,2,2,2,2,1,0,1,1,0,1,0,0,72,72,72,0,0,0,0,,,,,,,468.9166983636678,None,0.9392819331542777,469.7659642226972,None,"[93. 93. 93. 93. 93. 87. 87. 87. 93. 87. 93. 93. 93. 93. 93. 87. 93. 93.
 93. 87. 87. 87. 93. 87. 87. 87. 87. 93. 87. 93. 93. 93. 87. 93.]",470.7900666631176,None,l,1,1.1965211226161045,470.7900666631176,None,None,None,17_KH,43,F,17,2021_Nov_03_1614,Partial repeat,2021.2.3,120.09559684222607,
2,2,0,1,1,2,2,2,2,1,0,1,1,0,1,0,0,72,72,72,1,0,1,0,,,,,,,,,0.9096130859457146,472.04731266111776,None,"[87. 93. 93. 87. 87. 93. 87. 87. 87. 87. 93. 93. 87. 87. 87. 93. 87. 93.
 87. 87. 93. 93. 87. 87. 87. 93. 87. 87. 93. 87. 93. 87. 87. 87.]",473.0464685481347,None,s,1,1.0029360605949478,473.0464685481347,None,None,None,17_KH,43,F,17,2021_Nov_03_1614,Partial repeat,2021.2.3,120.09559684222607,
2,2,0,1,1,2,2,2,2,1,0,1,1,0,1,0,0,72,72,72,,,,,,,,,,,,,,,,,,,,,,,,,,17_KH,43,F,17,2021_Nov_03_1614,Partial repeat,2021.2.3,120.09559684222607,
2,2,0,1,1,3,2,2,3,1,0,0,0,0,1,0,0,73,73,73,0,0,0,0,,,,,,,474.07057772350163,None,0.7392501284587644,474.76166027274667,None,"[93. 93. 87. 93. 93. 87. 93. 93. 87. 93. 87. 93. 93. 87. 87. 87. 87. 87.
 87. 93. 87. 93. 87. 93. 93. 93. 93. 93. 87. 93. 87. 93. 87. 93.]",475.5859513557443,None,l,1,1.0234253638991504,475.5859513557443,None,None,None,17_KH,43,F,17,2021_Nov_03_1614,Partial repeat,2021.2.3,120.09559684222607,
2,2,0,1,1,3,2,2,3,1,0,0,0,0,1,0,0,73,73,73,1,0,1,0,,,,,,,,,0.8749229600412195,476.67666175122577,None,"[87. 93. 93. 87. 87. 87. 87. 93. 93. 93. 87. 87. 93. 87. 93. 87. 93. 87.
 93. 93. 87. 93. 87. 87. 87. 87. 93. 87. 93. 93. 93. 93. 93. 93.]",477.6341902320237,None,s,1,1.2005903116587433,477.6341902320237,None,None,None,17_KH,43,F,17,2021_Nov_03_1614,Partial repeat,2021.2.3,120.09559684222607,
2,2,0,1,1,3,2,2,3,1,0,0,0,0,1,0,0,73,73,73,,,,,,,,,,,,,,,,,,,,,,,,,,17_KH,43,F,17,2021_Nov_03_1614,Partial repeat,2021.2.3,120.09559684222607,
2,2,0,1,1,2,3,2,2,1,0,0,1,0,1,0,0,74,74,74,0,0,0,0,,,,,,,478.85812006545166,None,0.8039272040995995,479.44927336368346,None,"[87. 87. 93. 87. 87. 93. 93. 93. 93. 87. 87. 93. 93. 87. 93. 93. 93. 87.
 93. 93. 93. 87. 87. 87. 93. 93. 93. 87. 87. 93. 87. 93. 87. 93.]",480.34018651305087,None,l,1,1.0052820660966972,480.34018651305087,None,None,None,17_KH,43,F,17,2021_Nov_03_1614,Partial repeat,2021.2.3,120.09559684222607,
2,2,0,1,1,2,3,2,2,1,0,0,1,0,1,0,0,74,74,74,1,0,1,0,,,,,,,,,0.7870124488728656,481.414253899693,None,"[87. 87. 87. 93. 87. 87. 87. 93. 87. 93. 87. 87. 87. 87. 93. 87. 93. 87.
 87. 87. 87. 87. 93. 87. 87. 87. 93. 93. 93. 87. 93. 87. 87. 87.]",482.2885003075644,None,s,1,1.6660493494091497,482.2885003075644,None,None,None,17_KH,43,F,17,2021_Nov_03_1614,Partial repeat,2021.2.3,120.09559684222607,
2,2,0,1,1,2,3,2,2,1,0,0,1,0,1,0,0,74,74,74,,,,,,,,,,,,,,,,,,,,,,,,,,17_KH,43,F,17,2021_Nov_03_1614,Partial repeat,2021.2.3,120.09559684222607,
2,2,0,1,1,2,2,3,2,0,0,1,0,1,1,0,0,75,75,75,0,0,0,0,,,,,,,483.97036175629546,None,0.7396834981558406,484.5032587507776,None,"[93. 87. 93. 93. 93. 87. 93. 93. 93. 87. 93. 87. 93. 93. 93. 87. 87. 87.
 93. 93. 93. 87. 93. 87. 93. 87. 87. 93. 93. 87. 93. 87. 93. 93.]",485.3275126312292,None,s,1,1.4419668572481896,485.3275126312292,None,None,None,17_KH,43,F,17,2021_Nov_03_1614,Partial repeat,2021.2.3,120.09559684222607,
2,2,0,1,1,2,2,3,2,0,0,1,0,1,1,0,0,75,75,75,1,0,1,0,,,,,,,,,0.8432605362935596,486.8345817567679,None,"[87. 93. 87. 87. 93. 87. 93. 93. 87. 87. 93. 93. 93. 87. 93. 93. 87. 93.
 87. 87. 93. 93. 93. 87. 87. 93. 87. 93. 93. 93. 87. 87. 87. 87.]",487.7671117288737,None,s,1,1.3853788953529147,487.7671117288737,None,None,None,17_KH,43,F,17,2021_Nov_03_1614,Partial repeat,2021.2.3,120.09559684222607,
2,2,0,1,1,2,2,3,2,0,0,1,0,1,1,0,0,75,75,75,,,,,,,,,,,,,,,,,,,,,,,,,,17_KH,43,F,17,2021_Nov_03_1614,Partial repeat,2021.2.3,120.09559684222607,
2,2,0,1,1,3,2,2,2,0,0,0,1,1,1,0,0,76,76,76,0,0,0,0,,,,,,,489.1825474508878,None,0.9325415068663476,490.23165128640903,None,"[93. 93. 93. 93. 93. 87. 87. 87. 93. 87. 87. 93. 87. 87. 93. 87. 93. 87.
 93. 93. 93. 93. 93. 87. 87. 87. 93. 93. 93. 93. 93. 93. 93. 93.]",491.2474126590023,None,s,1,1.1214903182662965,491.2474126590023,None,None,None,17_KH,43,F,17,2021_Nov_03_1614,Partial repeat,2021.2.3,120.09559684222607,
2,2,0,1,1,3,2,2,2,0,0,0,1,1,1,0,0,76,76,76,1,0,1,0,,,,,,,,,0.9131706882137963,492.43805775759756,None,"[87. 87. 87. 93. 87. 93. 93. 87. 87. 93. 93. 93. 87. 87. 93. 87. 87. 93.
 87. 93. 87. 87. 87. 87. 87. 87. 93. 93. 87. 87. 93. 93. 87. 87.]",493.44552392412515,None,s,1,1.1630269630986731,493.44552392412515,None,None,None,17_KH,43,F,17,2021_Nov_03_1614,Partial repeat,2021.2.3,120.09559684222607,
2,2,0,1,1,3,2,2,2,0,0,0,1,1,1,0,0,76,76,76,,,,,,,,,,,,,,,,,,,,,,,,,,17_KH,43,F,17,2021_Nov_03_1614,Partial repeat,2021.2.3,120.09559684222607,
2,2,0,1,1,3,3,3,3,0,0,1,1,1,1,0,0,77,77,77,0,0,0,0,,,,,,,494.62786419530676,None,0.8258910134011594,495.21067578428483,None,"[87. 87. 93. 93. 93. 93. 93. 87. 87. 93. 93. 93. 93. 93. 93. 93. 87. 87.
 87. 87. 87. 93. 87. 87. 87. 87. 93. 93. 87. 87. 87. 87. 93. 93.]",496.1348938733172,None,s,1,1.3376576476293849,496.1348938733172,None,None,None,17_KH,43,F,17,2021_Nov_03_1614,Partial repeat,2021.2.3,120.09559684222607,
2,2,0,1,1,3,3,3,3,0,0,1,1,1,1,0,0,77,77,77,1,0,1,0,,,,,,,,,0.8516608679496711,497.5420369549611,None,"[87. 93. 87. 93. 93. 93. 93. 87. 87. 87. 93. 87. 93. 93. 87. 87. 87. 93.
 87. 87. 93. 93. 87. 93. 93. 93. 87. 93. 87. 93. 93. 87. 87. 93.]",498.48285122893503,None,s,1,1.8857319988492236,498.48285122893503,None,None,None,17_KH,43,F,17,2021_Nov_03_1614,Partial repeat,2021.2.3,120.09559684222607,
2,2,0,1,1,3,3,3,3,0,0,1,1,1,1,0,0,77,77,77,,,,,,,,,,,,,,,,,,,,,,,,,,17_KH,43,F,17,2021_Nov_03_1614,Partial repeat,2021.2.3,120.09559684222607,
2,2,0,1,1,2,3,3,3,0,0,0,1,1,1,0,0,78,78,78,0,0,0,0,,,,,,,500.38955974633063,None,0.9304208079771661,501.0223196045263,None,"[93. 87. 93. 93. 93. 93. 93. 87. 87. 93. 93. 87. 93. 87. 87. 87. 93. 87.
 93. 87. 93. 87. 93. 93. 87. 87. 93. 87. 87. 93. 87. 93. 93. 87.]",502.03809829554666,None,s,1,1.498547763490933,502.03809829554666,None,None,None,17_KH,43,F,17,2021_Nov_03_1614,Partial repeat,2021.2.3,120.09559684222607,
2,2,0,1,1,2,3,3,3,0,0,0,1,1,1,0,0,78,78,78,1,0,1,0,,,,,,,,,0.9608011963176064,503.5867611525864,None,"[93. 93. 87. 87. 87. 87. 93. 93. 87. 87. 93. 93. 93. 87. 87. 87. 93. 93.
 93. 87. 87. 87. 93. 87. 87. 93. 87. 93. 93. 93. 87. 93. 87. 87.]",504.6358781372837,None,s,1,1.123760956539627,504.6358781372837,None,None,None,17_KH,43,F,17,2021_Nov_03_1614,Partial repeat,2021.2.3,120.09559684222607,
2,2,0,1,1,2,3,3,3,0,0,0,1,1,1,0,0,78,78,78,,,,,,,,,,,,,,,,,,,,,,,,,,17_KH,43,F,17,2021_Nov_03_1614,Partial repeat,2021.2.3,120.09559684222607,
2,2,0,1,1,3,2,2,3,1,1,0,0,1,1,0,0,79,79,79,0,0,0,0,,,,,,,505.78489903677473,None,0.9968586301051658,506.3927088137352,None,"[87. 93. 87. 87. 87. 87. 87. 87. 87. 93. 93. 93. 87. 87. 93. 87. 87. 93.
 93. 93. 87. 93. 93. 87. 93. 93. 93. 87. 93. 87. 87. 93. 93. 87.]",507.4751005912003,None,l,1,1.1336084068498167,507.4751005912003,None,None,None,17_KH,43,F,17,2021_Nov_03_1614,Partial repeat,2021.2.3,120.09559684222607,
2,2,0,1,1,3,2,2,3,1,1,0,0,1,1,0,0,79,79,79,1,0,1,0,,,,,,,,,0.7174659108218298,508.6657437655267,None,"[87. 87. 87. 93. 93. 93. 93. 93. 87. 93. 87. 87. 93. 87. 93. 87. 87. 87.
 87. 93. 93. 93. 93. 87. 93. 93. 87. 87. 93. 87. 87. 93. 87. 93.]",509.47340498886115,None,l,1,1.5498936939511623,509.47340498886115,None,None,None,17_KH,43,F,17,2021_Nov_03_1614,Partial repeat,2021.2.3,120.09559684222607,
2,2,0,1,1,3,2,2,3,1,1,0,0,1,1,0,0,79,79,79,,,,,,,,,,,,,,,,,,,,,,,,,,17_KH,43,F,17,2021_Nov_03_1614,Partial repeat,2021.2.3,120.09559684222607,
2,2,0,1,1,2,2,2,3,1,0,1,0,0,1,0,0,80,80,80,0,0,0,0,,,,,,,511.04701856856263,None,0.8121966458125751,512.6622839285628,None,"[87. 93. 93. 93. 87. 93. 93. 93. 87. 87. 87. 87. 93. 87. 87. 93. 93. 87.
 87. 93. 93. 93. 93. 93. 87. 87. 87. 87. 93. 87. 93. 87. 93. 87.]",513.5615342972233,None,l,1,0.9181892976994277,513.5615342972233,None,None,None,17_KH,43,F,17,2021_Nov_03_1614,Partial repeat,2021.2.3,120.09559684222607,
2,2,0,1,1,2,2,2,3,1,0,1,0,0,1,0,0,80,80,80,1,0,1,0,,,,,,,,,0.9190051826480122,514.5440106142742,None,"[93. 93. 93. 93. 87. 93. 87. 87. 93. 93. 87. 93. 87. 87. 87. 87. 87. 93.
 93. 93. 87. 87. 93. 87. 87. 87. 93. 93. 93. 87. 93. 93. 87. 87.]",515.5514796672032,None,s,1,1.3442591756283946,515.5514796672032,None,None,None,17_KH,43,F,17,2021_Nov_03_1614,Partial repeat,2021.2.3,120.09559684222607,
2,2,0,1,1,2,2,2,3,1,0,1,0,0,1,0,0,80,80,80,,,,,,,,,,,,,,,,,,,,,,,,,,17_KH,43,F,17,2021_Nov_03_1614,Partial repeat,2021.2.3,120.09559684222607,
2,2,0,1,1,3,2,3,2,1,0,0,0,0,1,0,0,81,81,81,0,0,0,0,,,,,,,516.9169568572324,None,0.9391118796860152,518.4406555217247,None,"[87. 87. 93. 93. 87. 93. 87. 93. 87. 87. 87. 93. 93. 93. 93. 93. 87. 87.
 87. 87. 93. 93. 93. 93. 93. 87. 87. 87. 87. 87. 93. 93. 93. 93.]",519.4647570000125,None,l,1,0.9510737844284449,519.4647570000125,None,None,None,17_KH,43,F,17,2021_Nov_03_1614,Partial repeat,2021.2.3,120.09559684222607,
2,2,0,1,1,3,2,3,2,1,0,0,0,0,1,0,0,81,81,81,1,0,1,0,,,,,,,,,0.7132098128654268,520.4888828523835,None,"[87. 93. 93. 87. 87. 93. 87. 87. 87. 87. 87. 87. 93. 93. 87. 87. 93. 87.
 87. 87. 87. 87. 93. 93. 93. 93. 87. 87. 93. 93. 87. 93. 93. 93.]",521.2881911415607,None,s,1,1.2066209729709954,521.2881911415607,None,None,None,17_KH,43,F,17,2021_Nov_03_1614,Partial repeat,2021.2.3,120.09559684222607,
2,2,0,1,1,3,2,3,2,1,0,0,0,0,1,0,0,81,81,81,,,,,,,,,,,,,,,,,,,,,,,,,,17_KH,43,F,17,2021_Nov_03_1614,Partial repeat,2021.2.3,120.09559684222607,
2,2,0,1,1,2,3,3,3,1,1,0,1,1,1,0,0,82,82,82,0,0,0,0,,,,,,,522.5204604392602,None,0.8042214115847967,523.0783158534832,None,"[93. 93. 93. 87. 93. 87. 93. 93. 93. 93. 87. 87. 93. 87. 87. 87. 93. 93.
 93. 93. 93. 93. 93. 93. 87. 87. 87. 93. 87. 93. 93. 87. 93. 93.]",523.969189876032,None,l,1,1.0536562826819136,523.969189876032,None,None,None,17_KH,43,F,17,2021_Nov_03_1614,Partial repeat,2021.2.3,120.09559684222607,
2,2,0,1,1,2,3,3,3,1,1,0,1,1,1,0,0,82,82,82,1,0,1,0,,,,,,,,,0.8804792478098211,525.0849132122275,None,"[93. 87. 93. 93. 87. 87. 87. 93. 93. 87. 93. 87. 93. 93. 87. 87. 93. 87.
 93. 87. 87. 87. 93. 87. 87. 87. 93. 93. 93. 87. 87. 93. 93. 87.]",526.0507420304784,None,l,1,0.9241195762733696,526.0507420304784,None,None,None,17_KH,43,F,17,2021_Nov_03_1614,Partial repeat,2021.2.3,120.09559684222607,
2,2,0,1,1,2,3,3,3,1,1,0,1,1,1,0,0,82,82,82,,,,,,,,,,,,,,,,,,,,,,,,,,17_KH,43,F,17,2021_Nov_03_1614,Partial repeat,2021.2.3,120.09559684222607,
2,2,0,1,1,2,3,2,2,0,1,0,1,0,1,0,0,83,83,83,0,0,0,0,,,,,,,526.9999374612344,None,0.9460859776162038,527.4328628707663,None,"[93. 93. 87. 93. 87. 87. 93. 93. 93. 93. 87. 93. 93. 87. 93. 87. 93. 87.
 93. 93. 93. 93. 87. 93. 93. 93. 93. 93. 87. 87. 93. 93. 87. 87.]",528.4736509746763,None,s,1,1.0132065295329085,528.4736509746763,None,None,None,17_KH,43,F,17,2021_Nov_03_1614,Partial repeat,2021.2.3,120.09559684222607,
2,2,0,1,1,2,3,2,2,0,1,0,1,0,1,0,0,83,83,83,1,0,1,0,,,,,,,,,0.8009997498031662,529.5893778386999,None,"[93. 87. 93. 93. 87. 87. 93. 87. 93. 93. 87. 87. 87. 87. 87. 93. 87. 87.
 87. 87. 93. 87. 87. 87. 93. 87. 93. 93. 87. 93. 87. 93. 93. 87.]",530.4802505784028,None,l,1,1.054601099116553,530.4802505784028,None,None,None,17_KH,43,F,17,2021_Nov_03_1614,Partial repeat,2021.2.3,120.09559684222607,
2,2,0,1,1,2,3,2,2,0,1,0,1,0,1,0,0,83,83,83,,,,,,,,,,,,,,,,,,,,,,,,,,17_KH,43,F,17,2021_Nov_03_1614,Partial repeat,2021.2.3,120.09559684222607,
2,2,0,1,1,2,2,3,3,1,1,1,1,1,1,0,0,84,84,84,0,0,0,0,,,,,,,531.5459772179311,None,0.9057087554570118,532.0622421077678,None,"[93. 93. 87. 93. 87. 93. 93. 93. 93. 93. 93. 87. 87. 93. 87. 87. 87. 87.
 93. 87. 87. 93. 87. 87. 87. 87. 87. 93. 87. 93. 87. 87. 87. 93.]",533.0530152344436,None,l,1,0.8978940249253355,533.0530152344436,None,None,None,17_KH,43,F,17,2021_Nov_03_1614,Partial repeat,2021.2.3,120.09559684222607,
2,2,0,1,1,2,2,3,3,1,1,1,1,1,1,0,0,84,84,84,1,0,1,0,,,,,,,,,0.9813714967400013,534.0105453187971,None,"[87. 93. 87. 93. 93. 87. 93. 87. 93. 87. 93. 93. 93. 93. 87. 87. 93. 93.
 87. 87. 87. 87. 87. 93. 93. 93. 93. 87. 87. 87. 93. 93. 93. 87.]",535.0929553768292,None,l,1,0.7459677988554176,535.0929553768292,None,None,None,17_KH,43,F,17,2021_Nov_03_1614,Partial repeat,2021.2.3,120.09559684222607,
2,2,0,1,1,2,2,3,3,1,1,1,1,1,1,0,0,84,84,84,,,,,,,,,,,,,,,,,,,,,,,,,,17_KH,43,F,17,2021_Nov_03_1614,Partial repeat,2021.2.3,120.09559684222607,
2,2,0,1,1,3,3,2,2,0,0,1,1,1,1,0,0,85,85,85,0,0,0,0,,,,,,,535.8589247309064,None,0.936365740525263,536.5666656831527,None,"[93. 93. 87. 87. 93. 87. 87. 87. 87. 87. 87. 93. 87. 87. 87. 93. 93. 87.
 87. 93. 87. 93. 93. 93. 87. 93. 93. 93. 87. 87. 87. 93. 93. 87.]",537.5907758206522,None,s,1,0.887174239003798,537.5907758206522,None,None,None,17_KH,43,F,17,2021_Nov_03_1614,Partial repeat,2021.2.3,120.09559684222607,
2,2,0,1,1,3,3,2,2,0,0,1,1,1,1,0,0,85,85,85,1,0,1,0,,,,,,,,,0.8275236970207472,538.5482786445209,None,"[87. 87. 93. 93. 87. 87. 87. 87. 93. 93. 87. 87. 87. 87. 87. 87. 93. 93.
 87. 93. 93. 93. 93. 93. 93. 93. 87. 93. 87. 93. 87. 93. 87. 87.]",539.46416656992,None,s,1,1.1098199431035027,539.46416656992,None,None,None,17_KH,43,F,17,2021_Nov_03_1614,Partial repeat,2021.2.3,120.09559684222607,
2,2,0,1,1,3,3,2,2,0,0,1,1,1,1,0,0,85,85,85,,,,,,,,,,,,,,,,,,,,,,,,,,17_KH,43,F,17,2021_Nov_03_1614,Partial repeat,2021.2.3,120.09559684222607,
2,2,0,1,1,2,2,2,3,0,0,1,0,1,1,0,0,86,86,86,0,0,0,0,,,,,,,540.5965284249942,None,0.8358880574826548,541.6705929252312,None,"[87. 93. 87. 93. 87. 93. 87. 87. 93. 93. 87. 87. 93. 93. 93. 87. 87. 87.
 87. 93. 87. 87. 87. 93. 93. 87. 87. 87. 87. 87. 93. 87. 93. 87.]",542.5948203149019,None,s,1,1.7231805967894616,542.5948203149019,None,None,None,17_KH,43,F,17,2021_Nov_03_1614,Partial repeat,2021.2.3,120.09559684222607,
2,2,0,1,1,2,2,2,3,0,0,1,0,1,1,0,0,86,86,86,1,0,1,0,,,,,,,,,0.7988461335897274,544.384937009032,None,"[87. 93. 87. 87. 87. 93. 93. 87. 87. 93. 87. 93. 87. 87. 87. 87. 87. 93.
 87. 93. 93. 87. 87. 93. 93. 93. 87. 87. 93. 93. 93. 87. 87. 87.]",545.267503317762,None,s,1,0.9065272610350803,545.267503317762,None,None,None,17_KH,43,F,17,2021_Nov_03_1614,Partial repeat,2021.2.3,120.09559684222607,
2,2,0,1,1,2,2,2,3,0,0,1,0,1,1,0,0,86,86,86,,,,,,,,,,,,,,,,,,,,,,,,,,17_KH,43,F,17,2021_Nov_03_1614,Partial repeat,2021.2.3,120.09559684222607,
2,2,0,1,1,2,3,2,2,0,0,0,1,1,1,0,0,87,87,87,0,0,0,0,,,,,,,546.1917348766838,None,0.9085721646525814,546.6746233081685,None,"[87. 93. 87. 87. 93. 87. 93. 93. 93. 87. 87. 87. 87. 87. 87. 87. 87. 93.
 87. 87. 93. 93. 87. 87. 87. 93. 87. 93. 93. 93. 93. 93. 87. 93.]",547.6737840058559,None,s,1,0.8362548549994244,547.6737840058559,None,None,None,17_KH,43,F,17,2021_Nov_03_1614,Partial repeat,2021.2.3,120.09559684222607,
2,2,0,1,1,2,3,2,2,0,0,0,1,1,1,0,0,87,87,87,1,0,1,0,,,,,,,,,0.7919021264513103,548.5729721564603,None,"[87. 93. 87. 93. 93. 93. 93. 93. 93. 87. 87. 93. 93. 93. 93. 87. 87. 93.
 87. 87. 93. 93. 87. 93. 87. 93. 93. 93. 87. 93. 87. 93. 93. 87.]",549.4472313927945,None,s,1,1.3019576335827878,549.4472313927945,None,None,None,17_KH,43,F,17,2021_Nov_03_1614,Partial repeat,2021.2.3,120.09559684222607,
2,2,0,1,1,2,3,2,2,0,0,0,1,1,1,0,0,87,87,87,,,,,,,,,,,,,,,,,,,,,,,,,,17_KH,43,F,17,2021_Nov_03_1614,Partial repeat,2021.2.3,120.09559684222607,
2,2,0,1,1,3,2,3,2,0,1,0,0,0,1,0,0,88,88,88,0,0,0,0,,,,,,,550.7710693102708,None,0.984733120620872,552.7360520912662,None,"[87. 87. 87. 93. 93. 87. 93. 93. 87. 93. 93. 87. 87. 93. 87. 93. 87. 87.
 87. 93. 93. 93. 87. 87. 87. 93. 87. 87. 87. 93. 87. 87. 87. 87.]",553.8101268542741,None,s,1,0.9869771296434919,553.8101268542741,None,None,None,17_KH,43,F,17,2021_Nov_03_1614,Partial repeat,2021.2.3,120.09559684222607,
2,2,0,1,1,3,2,3,2,0,1,0,0,0,1,0,0,88,88,88,1,0,1,0,,,,,,,,,0.7303605162030503,554.8592284448132,None,"[87. 87. 87. 87. 87. 87. 87. 93. 93. 87. 87. 87. 93. 93. 87. 93. 93. 87.
 87. 87. 87. 93. 87. 93. 87. 87. 93. 87. 87. 93. 93. 93. 87. 93.]",555.6752114932788,None,s,0,0.7858996027389367,555.6752114932788,None,556.4744954083726,None,17_KH,43,F,17,2021_Nov_03_1614,Partial repeat,2021.2.3,120.09559684222607,
2,2,0,1,1,3,2,3,2,0,1,0,0,0,1,0,0,88,88,88,,,,,,,,,,,,,,,,,,,,,,,,,,17_KH,43,F,17,2021_Nov_03_1614,Partial repeat,2021.2.3,120.09559684222607,
2,2,0,1,1,3,2,2,2,1,1,0,1,1,1,0,0,89,89,89,0,0,0,0,,,,,,,556.9740573162999,None,0.7583420889460362,558.339559842545,None,"[93. 93. 93. 87. 87. 93. 93. 87. 93. 87. 93. 93. 93. 87. 87. 93. 93. 87.
 87. 93. 93. 87. 93. 87. 87. 87. 93. 87. 87. 87. 93. 87. 93. 93.]",559.1805138185009,None,l,1,0.7046412201380008,559.1805138185009,None,None,None,17_KH,43,F,17,2021_Nov_03_1614,Partial repeat,2021.2.3,120.09559684222607,
2,2,0,1,1,3,2,2,2,1,1,0,1,1,1,0,0,89,89,89,1,0,1,0,,,,,,,,,0.8959393573831493,559.9465158851672,None,"[87. 87. 87. 87. 87. 87. 87. 87. 93. 87. 93. 93. 87. 87. 87. 93. 87. 87.
 93. 87. 87. 87. 93. 93. 93. 93. 87. 87. 87. 87. 87. 87. 93. 87.]",560.9290040685482,None,l,1,0.9881996823387453,560.9290040685482,None,None,None,17_KH,43,F,17,2021_Nov_03_1614,Partial repeat,2021.2.3,120.09559684222607,
2,2,0,1,1,3,2,2,2,1,1,0,1,1,1,0,0,89,89,89,,,,,,,,,,,,,,,,,,,,,,,,,,17_KH,43,F,17,2021_Nov_03_1614,Partial repeat,2021.2.3,120.09559684222607,
2,2,0,1,1,3,3,3,2,0,0,1,0,1,1,0,0,90,90,90,0,0,0,0,,,,,,,561.936500702679,None,0.7759021137515986,562.6941434209548,None,"[87. 87. 87. 87. 87. 87. 87. 93. 87. 87. 93. 93. 87. 87. 93. 93. 93. 93.
 87. 87. 87. 93. 93. 87. 93. 87. 93. 87. 87. 93. 87. 93. 87. 87.]",563.5684049022711,None,s,1,0.7968018735700753,563.5684049022711,None,None,None,17_KH,43,F,17,2021_Nov_03_1614,Partial repeat,2021.2.3,120.09559684222607,
2,2,0,1,1,3,3,3,2,0,0,1,0,1,1,0,0,90,90,90,1,0,1,0,,,,,,,,,0.8441264888011722,564.4260047734715,None,"[93. 87. 93. 93. 93. 93. 93. 87. 93. 87. 93. 87. 93. 87. 87. 93. 93. 93.
 87. 93. 93. 87. 93. 93. 87. 93. 93. 87. 93. 87. 87. 93. 87. 93.]",565.3584834317189,None,s,1,0.9909831384975405,565.3584834317189,None,None,None,17_KH,43,F,17,2021_Nov_03_1614,Partial repeat,2021.2.3,120.09559684222607,
2,2,0,1,1,3,3,3,2,0,0,1,0,1,1,0,0,90,90,90,,,,,,,,,,,,,,,,,,,,,,,,,,17_KH,43,F,17,2021_Nov_03_1614,Partial repeat,2021.2.3,120.09559684222607,
2,2,0,1,1,3,2,2,2,1,0,0,1,0,1,0,0,91,91,91,0,0,0,0,,,,,,,566.357629376671,None,0.8487920820172732,567.9063085900052,None,"[93. 87. 93. 87. 93. 87. 87. 87. 93. 87. 87. 87. 93. 93. 93. 87. 93. 87.
 87. 93. 93. 87. 93. 87. 87. 87. 93. 87. 93. 87. 87. 87. 87. 93.]",568.8388228472395,None,l,1,1.0134435354193556,568.8388228472395,None,None,None,17_KH,43,F,17,2021_Nov_03_1614,Partial repeat,2021.2.3,120.09559684222607,
2,2,0,1,1,3,2,2,2,1,0,0,1,0,1,0,0,91,91,91,1,0,1,0,,,,,,,,,0.8448767021940417,569.9212415644834,None,"[87. 93. 93. 93. 93. 87. 93. 87. 87. 93. 87. 87. 87. 87. 93. 87. 87. 87.
 87. 87. 93. 87. 87. 93. 87. 93. 87. 87. 93. 87. 93. 87. 93. 87.]",570.853759670259,None,s,1,1.254506425044383,570.853759670259,None,None,None,17_KH,43,F,17,2021_Nov_03_1614,Partial repeat,2021.2.3,120.09559684222607,
2,2,0,1,1,3,2,2,2,1,0,0,1,0,1,0,0,91,91,91,,,,,,,,,,,,,,,,,,,,,,,,,,17_KH,43,F,17,2021_Nov_03_1614,Partial repeat,2021.2.3,120.09559684222607,
2,2,0,1,1,2,2,2,3,1,1,1,0,1,1,0,0,92,92,92,0,0,0,0,,,,,,,572.1276624676975,None,0.7172564866012746,573.3016549361055,None,"[87. 87. 93. 87. 93. 87. 87. 87. 87. 93. 87. 93. 93. 87. 87. 87. 93. 93.
 87. 93. 93. 87. 87. 87. 93. 93. 93. 93. 87. 87. 93. 93. 93. 87.]",574.1092760704887,None,l,1,1.007012305293756,574.1092760704887,None,None,None,17_KH,43,F,17,2021_Nov_03_1614,Partial repeat,2021.2.3,120.09559684222607,
2,2,0,1,1,2,2,2,3,1,1,1,0,1,1,0,0,92,92,92,1,0,1,0,,,,,,,,,0.7367684331012259,575.1666927512124,None,"[87. 87. 87. 87. 87. 93. 87. 93. 87. 93. 93. 87. 93. 93. 93. 93. 93. 93.
 87. 93. 87. 93. 93. 87. 87. 87. 87. 87. 93. 93. 93. 87. 87. 93.]",575.9992998865346,None,l,1,0.7650382739520865,575.9992998865346,None,None,None,17_KH,43,F,17,2021_Nov_03_1614,Partial repeat,2021.2.3,120.09559684222607,
2,2,0,1,1,2,2,2,3,1,1,1,0,1,1,0,0,92,92,92,,,,,,,,,,,,,,,,,,,,,,,,,,17_KH,43,F,17,2021_Nov_03_1614,Partial repeat,2021.2.3,120.09559684222607,
2,2,0,1,1,2,2,2,2,0,1,1,1,0,1,0,0,93,93,93,0,0,0,0,,,,,,,576.7819869752602,None,0.7473839132570941,577.4064461752896,None,"[87. 93. 87. 87. 93. 93. 87. 93. 93. 93. 87. 93. 93. 93. 87. 93. 87. 93.
 93. 93. 87. 93. 87. 87. 93. 87. 87. 93. 87. 87. 93. 87. 93. 87.]",578.239093399563,None,s,1,0.8612552879603754,578.239093399563,None,None,None,17_KH,43,F,17,2021_Nov_03_1614,Partial repeat,2021.2.3,120.09559684222607,
2,2,0,1,1,2,2,2,2,0,1,1,1,0,1,0,0,93,93,93,1,0,1,0,,,,,,,,,0.9310689639350149,579.1549252004297,None,"[87. 93. 87. 93. 93. 87. 93. 93. 93. 93. 93. 93. 87. 93. 93. 87. 87. 93.
 93. 93. 93. 87. 87. 93. 87. 93. 87. 87. 93. 93. 93. 87. 93. 87.]",580.1707054950093,None,l,1,0.9950061450654175,580.1707054950093,None,None,None,17_KH,43,F,17,2021_Nov_03_1614,Partial repeat,2021.2.3,120.09559684222607,
2,2,0,1,1,2,2,2,2,0,1,1,1,0,1,0,0,93,93,93,,,,,,,,,,,,,,,,,,,,,,,,,,17_KH,43,F,17,2021_Nov_03_1614,Partial repeat,2021.2.3,120.09559684222607,
2,2,0,1,1,2,2,3,2,1,1,1,0,1,1,0,0,94,94,94,0,0,0,0,,,,,,,581.1865127293677,None,0.8839634724635084,581.9858431476459,None,"[87. 87. 87. 87. 93. 93. 87. 87. 93. 93. 93. 93. 93. 87. 93. 93. 93. 93.
 93. 93. 93. 93. 93. 93. 87. 87. 87. 93. 87. 93. 87. 93. 93. 93.]",582.9599857732319,None,l,1,0.6353889977690415,582.9599857732319,None,None,None,17_KH,43,F,17,2021_Nov_03_1614,Partial repeat,2021.2.3,120.09559684222607,
2,2,0,1,1,2,2,3,2,1,1,1,0,1,1,0,0,94,94,94,1,0,1,0,,,,,,,,,0.9979403702938804,583.6677193491087,None,"[93. 93. 87. 93. 87. 87. 87. 93. 87. 87. 93. 93. 87. 87. 87. 87. 93. 93.
 87. 93. 93. 87. 93. 87. 93. 93. 93. 87. 93. 87. 93. 93. 93. 87.]",584.7501396699117,None,l,1,0.5412825869352673,584.7501396699117,None,None,None,17_KH,43,F,17,2021_Nov_03_1614,Partial repeat,2021.2.3,120.09559684222607,
2,2,0,1,1,2,2,3,2,1,1,1,0,1,1,0,0,94,94,94,,,,,,,,,,,,,,,,,,,,,,,,,,17_KH,43,F,17,2021_Nov_03_1614,Partial repeat,2021.2.3,120.09559684222607,
2,2,0,1,1,3,3,3,2,1,1,1,0,1,1,0,0,95,95,95,0,0,0,0,,,,,,,585.3162867623723,None,0.902995645553709,585.9074410227367,None,"[87. 87. 93. 93. 93. 87. 87. 87. 93. 87. 93. 87. 93. 93. 87. 93. 87. 87.
 87. 93. 93. 93. 87. 87. 87. 87. 93. 93. 87. 93. 93. 87. 87. 93.]",586.8982766881782,None,l,1,0.8105440458020894,586.8982766881782,None,None,None,17_KH,43,F,17,2021_Nov_03_1614,Partial repeat,2021.2.3,120.09559684222607,
2,2,0,1,1,3,3,3,2,1,1,1,0,1,1,0,0,95,95,95,1,0,1,0,,,,,,,,,0.8315015325088695,587.7725077018913,None,"[87. 87. 87. 93. 87. 93. 93. 93. 93. 87. 93. 87. 93. 93. 87. 87. 87. 87.
 87. 93. 93. 93. 87. 93. 93. 93. 93. 93. 93. 93. 87. 87. 93. 87.]",588.6883773467271,None,l,1,0.955107695190236,588.6883773467271,None,None,None,17_KH,43,F,17,2021_Nov_03_1614,Partial repeat,2021.2.3,120.09559684222607,
2,2,0,1,1,3,3,3,2,1,1,1,0,1,1,0,0,95,95,95,,,,,,,,,,,,,,,,,,,,,,,,,,17_KH,43,F,17,2021_Nov_03_1614,Partial repeat,2021.2.3,120.09559684222607,
2,2,0,1,1,2,3,2,2,1,1,0,1,1,1,0,0,96,96,96,0,0,0,0,,,,,,,589.6708555880468,None,0.9742609346048308,590.9281192251874,None,"[93. 87. 93. 93. 87. 87. 93. 87. 93. 87. 87. 87. 93. 87. 87. 93. 93. 93.
 93. 87. 87. 93. 87. 87. 93. 87. 87. 87. 87. 93. 87. 87. 93. 93.]",591.9855285295453,None,l,1,0.5539635244131205,591.9855285295453,None,None,None,17_KH,43,F,17,2021_Nov_03_1614,Partial repeat,2021.2.3,120.09559684222607,
2,2,0,1,1,2,3,2,2,1,1,0,1,1,1,0,0,96,96,96,1,0,1,0,,,,,,,,,0.95448583145283,592.6099797117822,None,"[87. 87. 93. 87. 87. 87. 87. 87. 87. 87. 93. 93. 87. 87. 87. 93. 87. 93.
 93. 87. 87. 93. 93. 87. 87. 87. 87. 87. 87. 93. 87. 87. 87. 87.]",593.6507681364019,None,l,1,0.7447051572089549,593.6507681364019,None,None,None,17_KH,43,F,17,2021_Nov_03_1614,Partial repeat,2021.2.3,120.09559684222607,
2,2,0,1,1,2,3,2,2,1,1,0,1,1,1,0,0,96,96,96,,,,,,,,,,,,,,,,,,,,,,,,,,17_KH,43,F,17,2021_Nov_03_1614,Partial repeat,2021.2.3,120.09559684222607,
2,2,0,1,1,3,2,3,2,1,1,0,0,1,1,0,0,97,97,97,0,0,0,0,,,,,,,594.4167602610105,None,0.8566487300127634,595.0912139127286,None,"[93. 93. 93. 87. 87. 93. 93. 87. 87. 93. 87. 87. 87. 93. 87. 87. 87. 93.
 93. 93. 93. 93. 93. 93. 93. 87. 87. 93. 87. 93. 87. 93. 87. 93.]",596.032059616442,None,l,1,0.7154581816794234,596.032059616442,None,None,None,17_KH,43,F,17,2021_Nov_03_1614,Partial repeat,2021.2.3,120.09559684222607,
2,2,0,1,1,3,2,3,2,1,1,0,0,1,1,0,0,97,97,97,1,0,1,0,,,,,,,,,0.7820153477229279,596.8064011473798,None,"[93. 93. 93. 93. 87. 87. 87. 87. 93. 87. 93. 93. 87. 93. 87. 93. 87. 93.
 93. 87. 87. 93. 93. 93. 93. 93. 93. 93. 87. 93. 93. 87. 93. 93.]",597.6722779440861,None,l,1,0.5632240724589792,597.6722779440861,None,None,None,17_KH,43,F,17,2021_Nov_03_1614,Partial repeat,2021.2.3,120.09559684222607,
2,2,0,1,1,3,2,3,2,1,1,0,0,1,1,0,0,97,97,97,,,,,,,,,,,,,,,,,,,,,,,,,,17_KH,43,F,17,2021_Nov_03_1614,Partial repeat,2021.2.3,120.09559684222607,
2,2,0,1,1,2,2,3,2,0,1,1,0,0,1,0,0,98,98,98,0,0,0,0,,,,,,,598.2551645795829,None,0.8203459092916097,598.987859461602,None,"[87. 93. 93. 93. 93. 87. 87. 87. 93. 87. 87. 87. 87. 87. 87. 93. 93. 87.
 87. 93. 87. 93. 93. 93. 87. 87. 93. 87. 93. 93. 87. 87. 93. 93.]",599.9120621564798,None,s,1,0.7065016682499845,599.9120621564798,None,None,None,17_KH,43,F,17,2021_Nov_03_1614,Partial repeat,2021.2.3,120.09559684222607,
2,2,0,1,1,2,2,3,2,0,1,1,0,0,1,0,0,98,98,98,1,0,1,0,,,,,,,,,0.9974568426405029,600.6863690505597,None,"[87. 87. 93. 87. 87. 93. 93. 87. 87. 87. 93. 93. 93. 93. 87. 93. 87. 87.
 93. 93. 93. 87. 93. 93. 87. 87. 93. 93. 93. 87. 87. 93. 87. 87.]",601.7687409439059,None,l,1,0.657805136492243,601.7687409439059,None,None,None,17_KH,43,F,17,2021_Nov_03_1614,Partial repeat,2021.2.3,120.09559684222607,
2,2,0,1,1,2,2,3,2,0,1,1,0,0,1,0,0,98,98,98,,,,,,,,,,,,,,,,,,,,,,,,,,17_KH,43,F,17,2021_Nov_03_1614,Partial repeat,2021.2.3,120.09559684222607,
2,2,0,1,1,3,2,2,2,0,1,0,1,0,1,0,0,99,99,99,0,0,0,0,,,,,,,602.4431929920684,None,0.8279002074311481,602.9844429207078,None,"[93. 87. 87. 87. 93. 87. 87. 93. 87. 87. 93. 87. 93. 87. 93. 93. 93. 87.
 87. 87. 87. 87. 87. 87. 87. 87. 93. 87. 87. 87. 87. 93. 87. 87.]",603.9086385599294,None,s,1,0.8059986000007484,603.9086385599294,None,None,None,17_KH,43,F,17,2021_Nov_03_1614,Partial repeat,2021.2.3,120.09559684222607,
2,2,0,1,1,3,2,2,2,0,1,0,1,0,1,0,0,99,99,99,1,0,1,0,,,,,,,,,0.7014520630050268,604.7828561037531,None,"[93. 93. 87. 93. 87. 87. 93. 87. 93. 87. 87. 87. 87. 93. 93. 93. 87. 87.
 93. 93. 87. 87. 93. 87. 93. 93. 87. 93. 93. 87. 93. 87. 87. 93.]",605.5904865387711,None,l,1,0.8680793898274715,605.5904865387711,None,None,None,17_KH,43,F,17,2021_Nov_03_1614,Partial repeat,2021.2.3,120.09559684222607,
2,2,0,1,1,3,2,2,2,0,1,0,1,0,1,0,0,99,99,99,,,,,,,,,,,,,,,,,,,,,,,,,,17_KH,43,F,17,2021_Nov_03_1614,Partial repeat,2021.2.3,120.09559684222607,
2,2,0,1,1,2,2,2,2,0,0,1,1,1,1,0,0,100,100,100,0,0,0,0,,,,,,,606.4896997048818,None,0.8742203950118554,607.5554340414856,None,"[93. 93. 93. 93. 93. 93. 93. 87. 87. 93. 87. 93. 93. 93. 93. 93. 93. 87.
 93. 87. 87. 87. 93. 93. 87. 87. 87. 93. 93. 87. 93. 87. 93. 93.]",608.5129439210068,None,s,1,0.665692718088394,608.5129439210068,None,None,None,17_KH,43,F,17,2021_Nov_03_1614,Partial repeat,2021.2.3,120.09559684222607,
2,2,0,1,1,2,2,2,2,0,0,1,1,1,1,0,0,100,100,100,1,0,1,0,,,,,,,,,0.8964006842988014,609.2373391069996,None,"[93. 93. 93. 93. 87. 87. 87. 87. 87. 93. 87. 87. 93. 93. 93. 87. 87. 87.
 93. 93. 93. 87. 87. 93. 87. 93. 87. 93. 93. 93. 87. 87. 93. 87.]",610.2197958606412,None,s,1,1.0701219379952818,610.2197958606412,None,None,None,17_KH,43,F,17,2021_Nov_03_1614,Partial repeat,2021.2.3,120.09559684222607,
2,2,0,1,1,2,2,2,2,0,0,1,1,1,1,0,0,100,100,100,,,,,,,,,,,,,,,,,,,,,,,,,,17_KH,43,F,17,2021_Nov_03_1614,Partial repeat,2021.2.3,120.09559684222607,
2,2,0,1,1,2,2,3,2,1,0,1,0,0,1,0,0,101,101,101,0,0,0,0,,,,,,,611.3188678494953,None,0.7494280381997477,612.4012490434798,None,"[93. 87. 93. 87. 87. 93. 93. 93. 87. 87. 93. 87. 93. 87. 93. 93. 87. 87.
 93. 93. 93. 87. 93. 93. 93. 87. 93. 93. 93. 93. 93. 93. 87. 93.]",613.2338937020577,None,l,1,0.6318249295291025,613.2338937020577,None,None,None,17_KH,43,F,17,2021_Nov_03_1614,Partial repeat,2021.2.3,120.09559684222607,
2,2,0,1,1,2,2,3,2,1,0,1,0,0,1,0,0,101,101,101,1,0,1,0,,,,,,,,,0.915799054212491,613.924947707972,None,"[87. 93. 87. 93. 93. 93. 87. 93. 87. 87. 87. 93. 93. 93. 93. 93. 87. 93.
 87. 87. 93. 87. 93. 93. 93. 87. 93. 93. 87. 93. 87. 93. 87. 93.]",614.9240904458093,None,l,0,1.0056271518005815,614.9240904458093,None,615.9481957726384,None,17_KH,43,F,17,2021_Nov_03_1614,Partial repeat,2021.2.3,120.09559684222607,
2,2,0,1,1,2,2,3,2,1,0,1,0,0,1,0,0,101,101,101,,,,,,,,,,,,,,,,,,,,,,,,,,17_KH,43,F,17,2021_Nov_03_1614,Partial repeat,2021.2.3,120.09559684222607,
2,2,0,1,1,2,3,2,3,1,0,0,0,0,1,0,0,102,102,102,0,0,0,0,,,,,,,616.4477717918744,None,0.781946253127743,617.1721512629956,None,"[87. 87. 87. 93. 93. 87. 93. 93. 93. 87. 93. 93. 93. 93. 87. 87. 87. 87.
 87. 93. 87. 93. 93. 93. 87. 93. 87. 87. 93. 87. 87. 87. 87. 93.]",618.0380732800404,None,l,1,0.8036670265209978,618.0380732800404,None,None,None,17_KH,43,F,17,2021_Nov_03_1614,Partial repeat,2021.2.3,120.09559684222607,
2,2,0,1,1,2,3,2,3,1,0,0,0,0,1,0,0,102,102,102,1,0,1,0,,,,,,,,,0.8774779988391991,618.9123203293348,None,"[87. 87. 87. 93. 93. 93. 93. 93. 87. 87. 93. 87. 93. 87. 87. 87. 87. 87.
 93. 93. 93. 93. 87. 87. 87. 93. 87. 87. 93. 93. 87. 93. 93. 87.]",619.8781459404636,None,s,1,0.7556093523053278,619.8781459404636,None,None,None,17_KH,43,F,17,2021_Nov_03_1614,Partial repeat,2021.2.3,120.09559684222607,
2,2,0,1,1,2,3,2,3,1,0,0,0,0,1,0,0,102,102,102,,,,,,,,,,,,,,,,,,,,,,,,,,17_KH,43,F,17,2021_Nov_03_1614,Partial repeat,2021.2.3,120.09559684222607,
