prime_tar_pos,probe_tar_pos,dimension,tar_color,tar_shape,prime_dist_color,probe_dist_color,prime_dist_shape,probe_dist_shape,prime_tar_ori,probe_tar_ori,col_rep,shape_rep,resp_rep,pos_fixed,sparse,MainLoop.thisRepN,MainLoop.thisTrialN,MainLoop.thisN,MainLoop.thisIndex,PrimeProbe.thisRepN,PrimeProbe.thisTrialN,PrimeProbe.thisN,PrimeProbe.thisIndex,Instruction.started,Instruction.stopped,instruction_key.keys,instruction_key.rt,instruction_key.started,instruction_key.stopped,PairStartText.started,PairStartText.stopped,fixdur,FixCross.started,FixCross.stopped,dist_ori,SearchFixCross.started,SearchFixCross.stopped,key_resp.keys,key_resp.corr,key_resp.rt,key_resp.started,key_resp.stopped,feedback_text.started,feedback_text.stopped,text_finish.started,text_finish.stopped,finish_key.keys,finish_key.rt,finish_key.started,finish_key.stopped,participant,age,gender,group,date,expName,psychopyVersion,frameRate,
,,,,,,,,,,,,,,,,,,,,,,,,37.2952211096308,None,space,2.322202183149784,37.2952211096308,None,,,,,,,,,,,,,,,,,,,,,,18_KR,33,F,18,2021_Nov_04_1417,Partial repeat,2021.2.3,120.09945228074372,
3,3,0,1,1,2,3,2,2,1,0,0,1,0,1,0,0,0,0,0,0,0,0,0,,,,,,,117.40226924169838,None,0.7685251767056911,129.0250878274419,None,"[87. 93. 87. 87. 87. 87. 93. 87. 93. 87. 93. 93. 93. 87. 93. 93. 87. 87.
 93. 87. 93. 87. 93. 87. 87. 93. 87. 93. 87. 93. 93. 93. 87. 93.]",129.88270442450448,None,l,1,1.2661895393357554,129.88270442450448,None,None,None,,,,,,,18_KR,33,F,18,2021_Nov_04_1417,Partial repeat,2021.2.3,120.09945228074372,
3,3,0,1,1,2,3,2,2,1,0,0,1,0,1,0,0,0,0,0,1,0,1,0,,,,,,,,,0.7823189524503357,131.22321319185357,None,"[93. 87. 87. 93. 87. 87. 87. 87. 87. 93. 93. 93. 93. 93. 87. 93. 87. 93.
 87. 93. 87. 93. 87. 87. 87. 93. 93. 93. 93. 93. 87. 93. 87. 93.]",132.08913691459384,None,s,1,1.027921085307753,132.08913691459384,None,None,None,,,,,,,18_KR,33,F,18,2021_Nov_04_1417,Partial repeat,2021.2.3,120.09945228074372,
3,3,0,1,1,2,3,2,2,1,0,0,1,0,1,0,0,0,0,0,,,,,,,,,,,,,,,,,,,,,,,,,,,,,,,,18_KR,33,F,18,2021_Nov_04_1417,Partial repeat,2021.2.3,120.09945228074372,
3,3,0,1,1,3,3,3,3,0,0,1,1,1,1,0,0,1,1,1,0,0,0,0,,,,,,,133.13823529223373,None,0.8877915761893096,135.14484584255842,None,"[87. 87. 93. 93. 93. 93. 93. 93. 87. 93. 93. 87. 93. 87. 93. 87. 87. 93.
 93. 93. 93. 93. 87. 93. 93. 87. 93. 93. 93. 87. 87. 87. 93. 87.]",136.11901203510206,None,s,1,0.9347290669757058,136.11901203510206,None,None,None,,,,,,,18_KR,33,F,18,2021_Nov_04_1417,Partial repeat,2021.2.3,120.09945228074372,
3,3,0,1,1,3,3,3,3,0,0,1,1,1,1,0,0,1,1,1,1,0,1,0,,,,,,,,,0.8183657061620405,137.11817208598222,None,"[87. 93. 87. 93. 93. 87. 93. 87. 87. 87. 87. 87. 93. 87. 93. 87. 93. 87.
 93. 93. 87. 93. 87. 93. 93. 93. 87. 87. 87. 87. 93. 87. 93. 87.]",138.02573406550073,None,s,1,1.106370537305338,138.02573406550073,None,None,None,,,,,,,18_KR,33,F,18,2021_Nov_04_1417,Partial repeat,2021.2.3,120.09945228074372,
3,3,0,1,1,3,3,3,3,0,0,1,1,1,1,0,0,1,1,1,,,,,,,,,,,,,,,,,,,,,,,,,,,,,,,,18_KR,33,F,18,2021_Nov_04_1417,Partial repeat,2021.2.3,120.09945228074372,
3,3,0,1,1,3,2,3,3,1,1,0,1,1,1,0,0,2,2,2,0,0,0,0,,,,,,,139.15808843102423,None,0.828318366957591,141.61432288042124,None,"[87. 87. 87. 93. 93. 87. 87. 93. 87. 93. 93. 93. 87. 87. 87. 93. 87. 93.
 87. 93. 87. 93. 87. 87. 87. 93. 87. 93. 93. 87. 87. 93. 93. 93.]",142.53017979850483,None,s,0,1.065905130446481,142.53017979850483,None,143.61261251437827,None,,,,,,,18_KR,33,F,18,2021_Nov_04_1417,Partial repeat,2021.2.3,120.09945228074372,
3,3,0,1,1,3,2,3,3,1,1,0,1,1,1,0,0,2,2,2,1,0,1,0,,,,,,,,,0.8240837036892387,144.162147062616,None,"[93. 87. 87. 93. 93. 93. 87. 87. 93. 93. 93. 87. 93. 93. 93. 87. 93. 87.
 93. 87. 93. 93. 93. 93. 87. 93. 87. 87. 93. 93. 87. 87. 87. 87.]",145.06969525145178,None,l,1,1.4864479960742756,145.06969525145178,None,None,None,,,,,,,18_KR,33,F,18,2021_Nov_04_1417,Partial repeat,2021.2.3,120.09945228074372,
3,3,0,1,1,3,2,3,3,1,1,0,1,1,1,0,0,2,2,2,,,,,,,,,,,,,,,,,,,,,,,,,,,,,,,,18_KR,33,F,18,2021_Nov_04_1417,Partial repeat,2021.2.3,120.09945228074372,
3,3,0,1,1,3,3,2,2,0,1,1,1,0,1,0,0,3,3,3,0,0,0,0,,,,,,,146.5767371616712,None,0.9458073757031517,147.7424159233051,None,"[87. 93. 93. 87. 93. 93. 87. 93. 93. 87. 93. 93. 93. 87. 87. 93. 93. 93.
 87. 93. 93. 87. 87. 93. 93. 87. 87. 87. 93. 93. 93. 93. 93. 93.]",148.77489171102934,None,s,1,1.2852890009853581,148.77489171102934,None,None,None,,,,,,,18_KR,33,F,18,2021_Nov_04_1417,Partial repeat,2021.2.3,120.09945228074372,
3,3,0,1,1,3,3,2,2,0,1,1,1,0,1,0,0,3,3,3,1,0,1,0,,,,,,,,,0.8064665370039452,150.13204006612068,None,"[87. 87. 93. 93. 93. 93. 87. 87. 87. 93. 93. 87. 93. 93. 87. 87. 87. 93.
 87. 93. 93. 87. 93. 87. 87. 87. 87. 87. 93. 93. 93. 87. 93. 87.]",151.02295636434064,None,l,1,1.3573017294693273,151.02295636434064,None,None,None,,,,,,,18_KR,33,F,18,2021_Nov_04_1417,Partial repeat,2021.2.3,120.09945228074372,
3,3,0,1,1,3,3,2,2,0,1,1,1,0,1,0,0,3,3,3,,,,,,,,,,,,,,,,,,,,,,,,,,,,,,,,18_KR,33,F,18,2021_Nov_04_1417,Partial repeat,2021.2.3,120.09945228074372,
3,3,0,1,1,3,2,2,3,0,1,0,0,0,1,0,0,4,4,4,0,0,0,0,,,,,,,152.39676932284056,None,0.9055916562352871,153.37094994750078,None,"[93. 93. 93. 87. 93. 93. 93. 93. 87. 87. 87. 87. 87. 87. 93. 87. 87. 93.
 87. 87. 93. 93. 93. 87. 87. 87. 87. 93. 87. 87. 87. 93. 93. 93.]",154.36173840924675,None,s,1,1.2675740602826409,154.36173840924675,None,None,None,,,,,,,18_KR,33,F,18,2021_Nov_04_1417,Partial repeat,2021.2.3,120.09945228074372,
3,3,0,1,1,3,2,2,3,0,1,0,0,0,1,0,0,4,4,4,1,0,1,0,,,,,,,,,0.706880673643455,155.71060369218685,None,"[93. 87. 93. 87. 93. 87. 93. 93. 87. 87. 87. 87. 87. 93. 87. 93. 87. 93.
 93. 93. 87. 93. 93. 87. 87. 93. 87. 93. 93. 93. 87. 93. 93. 87.]",156.49326180563003,None,l,1,1.6780583828367526,156.49326180563003,None,None,None,,,,,,,18_KR,33,F,18,2021_Nov_04_1417,Partial repeat,2021.2.3,120.09945228074372,
3,3,0,1,1,3,2,2,3,0,1,0,0,0,1,0,0,4,4,4,,,,,,,,,,,,,,,,,,,,,,,,,,,,,,,,18_KR,33,F,18,2021_Nov_04_1417,Partial repeat,2021.2.3,120.09945228074372,
3,3,0,1,1,2,3,3,2,0,1,0,0,0,1,0,0,5,5,5,0,0,0,0,,,,,,,158.1834988964256,None,0.9931878006666239,159.78212637016986,None,"[87. 93. 93. 87. 93. 87. 87. 93. 93. 93. 87. 93. 93. 93. 93. 93. 93. 93.
 93. 87. 87. 93. 93. 87. 87. 93. 87. 93. 93. 87. 87. 87. 93. 87.]",160.8645231661103,None,s,1,1.0988696858112235,160.8645231661103,None,None,None,,,,,,,18_KR,33,F,18,2021_Nov_04_1417,Partial repeat,2021.2.3,120.09945228074372,
3,3,0,1,1,2,3,3,2,0,1,0,0,0,1,0,0,5,5,5,1,0,1,0,,,,,,,,,0.8376942455390931,162.0302009656043,None,"[87. 87. 93. 87. 93. 93. 93. 93. 93. 93. 93. 87. 87. 87. 93. 93. 87. 93.
 87. 93. 87. 93. 93. 87. 93. 93. 87. 93. 87. 87. 87. 87. 87. 87.]",162.954402853582,None,l,1,1.7130322093944415,162.954402853582,None,None,None,,,,,,,18_KR,33,F,18,2021_Nov_04_1417,Partial repeat,2021.2.3,120.09945228074372,
3,3,0,1,1,2,3,3,2,0,1,0,0,0,1,0,0,5,5,5,,,,,,,,,,,,,,,,,,,,,,,,,,,,,,,,18_KR,33,F,18,2021_Nov_04_1417,Partial repeat,2021.2.3,120.09945228074372,
3,3,0,1,1,2,3,3,3,0,0,0,1,1,1,0,0,6,6,6,0,0,0,0,,,,,,,164.68624965763956,None,0.7923605413919963,165.97681047681908,None,"[87. 87. 87. 87. 93. 87. 87. 87. 93. 93. 87. 93. 93. 87. 93. 93. 93. 93.
 87. 93. 87. 93. 87. 87. 87. 87. 87. 93. 93. 87. 93. 93. 87. 93.]",166.85938854013148,None,s,1,1.1680758489019354,166.85938854013148,None,None,None,,,,,,,18_KR,33,F,18,2021_Nov_04_1417,Partial repeat,2021.2.3,120.09945228074372,
3,3,0,1,1,2,3,3,3,0,0,0,1,1,1,0,0,6,6,6,1,0,1,0,,,,,,,,,0.7778931230696687,168.10000012828823,None,"[93. 87. 93. 87. 87. 87. 87. 93. 87. 93. 87. 93. 87. 87. 87. 93. 93. 93.
 87. 87. 93. 87. 93. 87. 93. 93. 93. 93. 87. 93. 87. 87. 87. 93.]",168.9659424524216,None,s,1,1.396655542721419,168.9659424524216,None,None,None,,,,,,,18_KR,33,F,18,2021_Nov_04_1417,Partial repeat,2021.2.3,120.09945228074372,
3,3,0,1,1,2,3,3,3,0,0,0,1,1,1,0,0,6,6,6,,,,,,,,,,,,,,,,,,,,,,,,,,,,,,,,18_KR,33,F,18,2021_Nov_04_1417,Partial repeat,2021.2.3,120.09945228074372,
3,3,0,1,1,2,2,3,3,0,1,1,1,0,1,0,0,7,7,7,0,0,0,0,,,,,,,170.38137602845018,None,0.7185625293779299,171.43048082035966,None,"[93. 87. 87. 87. 93. 93. 87. 87. 87. 87. 93. 93. 93. 87. 87. 93. 93. 93.
 93. 87. 87. 93. 87. 87. 93. 93. 87. 93. 87. 93. 93. 93. 93. 93.]",172.2298157243349,None,s,1,0.9007314928530832,172.2298157243349,None,None,None,,,,,,,18_KR,33,F,18,2021_Nov_04_1417,Partial repeat,2021.2.3,120.09945228074372,
3,3,0,1,1,2,2,3,3,0,1,1,1,0,1,0,0,7,7,7,1,0,1,0,,,,,,,,,0.7313441636792,173.19565105838774,None,"[87. 93. 93. 93. 93. 93. 93. 87. 93. 87. 87. 87. 87. 87. 87. 93. 87. 93.
 87. 93. 87. 87. 93. 87. 87. 87. 93. 87. 87. 87. 87. 93. 93. 93.]",174.0116156079821,None,l,1,0.9909694175039476,174.0116156079821,None,None,None,,,,,,,18_KR,33,F,18,2021_Nov_04_1417,Partial repeat,2021.2.3,120.09945228074372,
3,3,0,1,1,2,2,3,3,0,1,1,1,0,1,0,0,7,7,7,,,,,,,,,,,,,,,,,,,,,,,,,,,,,,,,18_KR,33,F,18,2021_Nov_04_1417,Partial repeat,2021.2.3,120.09945228074372,
3,3,0,1,1,3,2,3,3,0,1,0,1,0,1,0,0,8,8,8,0,0,0,0,,,,,,,175.01907861526342,None,0.9631279499003608,175.9099984413333,None,"[93. 87. 87. 87. 93. 93. 93. 93. 87. 87. 87. 87. 93. 87. 87. 93. 87. 87.
 93. 87. 87. 87. 87. 87. 93. 93. 93. 87. 87. 87. 93. 87. 93. 93.]",176.9591025918162,None,s,1,0.7155276825178589,176.9591025918162,None,None,None,,,,,,,18_KR,33,F,18,2021_Nov_04_1417,Partial repeat,2021.2.3,120.09945228074372,
3,3,0,1,1,3,2,3,3,0,1,0,1,0,1,0,0,8,8,8,1,0,1,0,,,,,,,,,0.7231983939746717,177.74175076313986,None,"[87. 87. 87. 93. 87. 93. 87. 93. 93. 93. 93. 93. 87. 93. 87. 87. 87. 87.
 87. 87. 93. 93. 93. 93. 87. 87. 93. 93. 87. 87. 93. 87. 87. 87.]",178.54108438425828,None,l,1,1.0540265372510476,178.54108438425828,None,None,None,,,,,,,18_KR,33,F,18,2021_Nov_04_1417,Partial repeat,2021.2.3,120.09945228074372,
3,3,0,1,1,3,2,3,3,0,1,0,1,0,1,0,0,8,8,8,,,,,,,,,,,,,,,,,,,,,,,,,,,,,,,,18_KR,33,F,18,2021_Nov_04_1417,Partial repeat,2021.2.3,120.09945228074372,
3,3,0,1,1,2,2,3,3,0,0,1,1,1,1,0,0,9,9,9,0,0,0,0,,,,,,,179.6151644331112,None,0.8234374354888193,184.72747483520288,None,"[87. 93. 87. 93. 87. 93. 87. 87. 93. 93. 93. 87. 87. 87. 87. 93. 93. 87.
 93. 93. 87. 87. 93. 93. 87. 87. 87. 93. 87. 87. 93. 93. 93. 93.]",185.62667837485424,None,s,1,1.551103873505781,185.62667837485424,None,None,None,,,,,,,18_KR,33,F,18,2021_Nov_04_1417,Partial repeat,2021.2.3,120.09945228074372,
3,3,0,1,1,2,2,3,3,0,0,1,1,1,1,0,0,9,9,9,1,0,1,0,,,,,,,,,0.9927184346613954,187.25030034836163,None,"[87. 93. 93. 87. 93. 93. 87. 87. 93. 93. 93. 93. 93. 87. 93. 87. 93. 93.
 93. 93. 87. 87. 93. 93. 93. 93. 87. 87. 87. 87. 93. 87. 87. 87.]",188.3243730207978,None,s,1,1.013443107756757,188.3243730207978,None,None,None,,,,,,,18_KR,33,F,18,2021_Nov_04_1417,Partial repeat,2021.2.3,120.09945228074372,
3,3,0,1,1,2,2,3,3,0,0,1,1,1,1,0,0,9,9,9,,,,,,,,,,,,,,,,,,,,,,,,,,,,,,,,18_KR,33,F,18,2021_Nov_04_1417,Partial repeat,2021.2.3,120.09945228074372,
3,3,0,1,1,3,3,2,3,0,1,1,0,0,1,0,0,10,10,10,0,0,0,0,,,,,,,189.3485275714338,None,0.7400134223435587,190.24772662109535,None,"[93. 87. 87. 87. 87. 93. 87. 93. 87. 93. 93. 93. 87. 93. 93. 87. 87. 93.
 87. 93. 87. 87. 87. 93. 93. 87. 93. 93. 87. 87. 87. 87. 87. 93.]",191.07202619846066,None,s,1,1.3538203824973607,191.07202619846066,None,None,None,,,,,,,18_KR,33,F,18,2021_Nov_04_1417,Partial repeat,2021.2.3,120.09945228074372,
3,3,0,1,1,3,3,2,3,0,1,1,0,0,1,0,0,10,10,10,1,0,1,0,,,,,,,,,0.9992946683008939,192.50414233786432,None,"[87. 87. 93. 87. 87. 93. 93. 87. 93. 87. 93. 93. 93. 87. 93. 87. 87. 87.
 93. 93. 93. 93. 93. 93. 93. 87. 93. 93. 87. 93. 93. 87. 93. 93.]",193.58659590012394,None,s,0,1.2232924813724821,193.58659590012394,None,194.8188221084638,None,,,,,,,18_KR,33,F,18,2021_Nov_04_1417,Partial repeat,2021.2.3,120.09945228074372,
3,3,0,1,1,3,3,2,3,0,1,1,0,0,1,0,0,10,10,10,,,,,,,,,,,,,,,,,,,,,,,,,,,,,,,,18_KR,33,F,18,2021_Nov_04_1417,Partial repeat,2021.2.3,120.09945228074372,
3,3,0,1,1,2,2,3,2,0,0,1,0,1,1,0,0,11,11,11,0,0,0,0,,,,,,,195.3184022942587,None,0.9410512650329106,196.26761151054234,None,"[93. 93. 93. 93. 93. 93. 93. 87. 93. 87. 87. 93. 93. 87. 87. 87. 93. 93.
 93. 87. 87. 87. 87. 93. 87. 87. 87. 87. 93. 93. 87. 93. 87. 93.]",197.29172468911565,None,s,1,0.8302248358013458,197.29172468911565,None,None,None,,,,,,,18_KR,33,F,18,2021_Nov_04_1417,Partial repeat,2021.2.3,120.09945228074372,
3,3,0,1,1,2,2,3,2,0,0,1,0,1,1,0,0,11,11,11,1,0,1,0,,,,,,,,,0.738212735844937,198.1909378501805,None,"[87. 93. 93. 87. 93. 87. 93. 93. 93. 87. 93. 87. 87. 93. 93. 93. 87. 93.
 87. 93. 87. 93. 93. 93. 93. 87. 87. 87. 87. 93. 93. 87. 93. 87.]",199.01523229612576,None,s,1,0.8827445869537769,199.01523229612576,None,None,None,,,,,,,18_KR,33,F,18,2021_Nov_04_1417,Partial repeat,2021.2.3,120.09945228074372,
3,3,0,1,1,2,2,3,2,0,0,1,0,1,1,0,0,11,11,11,,,,,,,,,,,,,,,,,,,,,,,,,,,,,,,,18_KR,33,F,18,2021_Nov_04_1417,Partial repeat,2021.2.3,120.09945228074372,
3,3,0,1,1,2,3,3,3,0,1,0,1,0,1,0,0,12,12,12,0,0,0,0,,,,,,,199.92280357634445,None,0.8358244694611376,200.85533536067305,None,"[87. 87. 87. 87. 93. 93. 87. 87. 93. 87. 93. 87. 87. 87. 87. 93. 87. 87.
 93. 87. 93. 93. 93. 93. 93. 93. 93. 93. 87. 93. 93. 93. 87. 87.]",201.77122659511951,None,s,1,0.6857718674946227,201.77122659511951,None,None,None,,,,,,,18_KR,33,F,18,2021_Nov_04_1417,Partial repeat,2021.2.3,120.09945228074372,
3,3,0,1,1,2,3,3,3,0,1,0,1,0,1,0,0,12,12,12,1,0,1,0,,,,,,,,,0.8901412565817826,202.52889181237333,None,"[93. 93. 87. 93. 93. 93. 87. 93. 93. 87. 93. 93. 93. 93. 87. 87. 87. 93.
 93. 93. 87. 93. 87. 93. 93. 93. 93. 93. 93. 93. 93. 87. 87. 93.]",203.50306506062043,None,l,1,1.1939956076203089,203.50306506062043,None,None,None,,,,,,,18_KR,33,F,18,2021_Nov_04_1417,Partial repeat,2021.2.3,120.09945228074372,
3,3,0,1,1,2,3,3,3,0,1,0,1,0,1,0,0,12,12,12,,,,,,,,,,,,,,,,,,,,,,,,,,,,,,,,18_KR,33,F,18,2021_Nov_04_1417,Partial repeat,2021.2.3,120.09945228074372,
3,3,0,1,1,2,2,2,2,0,1,1,1,0,1,0,0,13,13,13,0,0,0,0,,,,,,,204.71037726832947,None,0.8698324190133113,205.6095952400974,None,"[93. 93. 93. 87. 93. 93. 93. 93. 87. 93. 93. 87. 93. 87. 93. 87. 87. 93.
 87. 87. 87. 87. 87. 87. 93. 93. 93. 93. 93. 87. 93. 87. 87. 87.]",206.55880509780764,None,s,1,3.0023698266049905,206.55880509780764,None,None,None,,,,,,,18_KR,33,F,18,2021_Nov_04_1417,Partial repeat,2021.2.3,120.09945228074372,
3,3,0,1,1,2,2,2,2,0,1,1,1,0,1,0,0,13,13,13,1,0,1,0,,,,,,,,,0.7221918570184721,209.63115810350428,None,"[87. 87. 87. 87. 87. 93. 93. 87. 87. 87. 93. 93. 93. 87. 87. 87. 87. 87.
 87. 87. 93. 93. 93. 87. 87. 87. 87. 93. 93. 87. 87. 93. 87. 87.]",210.4304901210562,None,l,1,0.9066781658657419,210.4304901210562,None,None,None,,,,,,,18_KR,33,F,18,2021_Nov_04_1417,Partial repeat,2021.2.3,120.09945228074372,
3,3,0,1,1,2,2,2,2,0,1,1,1,0,1,0,0,13,13,13,,,,,,,,,,,,,,,,,,,,,,,,,,,,,,,,18_KR,33,F,18,2021_Nov_04_1417,Partial repeat,2021.2.3,120.09945228074372,
3,3,0,1,1,3,2,3,3,0,0,0,1,1,1,0,0,14,14,14,0,0,0,0,,,,,,,211.35468527404737,None,0.9271852889414439,212.12902888539975,None,"[87. 93. 93. 93. 93. 87. 93. 87. 93. 87. 93. 87. 93. 93. 93. 93. 87. 93.
 93. 87. 93. 87. 87. 87. 93. 93. 93. 93. 93. 93. 93. 87. 93. 87.]",213.14484969112164,None,s,1,0.8649449778349663,213.14484969112164,None,None,None,,,,,,,18_KR,33,F,18,2021_Nov_04_1417,Partial repeat,2021.2.3,120.09945228074372,
3,3,0,1,1,3,2,3,3,0,0,0,1,1,1,0,0,14,14,14,1,0,1,0,,,,,,,,,0.8621837695769756,214.08569084612827,None,"[93. 87. 87. 93. 87. 87. 93. 87. 93. 93. 93. 87. 87. 93. 93. 87. 87. 93.
 93. 87. 93. 93. 87. 87. 93. 87. 93. 87. 87. 93. 93. 87. 93. 93.]",215.02656182750434,None,s,1,1.1426323499908904,215.02656182750434,None,None,None,,,,,,,18_KR,33,F,18,2021_Nov_04_1417,Partial repeat,2021.2.3,120.09945228074372,
3,3,0,1,1,3,2,3,3,0,0,0,1,1,1,0,0,14,14,14,,,,,,,,,,,,,,,,,,,,,,,,,,,,,,,,18_KR,33,F,18,2021_Nov_04_1417,Partial repeat,2021.2.3,120.09945228074372,
3,3,0,1,1,3,3,2,3,0,0,1,0,1,1,0,0,15,15,15,0,0,0,0,,,,,,,216.1922110834821,None,0.8935403455779087,216.98319845185324,None,"[93. 87. 87. 93. 93. 93. 87. 93. 93. 93. 93. 93. 93. 93. 93. 93. 87. 93.
 93. 87. 93. 87. 87. 87. 87. 87. 87. 87. 87. 87. 87. 93. 87. 87.]",217.95738196293678,None,s,1,1.106985986854852,217.95738196293678,None,None,None,,,,,,,18_KR,33,F,18,2021_Nov_04_1417,Partial repeat,2021.2.3,120.09945228074372,
3,3,0,1,1,3,3,2,3,0,0,1,0,1,1,0,0,15,15,15,1,0,1,0,,,,,,,,,0.9085232305502089,219.12305559315064,None,"[93. 87. 93. 93. 93. 87. 93. 87. 93. 93. 93. 87. 87. 93. 93. 87. 93. 93.
 93. 87. 93. 87. 87. 87. 93. 93. 87. 93. 93. 93. 93. 93. 87. 93.]",220.11385592130682,None,s,1,0.6464546156057622,220.11385592130682,None,None,None,,,,,,,18_KR,33,F,18,2021_Nov_04_1417,Partial repeat,2021.2.3,120.09945228074372,
3,3,0,1,1,3,3,2,3,0,0,1,0,1,1,0,0,15,15,15,,,,,,,,,,,,,,,,,,,,,,,,,,,,,,,,18_KR,33,F,18,2021_Nov_04_1417,Partial repeat,2021.2.3,120.09945228074372,
3,3,0,1,1,3,3,2,2,0,0,1,1,1,1,0,0,16,16,16,0,0,0,0,,,,,,,220.78826803710035,None,0.9594401591349426,222.02057282028545,None,"[87. 93. 93. 87. 87. 93. 93. 93. 87. 87. 87. 87. 93. 87. 87. 93. 93. 93.
 87. 87. 87. 87. 87. 93. 87. 87. 87. 87. 93. 87. 87. 93. 87. 87.]",223.06967729148528,None,s,1,0.8107017113834445,223.06967729148528,None,None,None,,,,,,,18_KR,33,F,18,2021_Nov_04_1417,Partial repeat,2021.2.3,120.09945228074372,
3,3,0,1,1,3,3,2,2,0,0,1,1,1,1,0,0,16,16,16,1,0,1,0,,,,,,,,,0.8227979165446723,223.94393732484968,None,"[93. 93. 87. 93. 87. 87. 93. 87. 87. 93. 87. 93. 93. 87. 87. 93. 93. 93.
 87. 93. 87. 93. 93. 93. 87. 87. 93. 87. 87. 87. 93. 93. 93. 93.]",224.85149032438858,None,s,1,0.6779169481051213,224.85149032438858,None,None,None,,,,,,,18_KR,33,F,18,2021_Nov_04_1417,Partial repeat,2021.2.3,120.09945228074372,
3,3,0,1,1,3,3,2,2,0,0,1,1,1,1,0,0,16,16,16,,,,,,,,,,,,,,,,,,,,,,,,,,,,,,,,18_KR,33,F,18,2021_Nov_04_1417,Partial repeat,2021.2.3,120.09945228074372,
3,3,0,1,1,2,2,3,2,1,0,1,0,0,1,0,0,17,17,17,0,0,0,0,,,,,,,225.55919091636315,None,0.8873408769685449,226.4667785529782,None,"[87. 93. 87. 87. 87. 93. 93. 87. 93. 87. 87. 93. 87. 93. 93. 93. 93. 93.
 87. 87. 87. 87. 87. 93. 93. 93. 87. 87. 93. 87. 87. 93. 93. 93.]",227.44093768982202,None,l,1,1.143496994067391,227.44093768982202,None,None,None,,,,,,,18_KR,33,F,18,2021_Nov_04_1417,Partial repeat,2021.2.3,120.09945228074372,
3,3,0,1,1,2,2,3,2,1,0,1,0,0,1,0,0,17,17,17,1,0,1,0,,,,,,,,,0.9631552216072712,228.65657081390236,None,"[93. 87. 87. 93. 93. 93. 93. 93. 87. 93. 93. 93. 93. 87. 87. 87. 93. 93.
 93. 93. 87. 93. 93. 87. 87. 93. 87. 93. 93. 87. 93. 87. 93. 93.]",229.6973351259112,None,s,1,0.9031301104514569,229.6973351259112,None,None,None,,,,,,,18_KR,33,F,18,2021_Nov_04_1417,Partial repeat,2021.2.3,120.09945228074372,
3,3,0,1,1,2,2,3,2,1,0,1,0,0,1,0,0,17,17,17,,,,,,,,,,,,,,,,,,,,,,,,,,,,,,,,18_KR,33,F,18,2021_Nov_04_1417,Partial repeat,2021.2.3,120.09945228074372,
3,3,0,1,1,3,2,3,2,0,0,0,0,1,1,0,0,18,18,18,0,0,0,0,,,,,,,230.61323309534419,None,0.8546224214295215,231.445846854087,None,"[93. 87. 93. 93. 93. 87. 93. 93. 87. 93. 87. 87. 87. 87. 87. 93. 87. 93.
 93. 87. 87. 87. 87. 93. 87. 93. 87. 87. 87. 93. 87. 87. 87. 93.]",232.38671623189657,None,s,1,1.092875547175936,232.38671623189657,None,None,None,,,,,,,18_KR,33,F,18,2021_Nov_04_1417,Partial repeat,2021.2.3,120.09945228074372,
3,3,0,1,1,3,2,3,2,0,0,0,0,1,1,0,0,18,18,18,1,0,1,0,,,,,,,,,0.8770657373026305,233.55236580858764,None,"[87. 93. 93. 87. 87. 87. 87. 93. 87. 93. 87. 93. 87. 87. 87. 93. 87. 93.
 87. 87. 93. 87. 87. 93. 93. 93. 87. 93. 87. 87. 93. 87. 87. 87.]",234.50990139337227,None,s,1,0.8896434588750708,234.50990139337227,None,None,None,,,,,,,18_KR,33,F,18,2021_Nov_04_1417,Partial repeat,2021.2.3,120.09945228074372,
3,3,0,1,1,3,2,3,2,0,0,0,0,1,1,0,0,18,18,18,,,,,,,,,,,,,,,,,,,,,,,,,,,,,,,,18_KR,33,F,18,2021_Nov_04_1417,Partial repeat,2021.2.3,120.09945228074372,
3,3,0,1,1,3,3,3,3,1,0,1,1,0,1,0,0,19,19,19,0,0,0,0,,,,,,,235.4174409229381,None,0.9371761461184654,236.24175268741965,None,"[87. 93. 93. 93. 87. 93. 87. 93. 87. 87. 93. 93. 87. 87. 93. 87. 93. 87.
 93. 93. 87. 93. 87. 87. 87. 93. 87. 87. 93. 87. 93. 87. 93. 87.]",237.26586201742975,None,l,1,0.7587464163043478,237.26586201742975,None,None,None,,,,,,,18_KR,33,F,18,2021_Nov_04_1417,Partial repeat,2021.2.3,120.09945228074372,
3,3,0,1,1,3,3,3,3,1,0,1,1,0,1,0,0,19,19,19,1,0,1,0,,,,,,,,,0.839976110166291,238.08183682986055,None,"[87. 87. 87. 87. 87. 87. 87. 87. 93. 93. 93. 87. 93. 87. 87. 87. 93. 93.
 87. 93. 93. 87. 87. 87. 93. 93. 87. 93. 87. 87. 87. 93. 87. 87.]",239.00605571566484,None,s,1,1.146719525102526,239.00605571566484,None,None,None,,,,,,,18_KR,33,F,18,2021_Nov_04_1417,Partial repeat,2021.2.3,120.09945228074372,
3,3,0,1,1,3,3,3,3,1,0,1,1,0,1,0,0,19,19,19,,,,,,,,,,,,,,,,,,,,,,,,,,,,,,,,18_KR,33,F,18,2021_Nov_04_1417,Partial repeat,2021.2.3,120.09945228074372,
3,3,0,1,1,3,3,3,2,1,0,1,0,0,1,0,0,20,20,20,0,0,0,0,,,,,,,240.16341869234748,None,0.8713197131885528,243.70203358128856,None,"[87. 93. 93. 93. 93. 93. 93. 87. 93. 93. 93. 87. 93. 93. 87. 87. 93. 87.
 87. 87. 93. 87. 93. 93. 93. 93. 93. 93. 87. 87. 87. 93. 87. 87.]",244.65954799897372,None,l,1,0.7241375619123573,244.65954799897372,None,None,None,,,,,,,18_KR,33,F,18,2021_Nov_04_1417,Partial repeat,2021.2.3,120.09945228074372,
3,3,0,1,1,3,3,3,2,1,0,1,0,0,1,0,0,20,20,20,1,0,1,0,,,,,,,,,0.7393447563577575,245.45053697091134,None,"[93. 87. 87. 87. 93. 93. 93. 87. 87. 93. 87. 93. 93. 87. 93. 93. 87. 87.
 93. 87. 87. 87. 93. 87. 87. 87. 87. 87. 93. 87. 87. 93. 93. 87.]",246.27483879326974,None,s,1,1.667998556906241,246.27483879326974,None,None,None,,,,,,,18_KR,33,F,18,2021_Nov_04_1417,Partial repeat,2021.2.3,120.09945228074372,
3,3,0,1,1,3,3,3,2,1,0,1,0,0,1,0,0,20,20,20,,,,,,,,,,,,,,,,,,,,,,,,,,,,,,,,18_KR,33,F,18,2021_Nov_04_1417,Partial repeat,2021.2.3,120.09945228074372,
3,3,0,1,1,3,3,3,2,0,1,1,0,0,1,0,0,21,21,21,0,0,0,0,,,,,,,247.96506016909552,None,0.843319978147746,249.3305618326376,None,"[87. 87. 87. 93. 93. 87. 87. 87. 93. 87. 87. 87. 87. 93. 93. 87. 87. 87.
 87. 93. 87. 93. 93. 93. 87. 87. 87. 87. 93. 93. 93. 87. 93. 93.]",250.25475506134535,None,s,1,0.8082572317289305,250.25475506134535,None,None,None,,,,,,,18_KR,33,F,18,2021_Nov_04_1417,Partial repeat,2021.2.3,120.09945228074372,
3,3,0,1,1,3,3,3,2,0,1,1,0,0,1,0,0,21,21,21,1,0,1,0,,,,,,,,,0.9801936953851902,251.1373507639073,None,"[87. 93. 87. 93. 93. 93. 93. 87. 93. 87. 87. 87. 93. 93. 87. 87. 87. 87.
 87. 87. 93. 93. 87. 93. 87. 93. 93. 93. 93. 87. 93. 93. 93. 87.]",252.20311021710586,None,l,1,0.6517056606498954,252.20311021710586,None,None,None,,,,,,,18_KR,33,F,18,2021_Nov_04_1417,Partial repeat,2021.2.3,120.09945228074372,
3,3,0,1,1,3,3,3,2,0,1,1,0,0,1,0,0,21,21,21,,,,,,,,,,,,,,,,,,,,,,,,,,,,,,,,18_KR,33,F,18,2021_Nov_04_1417,Partial repeat,2021.2.3,120.09945228074372,
3,3,0,1,1,3,3,2,2,1,0,1,1,0,1,0,0,22,22,22,0,0,0,0,,,,,,,252.8858339485705,None,0.7147025764855002,254.43453881052483,None,"[87. 93. 93. 87. 93. 87. 93. 87. 87. 93. 93. 87. 87. 87. 87. 93. 93. 93.
 87. 87. 93. 93. 93. 87. 93. 93. 87. 93. 93. 93. 93. 93. 87. 93.]",255.23384132242063,None,l,1,1.045035650007776,255.23384132242063,None,None,None,,,,,,,18_KR,33,F,18,2021_Nov_04_1417,Partial repeat,2021.2.3,120.09945228074372,
3,3,0,1,1,3,3,2,2,1,0,1,1,0,1,0,0,22,22,22,1,0,1,0,,,,,,,,,0.9660193904877743,256.3496010001145,None,"[93. 87. 93. 87. 93. 87. 93. 87. 87. 87. 93. 93. 93. 87. 87. 87. 87. 87.
 93. 87. 93. 87. 87. 87. 87. 93. 93. 87. 93. 87. 87. 87. 87. 87.]",257.3986525535547,None,s,1,0.7682549354176444,257.3986525535547,None,None,None,,,,,,,18_KR,33,F,18,2021_Nov_04_1417,Partial repeat,2021.2.3,120.09945228074372,
3,3,0,1,1,3,3,2,2,1,0,1,1,0,1,0,0,22,22,22,,,,,,,,,,,,,,,,,,,,,,,,,,,,,,,,18_KR,33,F,18,2021_Nov_04_1417,Partial repeat,2021.2.3,120.09945228074372,
3,3,0,1,1,2,2,3,3,1,0,1,1,0,1,0,0,23,23,23,0,0,0,0,,,,,,,258.18965852331894,None,0.7639774848154215,259.3636533906174,None,"[87. 93. 93. 87. 87. 93. 93. 93. 87. 93. 93. 87. 93. 87. 87. 87. 93. 93.
 87. 93. 93. 93. 93. 87. 87. 87. 87. 87. 87. 87. 87. 93. 87. 87.]",260.21290288853925,None,l,1,0.7220465087302728,260.21290288853925,None,None,None,,,,,,,18_KR,33,F,18,2021_Nov_04_1417,Partial repeat,2021.2.3,120.09945228074372,
3,3,0,1,1,2,2,3,3,1,0,1,1,0,1,0,0,23,23,23,1,0,1,0,,,,,,,,,0.9549000905346914,260.9955821690892,None,"[87. 87. 87. 93. 93. 93. 93. 87. 87. 93. 93. 93. 87. 93. 87. 87. 87. 93.
 93. 93. 87. 87. 93. 87. 87. 93. 93. 93. 93. 93. 87. 93. 93. 87.]",262.0280239611602,None,s,1,0.7140693974251917,262.0280239611602,None,None,None,,,,,,,18_KR,33,F,18,2021_Nov_04_1417,Partial repeat,2021.2.3,120.09945228074372,
3,3,0,1,1,2,2,3,3,1,0,1,1,0,1,0,0,23,23,23,,,,,,,,,,,,,,,,,,,,,,,,,,,,,,,,18_KR,33,F,18,2021_Nov_04_1417,Partial repeat,2021.2.3,120.09945228074372,
3,3,0,1,1,3,2,2,2,0,0,0,1,1,1,0,0,24,24,24,0,0,0,0,,,,,,,262.76075368997044,None,0.9299730182841679,263.77653536862636,None,"[87. 93. 93. 87. 93. 93. 93. 87. 93. 93. 93. 87. 93. 87. 93. 87. 87. 87.
 87. 93. 87. 93. 93. 87. 93. 93. 93. 87. 93. 93. 87. 93. 87. 87.]",264.79234174223166,None,s,1,0.9267073764676752,264.79234174223166,None,None,None,,,,,,,18_KR,33,F,18,2021_Nov_04_1417,Partial repeat,2021.2.3,120.09945228074372,
3,3,0,1,1,3,2,2,2,0,0,0,1,1,1,0,0,24,24,24,1,0,1,0,,,,,,,,,0.9311177242981847,265.791456251769,None,"[93. 87. 93. 93. 87. 87. 87. 93. 87. 93. 87. 87. 87. 93. 87. 93. 93. 93.
 87. 93. 87. 93. 93. 93. 87. 93. 87. 93. 87. 87. 93. 93. 93. 87.]",266.80727769891746,None,s,1,1.1677195360061887,266.80727769891746,None,None,None,,,,,,,18_KR,33,F,18,2021_Nov_04_1417,Partial repeat,2021.2.3,120.09945228074372,
3,3,0,1,1,3,2,2,2,0,0,0,1,1,1,0,0,24,24,24,,,,,,,,,,,,,,,,,,,,,,,,,,,,,,,,18_KR,33,F,18,2021_Nov_04_1417,Partial repeat,2021.2.3,120.09945228074372,
3,3,0,1,1,2,2,2,3,1,1,1,0,1,1,0,0,25,25,25,0,0,0,0,,,,,,,267.99792594464816,None,0.8885243996907485,269.01368934262064,None,"[93. 87. 87. 87. 93. 87. 93. 93. 87. 93. 87. 93. 93. 93. 87. 87. 87. 93.
 93. 93. 87. 93. 87. 87. 87. 93. 87. 93. 93. 93. 87. 93. 87. 93.]",269.98788439939744,None,l,1,0.738216892365017,269.98788439939744,None,None,None,,,,,,,18_KR,33,F,18,2021_Nov_04_1417,Partial repeat,2021.2.3,120.09945228074372,
3,3,0,1,1,2,2,2,3,1,1,1,0,1,1,0,0,25,25,25,1,0,1,0,,,,,,,,,0.7762644328703763,270.795528994764,None,"[93. 87. 93. 93. 93. 87. 93. 93. 93. 87. 87. 87. 87. 87. 93. 87. 87. 87.
 93. 87. 93. 87. 87. 87. 87. 87. 93. 87. 87. 93. 93. 93. 87. 93.]",271.66146811176077,None,l,1,1.4486778669597697,271.66146811176077,None,None,None,,,,,,,18_KR,33,F,18,2021_Nov_04_1417,Partial repeat,2021.2.3,120.09945228074372,
3,3,0,1,1,2,2,2,3,1,1,1,0,1,1,0,0,25,25,25,,,,,,,,,,,,,,,,,,,,,,,,,,,,,,,,18_KR,33,F,18,2021_Nov_04_1417,Partial repeat,2021.2.3,120.09945228074372,
3,3,0,1,1,3,2,2,2,0,1,0,1,0,1,0,0,26,26,26,0,0,0,0,,,,,,,273.1185553388241,None,0.7637361611316126,274.0011138386035,None,"[87. 93. 87. 93. 93. 87. 87. 93. 87. 93. 87. 93. 87. 87. 87. 93. 93. 87.
 93. 93. 87. 87. 87. 93. 87. 87. 87. 87. 87. 87. 93. 87. 93. 87.]",274.85040502930497,None,s,1,1.1244421116170997,274.85040502930497,None,None,None,,,,,,,18_KR,33,F,18,2021_Nov_04_1417,Partial repeat,2021.2.3,120.09945228074372,
3,3,0,1,1,3,2,2,2,0,1,0,1,0,1,0,0,26,26,26,1,0,1,0,,,,,,,,,0.7444333562899083,276.0327211336844,None,"[93. 87. 87. 93. 87. 93. 87. 93. 93. 87. 87. 93. 87. 87. 87. 93. 93. 93.
 87. 93. 87. 87. 93. 93. 93. 93. 93. 93. 93. 87. 87. 87. 93. 87.]",276.85701333463294,None,l,1,1.069210726323945,276.85701333463294,None,None,None,,,,,,,18_KR,33,F,18,2021_Nov_04_1417,Partial repeat,2021.2.3,120.09945228074372,
3,3,0,1,1,3,2,2,2,0,1,0,1,0,1,0,0,26,26,26,,,,,,,,,,,,,,,,,,,,,,,,,,,,,,,,18_KR,33,F,18,2021_Nov_04_1417,Partial repeat,2021.2.3,120.09945228074372,
3,3,0,1,1,3,2,2,3,0,0,0,0,1,1,0,0,27,27,27,0,0,0,0,,,,,,,277.9560785825488,None,0.773558123887679,278.85531066572,None,"[87. 87. 93. 87. 87. 87. 93. 93. 87. 93. 87. 87. 87. 93. 87. 93. 93. 93.
 87. 93. 93. 93. 93. 93. 93. 87. 93. 87. 87. 87. 87. 93. 87. 93.]",279.7129452227455,None,s,1,0.8843196118250489,279.7129452227455,None,None,None,,,,,,,18_KR,33,F,18,2021_Nov_04_1417,Partial repeat,2021.2.3,120.09945228074372,
3,3,0,1,1,3,2,2,3,0,0,0,0,1,1,0,0,27,27,27,1,0,1,0,,,,,,,,,0.7002361304319024,280.6620957484265,None,"[87. 93. 93. 93. 93. 93. 87. 93. 93. 87. 93. 87. 93. 93. 93. 87. 93. 87.
 87. 93. 87. 87. 87. 87. 87. 87. 93. 87. 87. 87. 87. 87. 93. 93.]",281.43644384977233,None,s,1,1.4648841705238738,281.43644384977233,None,None,None,,,,,,,18_KR,33,F,18,2021_Nov_04_1417,Partial repeat,2021.2.3,120.09945228074372,
3,3,0,1,1,3,2,2,3,0,0,0,0,1,1,0,0,27,27,27,,,,,,,,,,,,,,,,,,,,,,,,,,,,,,,,18_KR,33,F,18,2021_Nov_04_1417,Partial repeat,2021.2.3,120.09945228074372,
3,3,0,1,1,2,3,3,2,0,0,0,0,1,1,0,0,28,28,28,0,0,0,0,,,,,,,282.9184944673689,None,0.8933541900965908,284.30900826992365,None,"[87. 93. 93. 87. 87. 87. 87. 93. 93. 87. 93. 93. 87. 87. 87. 93. 87. 93.
 87. 87. 87. 93. 93. 93. 93. 93. 93. 93. 93. 93. 87. 87. 87. 87.]",285.2831731796141,None,s,1,0.8821843001533125,285.2831731796141,None,None,None,,,,,,,18_KR,33,F,18,2021_Nov_04_1417,Partial repeat,2021.2.3,120.09945228074372,
3,3,0,1,1,2,3,3,2,0,0,0,0,1,1,0,0,28,28,28,1,0,1,0,,,,,,,,,0.8660370705341861,286.23232466743866,None,"[93. 87. 93. 87. 87. 87. 87. 93. 87. 93. 87. 87. 93. 93. 87. 87. 93. 87.
 93. 93. 87. 87. 87. 93. 87. 87. 87. 87. 93. 87. 93. 87. 87. 87.]",287.1815178480392,None,s,1,0.9198687987191079,287.1815178480392,None,None,None,,,,,,,18_KR,33,F,18,2021_Nov_04_1417,Partial repeat,2021.2.3,120.09945228074372,
3,3,0,1,1,2,3,3,2,0,0,0,0,1,1,0,0,28,28,28,,,,,,,,,,,,,,,,,,,,,,,,,,,,,,,,18_KR,33,F,18,2021_Nov_04_1417,Partial repeat,2021.2.3,120.09945228074372,
3,3,0,1,1,3,2,2,2,1,0,0,1,0,1,0,0,29,29,29,0,0,0,0,,,,,,,288.1223718315887,None,0.8507149350513525,289.10487914546684,None,"[87. 93. 87. 87. 93. 87. 93. 87. 87. 93. 93. 93. 93. 93. 87. 93. 93. 87.
 87. 93. 87. 93. 87. 93. 87. 93. 87. 87. 87. 87. 93. 87. 87. 87.]",290.04574499542287,None,l,1,0.9356947358610341,290.04574499542287,None,None,None,,,,,,,18_KR,33,F,18,2021_Nov_04_1417,Partial repeat,2021.2.3,120.09945228074372,
3,3,0,1,1,3,2,2,2,1,0,0,1,0,1,0,0,29,29,29,1,0,1,0,,,,,,,,,0.9303647966379762,291.04489350060976,None,"[93. 93. 87. 87. 93. 93. 87. 87. 87. 87. 93. 87. 87. 87. 93. 87. 87. 93.
 93. 93. 87. 87. 87. 93. 87. 87. 93. 93. 87. 93. 93. 93. 87. 87.]",292.0523443207712,None,s,1,0.7531082698478713,292.0523443207712,None,None,None,,,,,,,18_KR,33,F,18,2021_Nov_04_1417,Partial repeat,2021.2.3,120.09945228074372,
3,3,0,1,1,3,2,2,2,1,0,0,1,0,1,0,0,29,29,29,,,,,,,,,,,,,,,,,,,,,,,,,,,,,,,,18_KR,33,F,18,2021_Nov_04_1417,Partial repeat,2021.2.3,120.09945228074372,
3,3,0,1,1,2,3,3,3,1,0,0,1,0,1,0,0,30,30,30,0,0,0,0,,,,,,,292.81836092219237,None,0.8371709018422391,294.45031086776726,None,"[93. 87. 87. 93. 87. 87. 87. 87. 93. 87. 93. 87. 87. 87. 87. 87. 93. 87.
 87. 93. 87. 87. 93. 87. 93. 87. 93. 87. 93. 87. 87. 87. 93. 93.]",295.3662158929037,None,l,1,1.134291228660004,295.3662158929037,None,None,None,,,,,,,18_KR,33,F,18,2021_Nov_04_1417,Partial repeat,2021.2.3,120.09945228074372,
3,3,0,1,1,2,3,3,3,1,0,0,1,0,1,0,0,30,30,30,1,0,1,0,,,,,,,,,0.7383270885084137,296.5734806349901,None,"[87. 87. 93. 87. 87. 87. 87. 93. 93. 87. 87. 93. 87. 93. 87. 93. 87. 87.
 93. 87. 87. 93. 87. 93. 93. 93. 93. 93. 93. 93. 93. 87. 93. 93.]",297.3977943237551,None,s,1,1.246757818313199,297.3977943237551,None,None,None,,,,,,,18_KR,33,F,18,2021_Nov_04_1417,Partial repeat,2021.2.3,120.09945228074372,
3,3,0,1,1,2,3,3,3,1,0,0,1,0,1,0,0,30,30,30,,,,,,,,,,,,,,,,,,,,,,,,,,,,,,,,18_KR,33,F,18,2021_Nov_04_1417,Partial repeat,2021.2.3,120.09945228074372,
3,3,0,1,1,2,3,3,2,1,1,0,0,1,1,0,0,31,31,31,0,0,0,0,,,,,,,298.66337507528806,None,0.9070316145719446,301.7024473019337,None,"[87. 87. 93. 93. 87. 93. 87. 93. 87. 87. 87. 87. 93. 87. 87. 93. 87. 93.
 87. 93. 87. 87. 87. 93. 93. 93. 87. 93. 93. 87. 87. 87. 87. 93.]",302.69328290859266,None,l,1,0.767334487161861,302.69328290859266,None,None,None,,,,,,,18_KR,33,F,18,2021_Nov_04_1417,Partial repeat,2021.2.3,120.09945228074372,
3,3,0,1,1,2,3,3,2,1,1,0,0,1,1,0,0,31,31,31,1,0,1,0,,,,,,,,,0.960867038566994,303.525883838789,None,"[87. 87. 93. 93. 93. 87. 87. 87. 87. 87. 93. 87. 87. 93. 93. 93. 87. 87.
 87. 93. 93. 93. 93. 87. 93. 93. 93. 93. 93. 93. 93. 93. 87. 87.]",304.57497772643546,None,l,1,2.7902594215629506,304.57497772643546,None,None,None,,,,,,,18_KR,33,F,18,2021_Nov_04_1417,Partial repeat,2021.2.3,120.09945228074372,
3,3,0,1,1,2,3,3,2,1,1,0,0,1,1,0,0,31,31,31,,,,,,,,,,,,,,,,,,,,,,,,,,,,,,,,18_KR,33,F,18,2021_Nov_04_1417,Partial repeat,2021.2.3,120.09945228074372,
3,3,0,1,1,2,3,3,3,1,1,0,1,1,1,0,0,32,32,32,0,0,0,0,,,,,,,307.38925115280654,None,0.8411350180547995,308.3884272393698,None,"[93. 93. 93. 87. 93. 93. 93. 93. 87. 93. 93. 87. 87. 87. 93. 87. 93. 87.
 87. 87. 93. 87. 93. 93. 87. 93. 87. 93. 87. 93. 93. 93. 87. 87.]",309.30426491463004,None,l,1,1.371568998136354,309.30426491463004,None,None,None,,,,,,,18_KR,33,F,18,2021_Nov_04_1417,Partial repeat,2021.2.3,120.09945228074372,
3,3,0,1,1,2,3,3,3,1,1,0,1,1,1,0,0,32,32,32,1,0,1,0,,,,,,,,,0.835587688793685,310.74469812183816,None,"[87. 87. 93. 87. 93. 87. 93. 93. 93. 93. 93. 93. 87. 87. 87. 87. 93. 93.
 87. 93. 93. 93. 93. 93. 87. 93. 93. 87. 87. 87. 93. 93. 87. 93.]",311.6689089897991,None,l,1,2.1428892416479357,311.6689089897991,None,None,None,,,,,,,18_KR,33,F,18,2021_Nov_04_1417,Partial repeat,2021.2.3,120.09945228074372,
3,3,0,1,1,2,3,3,3,1,1,0,1,1,1,0,0,32,32,32,,,,,,,,,,,,,,,,,,,,,,,,,,,,,,,,18_KR,33,F,18,2021_Nov_04_1417,Partial repeat,2021.2.3,120.09945228074372,
3,3,0,1,1,2,3,2,3,1,0,0,0,0,1,0,0,33,33,33,0,0,0,0,,,,,,,313.83372150379,None,0.799641242841623,314.93278963812554,None,"[87. 87. 87. 93. 87. 93. 93. 87. 93. 87. 87. 93. 87. 93. 93. 93. 87. 87.
 87. 93. 87. 93. 87. 87. 87. 87. 87. 93. 87. 93. 87. 93. 87. 87.]",315.8070557650535,None,l,1,1.732815432602365,315.8070557650535,None,None,None,,,,,,,18_KR,33,F,18,2021_Nov_04_1417,Partial repeat,2021.2.3,120.09945228074372,
3,3,0,1,1,2,3,2,3,1,0,0,0,0,1,0,0,33,33,33,1,0,1,0,,,,,,,,,0.9484119408579363,317.6055433434922,None,"[93. 93. 93. 87. 93. 93. 87. 93. 93. 87. 87. 87. 87. 93. 93. 87. 93. 93.
 87. 93. 87. 93. 87. 93. 93. 87. 93. 93. 93. 87. 93. 93. 93. 93.]",318.63796813774024,None,s,1,2.469818991885404,318.63796813774024,None,None,None,,,,,,,18_KR,33,F,18,2021_Nov_04_1417,Partial repeat,2021.2.3,120.09945228074372,
3,3,0,1,1,2,3,2,3,1,0,0,0,0,1,0,0,33,33,33,,,,,,,,,,,,,,,,,,,,,,,,,,,,,,,,18_KR,33,F,18,2021_Nov_04_1417,Partial repeat,2021.2.3,120.09945228074372,
3,3,0,1,1,3,3,3,2,1,1,1,0,1,1,0,0,34,34,34,0,0,0,0,,,,,,,321.1274987604411,None,0.9310199680076681,322.0350687578066,None,"[93. 87. 93. 87. 87. 87. 93. 93. 87. 87. 87. 87. 87. 87. 87. 87. 87. 87.
 93. 87. 93. 87. 87. 93. 87. 93. 87. 93. 87. 87. 87. 87. 93. 93.]",323.0508536435955,None,l,1,2.0562240673680208,323.0508536435955,None,None,None,,,,,,,18_KR,33,F,18,2021_Nov_04_1417,Partial repeat,2021.2.3,120.09945228074372,
3,3,0,1,1,3,3,3,2,1,1,1,0,1,1,0,0,34,34,34,1,0,1,0,,,,,,,,,0.9014449604196942,325.1740445779178,None,"[87. 93. 87. 93. 87. 87. 93. 93. 87. 87. 93. 87. 87. 87. 87. 93. 87. 87.
 87. 93. 87. 87. 93. 87. 87. 87. 87. 93. 93. 87. 93. 87. 93. 93.]",326.164878260297,None,l,1,1.5021411577508843,326.164878260297,None,None,None,,,,,,,18_KR,33,F,18,2021_Nov_04_1417,Partial repeat,2021.2.3,120.09945228074372,
3,3,0,1,1,3,3,3,2,1,1,1,0,1,1,0,0,34,34,34,,,,,,,,,,,,,,,,,,,,,,,,,,,,,,,,18_KR,33,F,18,2021_Nov_04_1417,Partial repeat,2021.2.3,120.09945228074372,
3,3,0,1,1,2,2,2,2,0,0,1,1,1,1,0,0,35,35,35,0,0,0,0,,,,,,,327.69688035391664,None,0.708958664887941,328.6877275062652,None,"[93. 93. 93. 87. 93. 93. 87. 87. 93. 87. 93. 87. 93. 87. 87. 87. 93. 87.
 87. 87. 87. 93. 93. 87. 93. 87. 93. 93. 93. 87. 87. 93. 87. 93.]",329.4786850482669,None,s,1,1.708380898926407,329.4786850482669,None,None,None,,,,,,,18_KR,33,F,18,2021_Nov_04_1417,Partial repeat,2021.2.3,120.09945228074372,
3,3,0,1,1,2,2,2,2,0,0,1,1,1,1,0,0,35,35,35,1,0,1,0,,,,,,,,,0.7349511562213149,331.25217363695265,None,"[93. 93. 93. 87. 93. 93. 93. 87. 93. 93. 93. 87. 87. 93. 93. 87. 93. 93.
 93. 87. 93. 93. 93. 87. 93. 87. 87. 87. 87. 87. 93. 93. 87. 87.]",332.0764732143143,None,s,1,1.6226666406982986,332.0764732143143,None,None,None,,,,,,,18_KR,33,F,18,2021_Nov_04_1417,Partial repeat,2021.2.3,120.09945228074372,
3,3,0,1,1,2,2,2,2,0,0,1,1,1,1,0,0,35,35,35,,,,,,,,,,,,,,,,,,,,,,,,,,,,,,,,18_KR,33,F,18,2021_Nov_04_1417,Partial repeat,2021.2.3,120.09945228074372,
3,3,0,1,1,2,2,2,3,1,0,1,0,0,1,0,0,36,36,36,0,0,0,0,,,,,,,333.71673220985394,None,0.799914750311757,334.9490007523964,None,"[93. 93. 93. 93. 87. 87. 93. 93. 93. 93. 93. 87. 93. 87. 93. 93. 93. 93.
 93. 93. 93. 93. 93. 87. 87. 87. 93. 87. 93. 93. 93. 87. 93. 87.]",335.8232765007342,None,l,1,1.2038873795827385,335.8232765007342,None,None,None,,,,,,,18_KR,33,F,18,2021_Nov_04_1417,Partial repeat,2021.2.3,120.09945228074372,
3,3,0,1,1,2,2,2,3,1,0,1,0,0,1,0,0,36,36,36,1,0,1,0,,,,,,,,,0.7524896820933666,337.0888797022235,None,"[93. 93. 87. 87. 87. 87. 93. 93. 87. 93. 93. 93. 87. 87. 87. 87. 93. 93.
 87. 93. 87. 87. 87. 87. 87. 87. 93. 87. 87. 93. 93. 93. 87. 87.]",337.9214443917772,None,s,1,1.8743258529102604,337.9214443917772,None,None,None,,,,,,,18_KR,33,F,18,2021_Nov_04_1417,Partial repeat,2021.2.3,120.09945228074372,
3,3,0,1,1,2,2,2,3,1,0,1,0,0,1,0,0,36,36,36,,,,,,,,,,,,,,,,,,,,,,,,,,,,,,,,18_KR,33,F,18,2021_Nov_04_1417,Partial repeat,2021.2.3,120.09945228074372,
3,3,0,1,1,2,3,2,3,0,0,0,0,1,1,0,0,37,37,37,0,0,0,0,,,,,,,339.8281596871893,None,0.812160541869928,340.9105827816529,None,"[93. 93. 87. 93. 93. 93. 87. 93. 93. 87. 87. 93. 93. 87. 87. 87. 87. 93.
 93. 93. 93. 87. 87. 87. 87. 93. 87. 93. 93. 93. 93. 93. 93. 87.]",341.8014814406197,None,s,1,1.6411496906621323,341.8014814406197,None,None,None,,,,,,,18_KR,33,F,18,2021_Nov_04_1417,Partial repeat,2021.2.3,120.09945228074372,
3,3,0,1,1,2,3,2,3,0,0,0,0,1,1,0,0,37,37,37,1,0,1,0,,,,,,,,,0.8756566964483687,343.5166880155084,None,"[93. 87. 93. 93. 93. 93. 93. 87. 93. 93. 93. 93. 87. 87. 93. 87. 93. 87.
 87. 93. 93. 93. 93. 93. 87. 93. 93. 93. 93. 93. 87. 93. 93. 87.]",344.48252334956123,None,s,1,1.3915991708781803,344.48252334956123,None,None,None,,,,,,,18_KR,33,F,18,2021_Nov_04_1417,Partial repeat,2021.2.3,120.09945228074372,
3,3,0,1,1,2,3,2,3,0,0,0,0,1,1,0,0,37,37,37,,,,,,,,,,,,,,,,,,,,,,,,,,,,,,,,18_KR,33,F,18,2021_Nov_04_1417,Partial repeat,2021.2.3,120.09945228074372,
3,3,0,1,1,2,2,3,3,1,1,1,1,1,1,0,0,38,38,38,0,0,0,0,,,,,,,345.9063012540573,None,0.8410354448541159,346.77223780534405,None,"[93. 87. 93. 93. 93. 87. 93. 87. 87. 87. 87. 87. 87. 87. 93. 87. 93. 87.
 93. 87. 93. 93. 87. 93. 93. 93. 93. 87. 87. 87. 93. 93. 93. 87.]",347.68813385049725,None,l,1,1.6742287408087577,347.68813385049725,None,None,None,,,,,,,18_KR,33,F,18,2021_Nov_04_1417,Partial repeat,2021.2.3,120.09945228074372,
3,3,0,1,1,2,2,3,3,1,1,1,1,1,1,0,0,38,38,38,1,0,1,0,,,,,,,,,0.8081170243227301,349.4282864973793,None,"[93. 87. 93. 87. 93. 93. 87. 87. 93. 87. 87. 87. 87. 87. 93. 93. 93. 87.
 87. 93. 93. 87. 93. 87. 93. 93. 87. 87. 93. 93. 93. 87. 93. 93.]",350.31088155851467,None,l,1,1.435517381196405,350.31088155851467,None,None,None,,,,,,,18_KR,33,F,18,2021_Nov_04_1417,Partial repeat,2021.2.3,120.09945228074372,
3,3,0,1,1,2,2,3,3,1,1,1,1,1,1,0,0,38,38,38,,,,,,,,,,,,,,,,,,,,,,,,,,,,,,,,18_KR,33,F,18,2021_Nov_04_1417,Partial repeat,2021.2.3,120.09945228074372,
3,3,0,1,1,3,3,3,3,0,1,1,1,0,1,0,0,39,39,39,0,0,0,0,,,,,,,351.7679671820115,None,0.9729355180900476,353.0418759056156,None,"[87. 93. 93. 93. 87. 87. 93. 93. 93. 87. 93. 93. 93. 93. 87. 93. 93. 87.
 87. 87. 87. 87. 87. 87. 93. 93. 93. 93. 93. 87. 93. 93. 87. 93.]",354.0993250259962,None,s,1,1.7271323862332792,354.0993250259962,None,None,None,,,,,,,18_KR,33,F,18,2021_Nov_04_1417,Partial repeat,2021.2.3,120.09945228074372,
3,3,0,1,1,3,3,3,3,0,1,1,1,0,1,0,0,39,39,39,1,0,1,0,,,,,,,,,0.7483474749798555,355.8894362045976,None,"[87. 87. 87. 87. 93. 87. 93. 93. 87. 87. 87. 93. 93. 93. 93. 87. 87. 93.
 93. 87. 87. 87. 93. 87. 87. 87. 93. 87. 93. 93. 93. 93. 87. 87.]",356.7137402719527,None,l,1,1.6717470583716931,356.7137402719527,None,None,None,,,,,,,18_KR,33,F,18,2021_Nov_04_1417,Partial repeat,2021.2.3,120.09945228074372,
3,3,0,1,1,3,3,3,3,0,1,1,1,0,1,0,0,39,39,39,,,,,,,,,,,,,,,,,,,,,,,,,,,,,,,,18_KR,33,F,18,2021_Nov_04_1417,Partial repeat,2021.2.3,120.09945228074372,
3,3,0,1,1,3,3,2,2,1,1,1,1,1,1,0,0,40,40,40,0,0,0,0,,,,,,,358.4039555542149,None,0.8349678315214346,359.2782383582562,None,"[87. 87. 87. 87. 93. 87. 93. 93. 87. 87. 87. 93. 87. 87. 87. 87. 93. 93.
 87. 87. 87. 87. 87. 93. 93. 87. 93. 87. 93. 93. 87. 87. 93. 87.]",360.2024113820007,None,l,1,2.10315730696675,360.2024113820007,None,None,None,,,,,,,18_KR,33,F,18,2021_Nov_04_1417,Partial repeat,2021.2.3,120.09945228074372,
3,3,0,1,1,3,3,2,2,1,1,1,1,1,1,0,0,40,40,40,1,0,1,0,,,,,,,,,0.8868662333876485,362.36724442166815,None,"[87. 93. 87. 93. 87. 93. 93. 93. 87. 87. 93. 87. 93. 87. 87. 87. 93. 87.
 87. 93. 87. 87. 93. 93. 93. 93. 93. 87. 93. 87. 93. 93. 93. 87.]",363.3414202356216,None,l,1,1.3163853991791257,363.3414202356216,None,None,None,,,,,,,18_KR,33,F,18,2021_Nov_04_1417,Partial repeat,2021.2.3,120.09945228074372,
3,3,0,1,1,3,3,2,2,1,1,1,1,1,1,0,0,40,40,40,,,,,,,,,,,,,,,,,,,,,,,,,,,,,,,,18_KR,33,F,18,2021_Nov_04_1417,Partial repeat,2021.2.3,120.09945228074372,
3,3,0,1,1,2,2,2,3,0,1,1,0,0,1,0,0,41,41,41,0,0,0,0,,,,,,,364.681923550841,None,0.7162979683466597,365.61445918373283,None,"[93. 87. 87. 87. 87. 87. 93. 93. 87. 93. 93. 87. 93. 87. 87. 93. 87. 93.
 87. 93. 87. 87. 93. 93. 87. 87. 93. 87. 87. 87. 93. 87. 93. 93.]",366.40546066350726,None,s,1,2.028203634061356,366.40546066350726,None,None,None,,,,,,,18_KR,33,F,18,2021_Nov_04_1417,Partial repeat,2021.2.3,120.09945228074372,
3,3,0,1,1,2,2,2,3,0,1,1,0,0,1,0,0,41,41,41,1,0,1,0,,,,,,,,,0.9032046095691936,368.4953554245185,None,"[93. 87. 93. 87. 87. 93. 93. 93. 87. 87. 93. 87. 87. 93. 87. 93. 87. 93.
 87. 87. 93. 93. 93. 87. 87. 93. 87. 87. 87. 87. 87. 87. 87. 87.]",369.4778332327369,None,l,1,1.7878983274677012,369.4778332327369,None,None,None,,,,,,,18_KR,33,F,18,2021_Nov_04_1417,Partial repeat,2021.2.3,120.09945228074372,
3,3,0,1,1,2,2,2,3,0,1,1,0,0,1,0,0,41,41,41,,,,,,,,,,,,,,,,,,,,,,,,,,,,,,,,18_KR,33,F,18,2021_Nov_04_1417,Partial repeat,2021.2.3,120.09945228074372,
3,3,0,1,1,3,2,3,2,0,1,0,0,0,1,0,0,42,42,42,0,0,0,0,,,,,,,371.28460676975374,None,0.7437935755715953,372.0755864409948,None,"[87. 87. 93. 87. 93. 93. 87. 87. 93. 93. 93. 87. 93. 93. 87. 93. 93. 93.
 87. 87. 93. 87. 87. 87. 93. 87. 87. 93. 87. 87. 93. 87. 87. 93.]",372.908229705401,None,s,1,1.364515862936969,372.908229705401,None,None,None,,,,,,,18_KR,33,F,18,2021_Nov_04_1417,Partial repeat,2021.2.3,120.09945228074372,
3,3,0,1,1,3,2,3,2,0,1,0,0,0,1,0,0,42,42,42,1,0,1,0,,,,,,,,,0.911039521725039,374.3320024784771,None,"[87. 93. 93. 93. 87. 87. 87. 93. 93. 93. 87. 87. 93. 93. 87. 87. 87. 93.
 93. 93. 87. 87. 87. 93. 87. 87. 93. 87. 87. 87. 93. 93. 93. 87.]",375.32282718086935,None,l,1,1.237987902797613,375.32282718086935,None,None,None,,,,,,,18_KR,33,F,18,2021_Nov_04_1417,Partial repeat,2021.2.3,120.09945228074372,
3,3,0,1,1,3,2,3,2,0,1,0,0,0,1,0,0,42,42,42,,,,,,,,,,,,,,,,,,,,,,,,,,,,,,,,18_KR,33,F,18,2021_Nov_04_1417,Partial repeat,2021.2.3,120.09945228074372,
3,3,0,1,1,3,2,3,2,1,1,0,0,1,1,0,0,43,43,43,0,0,0,0,,,,,,,376.58008156390497,None,0.8733462534592134,377.62918475224797,None,"[93. 93. 93. 93. 87. 93. 93. 93. 87. 93. 93. 87. 87. 87. 93. 93. 87. 93.
 93. 93. 93. 93. 87. 87. 93. 87. 87. 87. 93. 93. 87. 87. 93. 87.]",378.5867014149262,None,l,1,1.4781472846661927,378.5867014149262,None,None,None,,,,,,,18_KR,33,F,18,2021_Nov_04_1417,Partial repeat,2021.2.3,120.09945228074372,
3,3,0,1,1,3,2,3,2,1,1,0,0,1,1,0,0,43,43,43,1,0,1,0,,,,,,,,,0.7453714983763493,380.12704976129316,None,"[93. 93. 93. 87. 87. 93. 87. 87. 87. 93. 93. 87. 93. 93. 87. 87. 87. 93.
 87. 93. 87. 87. 87. 93. 93. 93. 93. 93. 93. 93. 93. 87. 93. 87.]",380.9513519043685,None,l,1,1.2744504822476301,380.9513519043685,None,None,None,,,,,,,18_KR,33,F,18,2021_Nov_04_1417,Partial repeat,2021.2.3,120.09945228074372,
3,3,0,1,1,3,2,3,2,1,1,0,0,1,1,0,0,43,43,43,,,,,,,,,,,,,,,,,,,,,,,,,,,,,,,,18_KR,33,F,18,2021_Nov_04_1417,Partial repeat,2021.2.3,120.09945228074372,
3,3,0,1,1,2,3,2,3,1,1,0,0,1,1,0,0,44,44,44,0,0,0,0,,,,,,,382.2418947635815,None,0.9548174633567363,383.39093040962325,None,"[93. 93. 93. 93. 87. 87. 87. 87. 87. 87. 93. 87. 87. 93. 93. 93. 87. 87.
 93. 87. 87. 93. 87. 87. 93. 87. 87. 93. 87. 93. 87. 87. 87. 87.]",384.43171043660186,None,l,1,1.650025120976352,384.43171043660186,None,None,None,,,,,,,18_KR,33,F,18,2021_Nov_04_1417,Partial repeat,2021.2.3,120.09945228074372,
3,3,0,1,1,2,3,2,3,1,1,0,0,1,1,0,0,44,44,44,1,0,1,0,,,,,,,,,0.9210368661134548,386.14690193794377,None,"[87. 93. 87. 87. 93. 93. 93. 87. 93. 93. 87. 93. 93. 93. 87. 93. 87. 87.
 93. 93. 87. 93. 93. 93. 93. 87. 93. 93. 93. 87. 93. 93. 93. 87.]",387.15436558665533,None,l,1,1.037702211055148,387.15436558665533,None,None,None,,,,,,,18_KR,33,F,18,2021_Nov_04_1417,Partial repeat,2021.2.3,120.09945228074372,
3,3,0,1,1,2,3,2,3,1,1,0,0,1,1,0,0,44,44,44,,,,,,,,,,,,,,,,,,,,,,,,,,,,,,,,18_KR,33,F,18,2021_Nov_04_1417,Partial repeat,2021.2.3,120.09945228074372,
3,3,0,1,1,3,2,3,2,1,0,0,0,0,1,0,0,45,45,45,0,0,0,0,,,,,,,388.2117935399292,None,0.9260069588130416,392.31662618190967,None,"[93. 93. 87. 93. 87. 93. 87. 87. 87. 87. 93. 87. 87. 93. 87. 87. 93. 87.
 93. 93. 93. 87. 87. 93. 93. 87. 93. 87. 87. 93. 87. 93. 93. 87.]",393.3324261412454,None,l,1,1.131714294264384,393.3324261412454,None,None,None,,,,,,,18_KR,33,F,18,2021_Nov_04_1417,Partial repeat,2021.2.3,120.09945228074372,
3,3,0,1,1,3,2,3,2,1,0,0,0,0,1,0,0,45,45,45,1,0,1,0,,,,,,,,,0.9903387340817769,394.52305995485585,None,"[93. 87. 93. 87. 93. 87. 93. 93. 93. 93. 87. 87. 93. 93. 93. 87. 93. 93.
 93. 87. 93. 93. 87. 93. 93. 87. 87. 87. 87. 87. 93. 93. 93. 93.]",395.59715668081844,None,s,1,1.69993554564644,395.59715668081844,None,None,None,,,,,,,18_KR,33,F,18,2021_Nov_04_1417,Partial repeat,2021.2.3,120.09945228074372,
3,3,0,1,1,3,2,3,2,1,0,0,0,0,1,0,0,45,45,45,,,,,,,,,,,,,,,,,,,,,,,,,,,,,,,,18_KR,33,F,18,2021_Nov_04_1417,Partial repeat,2021.2.3,120.09945228074372,
3,3,0,1,1,2,2,2,2,1,0,1,1,0,1,0,0,46,46,46,0,0,0,0,,,,,,,397.32068673778485,None,0.7968330003556077,398.44471858337056,None,"[93. 87. 93. 93. 93. 93. 93. 93. 87. 93. 93. 87. 87. 93. 93. 93. 87. 87.
 93. 87. 93. 87. 93. 87. 87. 93. 93. 93. 93. 87. 93. 93. 87. 87.]",399.318983748155,None,l,1,1.6731957220545155,399.318983748155,None,None,None,,,,,,,18_KR,33,F,18,2021_Nov_04_1417,Partial repeat,2021.2.3,120.09945228074372,
3,3,0,1,1,2,2,2,2,1,0,1,1,0,1,0,0,46,46,46,1,0,1,0,,,,,,,,,0.9367543993287577,401.05084722932224,None,"[87. 93. 87. 87. 87. 93. 93. 93. 87. 87. 93. 93. 87. 93. 93. 93. 93. 93.
 87. 87. 93. 93. 93. 87. 93. 87. 93. 87. 93. 87. 93. 87. 87. 93.]",402.07495591790575,None,s,1,2.6774397261506238,402.07495591790575,None,None,None,,,,,,,18_KR,33,F,18,2021_Nov_04_1417,Partial repeat,2021.2.3,120.09945228074372,
3,3,0,1,1,2,2,2,2,1,0,1,1,0,1,0,0,46,46,46,,,,,,,,,,,,,,,,,,,,,,,,,,,,,,,,18_KR,33,F,18,2021_Nov_04_1417,Partial repeat,2021.2.3,120.09945228074372,
3,3,0,1,1,3,2,2,2,1,1,0,1,1,1,0,0,47,47,47,0,0,0,0,,,,,,,404.77264639456916,None,0.8382475346185436,405.8217438100655,None,"[93. 93. 87. 93. 87. 93. 93. 93. 87. 87. 87. 87. 93. 87. 87. 93. 87. 93.
 87. 87. 87. 87. 93. 87. 87. 87. 93. 87. 93. 93. 93. 87. 93. 93.]",406.7459748829897,None,l,1,1.1574913353979355,406.7459748829897,None,None,None,,,,,,,18_KR,33,F,18,2021_Nov_04_1417,Partial repeat,2021.2.3,120.09945228074372,
3,3,0,1,1,3,2,2,2,1,1,0,1,1,1,0,0,47,47,47,1,0,1,0,,,,,,,,,0.971296563038543,407.96990743561764,None,"[87. 87. 93. 87. 87. 87. 87. 87. 87. 87. 93. 87. 87. 87. 87. 93. 87. 87.
 87. 93. 93. 87. 87. 87. 87. 87. 87. 93. 87. 87. 87. 87. 93. 93.]",409.0190183210907,None,l,1,0.9483359861769713,409.0190183210907,None,None,None,,,,,,,18_KR,33,F,18,2021_Nov_04_1417,Partial repeat,2021.2.3,120.09945228074372,
3,3,0,1,1,3,2,2,2,1,1,0,1,1,1,0,0,47,47,47,,,,,,,,,,,,,,,,,,,,,,,,,,,,,,,,18_KR,33,F,18,2021_Nov_04_1417,Partial repeat,2021.2.3,120.09945228074372,
3,3,0,1,1,2,3,2,3,0,1,0,0,0,1,0,0,48,48,48,0,0,0,0,,,,,,,409.98484114731036,None,0.930986669951581,411.0339539570632,None,"[87. 87. 93. 93. 87. 93. 93. 93. 87. 93. 87. 93. 93. 93. 87. 87. 87. 87.
 87. 93. 87. 87. 87. 93. 93. 87. 87. 93. 93. 93. 93. 87. 93. 93.]",412.0414111914979,None,s,1,1.141970076248981,412.0414111914979,None,None,None,,,,,,,18_KR,33,F,18,2021_Nov_04_1417,Partial repeat,2021.2.3,120.09945228074372,
3,3,0,1,1,2,3,2,3,0,1,0,0,0,1,0,0,48,48,48,1,0,1,0,,,,,,,,,0.8678472984626002,413.24873686918,None,"[93. 93. 87. 93. 87. 93. 93. 93. 87. 87. 93. 93. 87. 93. 93. 93. 87. 87.
 87. 93. 87. 93. 93. 93. 93. 93. 87. 93. 87. 93. 93. 87. 93. 93.]",414.20626860540506,None,l,1,1.1693019372905837,414.20626860540506,None,None,None,,,,,,,18_KR,33,F,18,2021_Nov_04_1417,Partial repeat,2021.2.3,120.09945228074372,
3,3,0,1,1,2,3,2,3,0,1,0,0,0,1,0,0,48,48,48,,,,,,,,,,,,,,,,,,,,,,,,,,,,,,,,18_KR,33,F,18,2021_Nov_04_1417,Partial repeat,2021.2.3,120.09945228074372,
3,3,0,1,1,2,2,2,2,1,1,1,1,1,1,0,0,49,49,49,0,0,0,0,,,,,,,415.3968947218891,None,0.8841897050648458,422.6656810066306,None,"[87. 87. 93. 93. 87. 93. 87. 93. 93. 87. 93. 87. 87. 87. 87. 93. 87. 93.
 87. 87. 93. 93. 93. 87. 93. 87. 87. 93. 93. 87. 87. 87. 93. 93.]",423.63984174704456,None,l,1,1.5427226629653887,423.63984174704456,None,None,None,,,,,,,18_KR,33,F,18,2021_Nov_04_1417,Partial repeat,2021.2.3,120.09945228074372,
3,3,0,1,1,2,2,2,2,1,1,1,1,1,1,0,0,49,49,49,1,0,1,0,,,,,,,,,0.7165516841269688,425.2551322206273,None,"[93. 87. 93. 93. 87. 93. 93. 93. 87. 87. 93. 93. 87. 87. 93. 87. 87. 87.
 93. 93. 87. 93. 87. 87. 87. 87. 87. 87. 87. 93. 93. 87. 93. 87.]",426.05446840745935,None,l,1,0.8241399351900327,426.05446840745935,None,None,None,,,,,,,18_KR,33,F,18,2021_Nov_04_1417,Partial repeat,2021.2.3,120.09945228074372,
3,3,0,1,1,2,2,2,2,1,1,1,1,1,1,0,0,49,49,49,,,,,,,,,,,,,,,,,,,,,,,,,,,,,,,,18_KR,33,F,18,2021_Nov_04_1417,Partial repeat,2021.2.3,120.09945228074372,
3,3,0,1,1,3,2,2,3,1,1,0,0,1,1,0,0,50,50,50,0,0,0,0,,,,,,,426.89539634758694,None,0.9755500982214849,427.9528185280142,None,"[87. 87. 87. 87. 87. 93. 87. 93. 93. 93. 93. 93. 93. 87. 87. 93. 93. 87.
 87. 87. 87. 93. 93. 87. 87. 87. 87. 87. 87. 93. 93. 87. 87. 87.]",429.0185718876528,None,l,1,1.4774032289351453,429.0185718876528,None,None,None,,,,,,,18_KR,33,F,18,2021_Nov_04_1417,Partial repeat,2021.2.3,120.09945228074372,
3,3,0,1,1,3,2,2,3,1,1,0,0,1,1,0,0,50,50,50,1,0,1,0,,,,,,,,,0.8931158487128649,430.5589343454194,None,"[93. 87. 87. 93. 87. 87. 93. 93. 87. 93. 87. 93. 93. 93. 87. 93. 87. 93.
 93. 93. 93. 87. 87. 93. 87. 93. 93. 87. 93. 87. 87. 87. 87. 93.]",431.54142530289755,None,l,1,1.145257712159946,431.54142530289755,None,None,None,,,,,,,18_KR,33,F,18,2021_Nov_04_1417,Partial repeat,2021.2.3,120.09945228074372,
3,3,0,1,1,3,2,2,3,1,1,0,0,1,1,0,0,50,50,50,,,,,,,,,,,,,,,,,,,,,,,,,,,,,,,,18_KR,33,F,18,2021_Nov_04_1417,Partial repeat,2021.2.3,120.09945228074372,
3,3,0,1,1,3,3,2,3,1,0,1,0,0,1,0,0,51,51,51,0,0,0,0,,,,,,,432.7070870667085,None,0.9457224110526224,435.89603232280933,None,"[93. 87. 87. 87. 87. 93. 93. 93. 93. 87. 87. 93. 87. 87. 93. 93. 87. 93.
 93. 87. 87. 93. 93. 87. 93. 87. 87. 87. 87. 87. 93. 93. 87. 93.]",436.9284956026968,None,l,1,1.5012733065414068,436.9284956026968,None,None,None,,,,,,,18_KR,33,F,18,2021_Nov_04_1417,Partial repeat,2021.2.3,120.09945228074372,
3,3,0,1,1,3,3,2,3,1,0,1,0,0,1,0,0,51,51,51,1,0,1,0,,,,,,,,,0.8421264567912843,438.5021215209781,None,"[87. 93. 93. 87. 87. 87. 87. 93. 93. 87. 93. 93. 87. 87. 93. 87. 87. 93.
 87. 93. 93. 93. 87. 87. 93. 87. 93. 93. 93. 87. 93. 93. 93. 87.]",439.43466100243677,None,s,1,1.203158076681575,439.43466100243677,None,None,None,,,,,,,18_KR,33,F,18,2021_Nov_04_1417,Partial repeat,2021.2.3,120.09945228074372,
3,3,0,1,1,3,3,2,3,1,0,1,0,0,1,0,0,51,51,51,,,,,,,,,,,,,,,,,,,,,,,,,,,,,,,,18_KR,33,F,18,2021_Nov_04_1417,Partial repeat,2021.2.3,120.09945228074372,
3,3,0,1,1,2,3,3,2,1,0,0,0,0,1,0,0,52,52,52,0,0,0,0,,,,,,,440.6669459013756,None,0.9111385295346157,441.7909783883879,None,"[93. 93. 87. 93. 87. 93. 93. 87. 87. 93. 87. 87. 93. 93. 87. 93. 87. 93.
 87. 87. 93. 93. 93. 87. 93. 93. 93. 93. 87. 87. 93. 93. 87. 87.]",442.79014260854456,None,l,1,1.287730594212917,442.79014260854456,None,None,None,,,,,,,18_KR,33,F,18,2021_Nov_04_1417,Partial repeat,2021.2.3,120.09945228074372,
3,3,0,1,1,2,3,3,2,1,0,0,0,0,1,0,0,52,52,52,1,0,1,0,,,,,,,,,0.9312763399455426,444.14732014858237,None,"[87. 93. 93. 93. 93. 93. 87. 93. 93. 93. 93. 87. 87. 87. 93. 93. 93. 93.
 87. 93. 93. 87. 93. 87. 93. 87. 87. 93. 93. 93. 93. 87. 93. 87.]",445.163112410788,None,s,1,1.0427951442579797,445.163112410788,None,None,None,,,,,,,18_KR,33,F,18,2021_Nov_04_1417,Partial repeat,2021.2.3,120.09945228074372,
3,3,0,1,1,2,3,3,2,1,0,0,0,0,1,0,0,52,52,52,,,,,,,,,,,,,,,,,,,,,,,,,,,,,,,,18_KR,33,F,18,2021_Nov_04_1417,Partial repeat,2021.2.3,120.09945228074372,
3,3,0,1,1,2,2,3,2,0,1,1,0,0,1,0,0,53,53,53,0,0,0,0,,,,,,,446.2205464576218,None,0.727518005606872,447.5443979979791,None,"[93. 87. 87. 87. 87. 87. 93. 87. 93. 93. 93. 87. 87. 87. 93. 87. 87. 87.
 93. 93. 93. 87. 93. 93. 87. 87. 87. 93. 93. 93. 93. 93. 87. 93.]",448.3603702446999,None,s,1,1.0936048500770994,448.3603702446999,None,None,None,,,,,,,18_KR,33,F,18,2021_Nov_04_1417,Partial repeat,2021.2.3,120.09945228074372,
3,3,0,1,1,2,2,3,2,0,1,1,0,0,1,0,0,53,53,53,1,0,1,0,,,,,,,,,0.867861802074034,449.5260371399272,None,"[93. 87. 93. 87. 87. 93. 87. 93. 87. 93. 93. 87. 87. 87. 87. 93. 93. 93.
 87. 93. 87. 93. 93. 93. 93. 93. 93. 93. 87. 87. 93. 93. 87. 93.]",450.48356470687213,None,l,1,1.0013861977531633,450.48356470687213,None,None,None,,,,,,,18_KR,33,F,18,2021_Nov_04_1417,Partial repeat,2021.2.3,120.09945228074372,
3,3,0,1,1,2,2,3,2,0,1,1,0,0,1,0,0,53,53,53,,,,,,,,,,,,,,,,,,,,,,,,,,,,,,,,18_KR,33,F,18,2021_Nov_04_1417,Partial repeat,2021.2.3,120.09945228074372,
3,3,0,1,1,2,2,3,2,1,1,1,0,1,1,0,0,54,54,54,0,0,0,0,,,,,,,451.5077067496786,None,0.7347685540048938,452.8898399831196,None,"[93. 87. 87. 87. 87. 87. 87. 93. 87. 93. 93. 87. 93. 87. 87. 93. 93. 93.
 93. 87. 93. 87. 93. 87. 87. 87. 93. 87. 87. 93. 87. 93. 87. 93.]",453.71411326196176,None,l,1,0.9709318683453603,453.71411326196176,None,None,None,,,,,,,18_KR,33,F,18,2021_Nov_04_1417,Partial repeat,2021.2.3,120.09945228074372,
3,3,0,1,1,2,2,3,2,1,1,1,0,1,1,0,0,54,54,54,1,0,1,0,,,,,,,,,0.8841922364333784,454.7548997032136,None,"[87. 93. 87. 93. 87. 93. 93. 87. 93. 93. 87. 93. 87. 93. 93. 93. 87. 93.
 93. 93. 93. 87. 93. 93. 87. 87. 93. 87. 93. 93. 87. 87. 87. 93.]",455.7290581986308,None,l,1,1.2600395338486123,455.7290581986308,None,None,None,,,,,,,18_KR,33,F,18,2021_Nov_04_1417,Partial repeat,2021.2.3,120.09945228074372,
3,3,0,1,1,2,2,3,2,1,1,1,0,1,1,0,0,54,54,54,,,,,,,,,,,,,,,,,,,,,,,,,,,,,,,,18_KR,33,F,18,2021_Nov_04_1417,Partial repeat,2021.2.3,120.09945228074372,
3,3,0,1,1,2,3,2,2,1,1,0,1,1,1,0,0,55,55,55,0,0,0,0,,,,,,,457.01130130857564,None,0.8776825889180842,458.31018400626635,None,"[93. 87. 93. 93. 87. 93. 93. 93. 93. 93. 87. 87. 93. 93. 87. 93. 93. 93.
 87. 93. 87. 87. 87. 87. 87. 87. 93. 93. 87. 93. 87. 87. 93. 93.]",459.276023830309,None,l,1,1.1370974733436015,459.276023830309,None,None,None,,,,,,,18_KR,33,F,18,2021_Nov_04_1417,Partial repeat,2021.2.3,120.09945228074372,
3,3,0,1,1,2,3,2,2,1,1,0,1,1,1,0,0,55,55,55,1,0,1,0,,,,,,,,,0.8300983706611429,460.48334020729817,None,"[93. 93. 87. 93. 93. 87. 93. 87. 87. 87. 93. 93. 93. 87. 93. 87. 93. 87.
 87. 87. 87. 87. 93. 93. 87. 87. 93. 93. 93. 93. 87. 87. 93. 93.]",461.3992272724645,None,l,1,1.0459391004405916,461.3992272724645,None,None,None,,,,,,,18_KR,33,F,18,2021_Nov_04_1417,Partial repeat,2021.2.3,120.09945228074372,
3,3,0,1,1,2,3,2,2,1,1,0,1,1,1,0,0,55,55,55,,,,,,,,,,,,,,,,,,,,,,,,,,,,,,,,18_KR,33,F,18,2021_Nov_04_1417,Partial repeat,2021.2.3,120.09945228074372,
3,3,0,1,1,2,3,2,2,0,1,0,1,0,1,0,0,56,56,56,0,0,0,0,,,,,,,462.4649787078197,None,0.8949575754279948,463.5640426728787,None,"[87. 93. 87. 87. 87. 93. 93. 87. 87. 93. 87. 87. 93. 93. 93. 87. 93. 87.
 87. 87. 93. 87. 93. 93. 87. 87. 93. 93. 93. 87. 93. 87. 93. 93.]",464.5465313853638,None,s,1,0.9226760055353225,464.5465313853638,None,None,None,,,,,,,18_KR,33,F,18,2021_Nov_04_1417,Partial repeat,2021.2.3,120.09945228074372,
3,3,0,1,1,2,3,2,2,0,1,0,1,0,1,0,0,56,56,56,1,0,1,0,,,,,,,,,0.8929575190454218,465.5290249085483,None,"[87. 93. 87. 87. 93. 93. 87. 87. 87. 87. 93. 87. 87. 87. 93. 93. 87. 93.
 87. 87. 87. 93. 93. 87. 87. 87. 93. 93. 93. 93. 93. 87. 87. 93.]",466.5115190731631,None,l,1,1.1167122705592192,466.5115190731631,None,None,None,,,,,,,18_KR,33,F,18,2021_Nov_04_1417,Partial repeat,2021.2.3,120.09945228074372,
3,3,0,1,1,2,3,2,2,0,1,0,1,0,1,0,0,56,56,56,,,,,,,,,,,,,,,,,,,,,,,,,,,,,,,,18_KR,33,F,18,2021_Nov_04_1417,Partial repeat,2021.2.3,120.09945228074372,
3,3,0,1,1,3,3,2,3,1,1,1,0,1,1,0,0,57,57,57,0,0,0,0,,,,,,,467.6438625344199,None,0.8049939271239708,468.42652642071334,None,"[87. 87. 87. 87. 87. 87. 93. 87. 87. 93. 93. 87. 93. 93. 93. 87. 93. 93.
 87. 93. 87. 93. 87. 87. 93. 87. 93. 93. 93. 87. 93. 87. 93. 87.]",469.3174577924765,None,l,1,1.2229932555092091,469.3174577924765,None,None,None,,,,,,,18_KR,33,F,18,2021_Nov_04_1417,Partial repeat,2021.2.3,120.09945228074372,
3,3,0,1,1,3,3,2,3,1,1,1,0,1,1,0,0,57,57,57,1,0,1,0,,,,,,,,,0.9842912128437472,470.59968198031856,None,"[87. 93. 93. 93. 93. 93. 87. 93. 87. 93. 87. 93. 93. 93. 93. 93. 87. 87.
 87. 93. 87. 93. 93. 93. 93. 87. 87. 93. 93. 87. 93. 87. 93. 87.]",471.67377646128443,None,l,1,2.1465992574703705,471.67377646128443,None,None,None,,,,,,,18_KR,33,F,18,2021_Nov_04_1417,Partial repeat,2021.2.3,120.09945228074372,
3,3,0,1,1,3,3,2,3,1,1,1,0,1,1,0,0,57,57,57,,,,,,,,,,,,,,,,,,,,,,,,,,,,,,,,18_KR,33,F,18,2021_Nov_04_1417,Partial repeat,2021.2.3,120.09945228074372,
3,3,0,1,1,3,3,3,3,1,1,1,1,1,1,0,0,58,58,58,0,0,0,0,,,,,,,473.8385799952921,None,0.9277822227756573,474.937639149648,None,"[87. 87. 87. 93. 87. 87. 87. 93. 93. 93. 87. 93. 87. 87. 93. 93. 93. 93.
 87. 87. 87. 87. 93. 93. 87. 93. 93. 93. 87. 87. 93. 87. 87. 93.]",475.95344327826024,None,l,1,2.138980704057758,475.95344327826024,None,None,None,,,,,,,18_KR,33,F,18,2021_Nov_04_1417,Partial repeat,2021.2.3,120.09945228074372,
3,3,0,1,1,3,3,3,3,1,1,1,1,1,1,0,0,58,58,58,1,0,1,0,,,,,,,,,0.8486588510209662,478.15987961691644,None,"[93. 93. 93. 93. 93. 93. 93. 93. 87. 93. 93. 87. 87. 87. 93. 87. 87. 87.
 87. 87. 93. 87. 87. 87. 93. 93. 87. 93. 87. 93. 93. 93. 87. 93.]",479.0924104391015,None,l,1,1.623104094156588,479.0924104391015,None,None,None,,,,,,,18_KR,33,F,18,2021_Nov_04_1417,Partial repeat,2021.2.3,120.09945228074372,
3,3,0,1,1,3,3,3,3,1,1,1,1,1,1,0,0,58,58,58,,,,,,,,,,,,,,,,,,,,,,,,,,,,,,,,18_KR,33,F,18,2021_Nov_04_1417,Partial repeat,2021.2.3,120.09945228074372,
3,3,0,1,1,3,2,3,3,1,0,0,1,0,1,0,0,59,59,59,0,0,0,0,,,,,,,480.7243571775398,None,0.7923720862122607,481.7651583716215,None,"[87. 93. 93. 87. 93. 93. 87. 93. 87. 93. 87. 87. 87. 93. 87. 93. 93. 93.
 93. 87. 93. 93. 93. 93. 87. 87. 87. 93. 87. 93. 87. 87. 93. 93.]",482.6477175128275,None,l,1,1.908687757771986,482.6477175128275,None,None,None,,,,,,,18_KR,33,F,18,2021_Nov_04_1417,Partial repeat,2021.2.3,120.09945228074372,
3,3,0,1,1,3,2,3,3,1,0,0,1,0,1,0,0,59,59,59,1,0,1,0,,,,,,,,,0.830006111122981,484.6210257962848,None,"[87. 87. 93. 87. 87. 93. 93. 93. 93. 87. 93. 93. 93. 87. 87. 87. 93. 93.
 87. 93. 87. 87. 87. 93. 93. 87. 87. 93. 87. 93. 93. 93. 93. 93.]",485.53691350288136,None,s,1,1.8026534016389633,485.53691350288136,None,None,None,,,,,,,18_KR,33,F,18,2021_Nov_04_1417,Partial repeat,2021.2.3,120.09945228074372,
3,3,0,1,1,3,2,3,3,1,0,0,1,0,1,0,0,59,59,59,,,,,,,,,,,,,,,,,,,,,,,,,,,,,,,,18_KR,33,F,18,2021_Nov_04_1417,Partial repeat,2021.2.3,120.09945228074372,
3,3,0,1,1,2,2,2,3,0,0,1,0,1,1,0,0,60,60,60,0,0,0,0,,,,,,,487.36036447185325,None,0.73448367791892,488.25127243151655,None,"[87. 93. 93. 93. 93. 93. 93. 93. 87. 87. 87. 87. 93. 93. 87. 93. 93. 93.
 93. 93. 93. 87. 93. 87. 93. 93. 87. 93. 93. 93. 87. 93. 87. 93.]",489.0755399375121,None,s,1,2.1360798488422006,489.0755399375121,None,None,None,,,,,,,18_KR,33,F,18,2021_Nov_04_1417,Partial repeat,2021.2.3,120.09945228074372,
3,3,0,1,1,2,2,2,3,0,0,1,0,1,1,0,0,60,60,60,1,0,1,0,,,,,,,,,0.8334528907630464,491.28200770610783,None,"[93. 87. 93. 87. 93. 93. 93. 93. 87. 93. 87. 93. 87. 87. 93. 87. 87. 93.
 93. 87. 93. 87. 87. 87. 93. 87. 93. 93. 93. 93. 87. 87. 93. 87.]",492.1979002234111,None,s,1,1.2697651761263842,492.1979002234111,None,None,None,,,,,,,18_KR,33,F,18,2021_Nov_04_1417,Partial repeat,2021.2.3,120.09945228074372,
3,3,0,1,1,2,2,2,3,0,0,1,0,1,1,0,0,60,60,60,,,,,,,,,,,,,,,,,,,,,,,,,,,,,,,,18_KR,33,F,18,2021_Nov_04_1417,Partial repeat,2021.2.3,120.09945228074372,
3,3,0,1,1,3,3,3,2,0,0,1,0,1,1,0,0,61,61,61,0,0,0,0,,,,,,,493.48844693118735,None,0.9349700152809656,494.36269381529564,None,"[87. 87. 87. 93. 93. 87. 93. 87. 93. 87. 87. 93. 93. 87. 87. 87. 93. 87.
 87. 87. 93. 87. 93. 87. 87. 87. 87. 93. 93. 93. 87. 87. 93. 93.]",495.3868239916919,None,s,1,2.4159323590392887,495.3868239916919,None,None,None,,,,,,,18_KR,33,F,18,2021_Nov_04_1417,Partial repeat,2021.2.3,120.09945228074372,
3,3,0,1,1,3,3,3,2,0,0,1,0,1,1,0,0,61,61,61,1,0,1,0,,,,,,,,,0.964656326150031,497.8763530108299,None,"[93. 87. 87. 93. 87. 93. 93. 93. 93. 87. 87. 87. 87. 93. 87. 93. 87. 87.
 93. 93. 93. 93. 87. 93. 87. 87. 87. 93. 87. 93. 87. 87. 87. 93.]",498.92547063128586,None,s,1,1.5653275251133891,498.92547063128586,None,None,None,,,,,,,18_KR,33,F,18,2021_Nov_04_1417,Partial repeat,2021.2.3,120.09945228074372,
3,3,0,1,1,3,3,3,2,0,0,1,0,1,1,0,0,61,61,61,,,,,,,,,,,,,,,,,,,,,,,,,,,,,,,,18_KR,33,F,18,2021_Nov_04_1417,Partial repeat,2021.2.3,120.09945228074372,
3,3,0,1,1,3,2,2,3,1,0,0,0,0,1,0,0,62,62,62,0,0,0,0,,,,,,,500.51575602155935,None,0.9826365532814543,501.27349404081906,None,"[93. 93. 93. 87. 87. 87. 93. 93. 87. 93. 87. 93. 87. 87. 87. 93. 93. 93.
 87. 87. 93. 87. 93. 93. 93. 93. 87. 93. 87. 87. 93. 93. 93. 87.]",502.3392172533713,None,l,1,1.319626531603717,502.3392172533713,None,None,None,,,,,,,18_KR,33,F,18,2021_Nov_04_1417,Partial repeat,2021.2.3,120.09945228074372,
3,3,0,1,1,3,2,2,3,1,0,0,0,0,1,0,0,62,62,62,1,0,1,0,,,,,,,,,0.7244273226981359,503.72135625965893,None,"[93. 93. 93. 87. 93. 93. 87. 93. 93. 93. 87. 93. 87. 93. 87. 93. 87. 87.
 93. 93. 87. 93. 93. 93. 93. 87. 87. 93. 87. 93. 93. 87. 87. 93.]",504.5290014964521,None,s,1,1.2749732455413323,504.5290014964521,None,None,None,,,,,,,18_KR,33,F,18,2021_Nov_04_1417,Partial repeat,2021.2.3,120.09945228074372,
3,3,0,1,1,3,2,2,3,1,0,0,0,0,1,0,0,62,62,62,,,,,,,,,,,,,,,,,,,,,,,,,,,,,,,,18_KR,33,F,18,2021_Nov_04_1417,Partial repeat,2021.2.3,120.09945228074372,
3,3,0,1,1,2,3,2,2,0,0,0,1,1,1,0,0,63,63,63,0,0,0,0,,,,,,,505.81959214200106,None,0.9351180306672244,506.6771555005944,None,"[87. 93. 93. 93. 93. 93. 93. 87. 93. 93. 87. 87. 87. 87. 93. 87. 93. 87.
 93. 87. 93. 87. 93. 87. 87. 93. 93. 87. 87. 87. 93. 87. 93. 93.]",507.70129209126753,None,s,1,1.1256213758133526,507.70129209126753,None,None,None,,,,,,,18_KR,33,F,18,2021_Nov_04_1417,Partial repeat,2021.2.3,120.09945228074372,
3,3,0,1,1,2,3,2,2,0,0,0,1,1,1,0,0,63,63,63,1,0,1,0,,,,,,,,,0.9503262522968541,508.8919441855578,None,"[87. 87. 87. 93. 87. 87. 93. 93. 93. 87. 93. 87. 87. 93. 93. 87. 87. 93.
 87. 87. 93. 93. 93. 93. 87. 87. 87. 87. 87. 93. 93. 87. 87. 87.]",509.9327242125364,None,s,1,0.9742381056494196,509.9327242125364,None,None,None,,,,,,,18_KR,33,F,18,2021_Nov_04_1417,Partial repeat,2021.2.3,120.09945228074372,
3,3,0,1,1,2,3,2,2,0,0,0,1,1,1,0,0,63,63,63,,,,,,,,,,,,,,,,,,,,,,,,,,,,,,,,18_KR,33,F,18,2021_Nov_04_1417,Partial repeat,2021.2.3,120.09945228074372,
4,1,0,1,1,3,2,2,2,0,1,0,1,0,0,0,0,64,64,64,0,0,0,0,,,,,,,536.0520521506114,None,0.9442635482268379,542.7463251023255,None,"[87. 93. 87. 93. 87. 93. 87. 93. 93. 87. 93. 87. 87. 87. 93. 87. 93. 87.
 93. 93. 93. 93. 93. 93. 93. 93. 93. 87. 87. 87. 93. 93. 87. 93.]",543.7787765158064,None,s,1,3.3017387262298143,543.7787765158064,None,None,None,,,,,,,18_KR,33,F,18,2021_Nov_04_1417,Partial repeat,2021.2.3,120.09945228074372,
4,1,0,1,1,3,2,2,2,0,1,0,1,0,0,0,0,64,64,64,1,0,1,0,,,,,,,,,0.955814437884029,547.1425604368887,None,"[93. 87. 87. 87. 87. 93. 93. 93. 87. 93. 93. 93. 93. 87. 93. 93. 87. 87.
 87. 87. 87. 93. 93. 93. 87. 93. 93. 93. 87. 87. 87. 87. 87. 93.]",548.1833346910207,None,l,1,2.1131966072243813,548.1833346910207,None,None,None,,,,,,,18_KR,33,F,18,2021_Nov_04_1417,Partial repeat,2021.2.3,120.09945228074372,
4,1,0,1,1,3,2,2,2,0,1,0,1,0,0,0,0,64,64,64,,,,,,,,,,,,,,,,,,,,,,,,,,,,,,,,18_KR,33,F,18,2021_Nov_04_1417,Partial repeat,2021.2.3,120.09945228074372,
6,7,0,1,1,2,3,2,2,0,0,0,1,1,0,0,0,65,65,65,0,0,0,0,,,,,,,550.3231697030787,None,0.9353361607312826,551.4305407938191,None,"[87. 87. 87. 93. 93. 87. 93. 87. 93. 87. 93. 87. 93. 93. 87. 93. 93. 93.
 93. 93. 93. 93. 93. 87. 87. 93. 93. 87. 93. 87. 87. 87. 93. 93.]",552.4463648066776,None,s,1,1.2417873977356066,552.4463648066776,None,None,None,,,,,,,18_KR,33,F,18,2021_Nov_04_1417,Partial repeat,2021.2.3,120.09945228074372,
6,7,0,1,1,2,3,2,2,0,0,0,1,1,0,0,0,65,65,65,1,0,1,0,,,,,,,,,0.7719717568884623,553.7452410900951,None,"[93. 87. 93. 93. 87. 87. 93. 93. 87. 93. 87. 87. 93. 87. 87. 87. 93. 93.
 87. 87. 87. 93. 93. 93. 87. 87. 93. 87. 87. 87. 87. 87. 93. 93.]",554.602855121444,None,s,1,2.269827394582535,554.602855121444,None,None,None,,,,,,,18_KR,33,F,18,2021_Nov_04_1417,Partial repeat,2021.2.3,120.09945228074372,
6,7,0,1,1,2,3,2,2,0,0,0,1,1,0,0,0,65,65,65,,,,,,,,,,,,,,,,,,,,,,,,,,,,,,,,18_KR,33,F,18,2021_Nov_04_1417,Partial repeat,2021.2.3,120.09945228074372,
2,8,0,1,1,3,2,3,3,1,0,0,1,0,0,0,0,66,66,66,0,0,0,0,,,,,,,556.9008433486888,None,0.886552532532685,557.7668020292222,None,"[93. 93. 93. 87. 93. 93. 87. 93. 87. 87. 93. 87. 87. 87. 93. 87. 93. 87.
 93. 87. 93. 87. 93. 87. 87. 93. 93. 93. 93. 87. 87. 93. 87. 93.]",558.7409775224623,None,l,1,1.522753746532544,558.7409775224623,None,None,None,,,,,,,18_KR,33,F,18,2021_Nov_04_1417,Partial repeat,2021.2.3,120.09945228074372,
2,8,0,1,1,3,2,3,3,1,0,0,1,0,0,0,0,66,66,66,1,0,1,0,,,,,,,,,0.7517339366558283,560.3312831176954,None,"[87. 87. 93. 87. 93. 93. 93. 87. 93. 93. 93. 87. 93. 93. 87. 87. 93. 87.
 87. 93. 87. 93. 87. 87. 93. 87. 93. 87. 93. 93. 87. 93. 93. 87.]",561.1722245277997,None,s,1,1.6997585116987466,561.1722245277997,None,None,None,,,,,,,18_KR,33,F,18,2021_Nov_04_1417,Partial repeat,2021.2.3,120.09945228074372,
2,8,0,1,1,3,2,3,3,1,0,0,1,0,0,0,0,66,66,66,,,,,,,,,,,,,,,,,,,,,,,,,,,,,,,,18_KR,33,F,18,2021_Nov_04_1417,Partial repeat,2021.2.3,120.09945228074372,
1,5,0,1,1,2,3,3,2,0,1,0,0,0,0,0,0,67,67,67,0,0,0,0,,,,,,,562.8957253998196,None,0.7007121287543159,563.8449381439532,None,"[93. 93. 87. 87. 87. 87. 87. 93. 87. 87. 87. 93. 87. 93. 87. 87. 87. 93.
 87. 93. 93. 87. 93. 93. 87. 87. 93. 87. 93. 87. 93. 87. 93. 93.]",564.6359351337342,None,s,1,2.7959046237192524,564.6359351337342,None,None,None,,,,,,,18_KR,33,F,18,2021_Nov_04_1417,Partial repeat,2021.2.3,120.09945228074372,
1,5,0,1,1,2,3,3,2,0,1,0,0,0,0,0,0,67,67,67,1,0,1,0,,,,,,,,,0.9886452778493666,567.4918031998241,None,"[87. 87. 93. 87. 87. 93. 93. 93. 87. 93. 93. 87. 93. 87. 93. 93. 87. 93.
 87. 87. 87. 87. 93. 87. 93. 87. 87. 87. 87. 93. 87. 87. 93. 93.]",568.5658893422369,None,l,1,2.7380170877404453,568.5658893422369,None,None,None,,,,,,,18_KR,33,F,18,2021_Nov_04_1417,Partial repeat,2021.2.3,120.09945228074372,
1,5,0,1,1,2,3,3,2,0,1,0,0,0,0,0,0,67,67,67,,,,,,,,,,,,,,,,,,,,,,,,,,,,,,,,18_KR,33,F,18,2021_Nov_04_1417,Partial repeat,2021.2.3,120.09945228074372,
1,2,0,1,1,3,2,3,2,0,1,0,0,0,0,0,0,68,68,68,0,0,0,0,,,,,,,571.321861832701,None,0.8112017559305229,572.1378360037015,None,"[93. 87. 87. 93. 93. 87. 87. 87. 93. 87. 93. 87. 87. 87. 93. 87. 87. 87.
 93. 93. 87. 87. 93. 87. 93. 87. 87. 93. 87. 93. 87. 87. 93. 87.]",573.0370773875693,None,s,1,1.193971233384218,573.0370773875693,None,None,None,,,,,,,18_KR,33,F,18,2021_Nov_04_1417,Partial repeat,2021.2.3,120.09945228074372,
1,2,0,1,1,3,2,3,2,0,1,0,0,0,0,0,0,68,68,68,1,0,1,0,,,,,,,,,0.9208555894268934,574.2943320913182,None,"[93. 93. 87. 93. 93. 87. 87. 87. 93. 87. 93. 87. 93. 93. 93. 93. 87. 93.
 93. 93. 93. 87. 87. 87. 93. 87. 87. 93. 87. 93. 93. 87. 87. 93.]",575.3018127378491,None,s,0,5.633748581120017,575.3018127378491,None,580.9469645412537,None,,,,,,,18_KR,33,F,18,2021_Nov_04_1417,Partial repeat,2021.2.3,120.09945228074372,
1,2,0,1,1,3,2,3,2,0,1,0,0,0,0,0,0,68,68,68,,,,,,,,,,,,,,,,,,,,,,,,,,,,,,,,18_KR,33,F,18,2021_Nov_04_1417,Partial repeat,2021.2.3,120.09945228074372,
5,5,0,1,1,3,3,3,3,0,1,1,1,0,0,0,0,69,69,69,0,0,0,0,,,,,,,581.4465476134756,None,0.9001352759856254,582.961918457906,None,"[87. 93. 93. 87. 87. 87. 93. 93. 87. 87. 93. 87. 93. 87. 87. 93. 93. 93.
 87. 93. 93. 93. 93. 87. 93. 87. 87. 93. 87. 87. 93. 93. 87. 87.]",583.9444161503707,None,s,1,1.4707144244712254,583.9444161503707,None,None,None,,,,,,,18_KR,33,F,18,2021_Nov_04_1417,Partial repeat,2021.2.3,120.09945228074372,
5,5,0,1,1,3,3,3,3,0,1,1,1,0,0,0,0,69,69,69,1,0,1,0,,,,,,,,,0.8611153647210682,585.47644871179,None,"[93. 87. 93. 93. 93. 93. 87. 87. 93. 87. 93. 87. 93. 87. 87. 93. 87. 93.
 93. 87. 87. 87. 93. 93. 93. 93. 87. 87. 87. 87. 87. 93. 93. 93.]",586.4256159145843,None,l,1,2.972687775731174,586.4256159145843,None,None,None,,,,,,,18_KR,33,F,18,2021_Nov_04_1417,Partial repeat,2021.2.3,120.09945228074372,
5,5,0,1,1,3,3,3,3,0,1,1,1,0,0,0,0,69,69,69,,,,,,,,,,,,,,,,,,,,,,,,,,,,,,,,18_KR,33,F,18,2021_Nov_04_1417,Partial repeat,2021.2.3,120.09945228074372,
8,6,0,1,1,3,3,2,2,1,1,1,1,1,0,0,0,70,70,70,0,0,0,0,,,,,,,589.4230659201312,None,0.8065912395075281,590.3056372484571,None,"[87. 87. 93. 93. 93. 93. 87. 93. 87. 87. 87. 93. 93. 93. 87. 93. 87. 87.
 87. 93. 93. 93. 93. 93. 87. 87. 93. 93. 87. 87. 87. 87. 87. 93.]",591.1965525845371,None,l,1,1.2418339012183424,591.1965525845371,None,None,None,,,,,,,18_KR,33,F,18,2021_Nov_04_1417,Partial repeat,2021.2.3,120.09945228074372,
8,6,0,1,1,3,3,2,2,1,1,1,1,1,0,0,0,70,70,70,1,0,1,0,,,,,,,,,0.8443525756401793,592.5120918677931,None,"[93. 87. 87. 93. 87. 93. 93. 87. 87. 93. 87. 87. 87. 93. 87. 93. 87. 93.
 93. 87. 87. 87. 87. 93. 87. 87. 87. 93. 87. 93. 93. 87. 87. 87.]",593.444623972835,None,l,1,3.3457489813699794,593.444623972835,None,None,None,,,,,,,18_KR,33,F,18,2021_Nov_04_1417,Partial repeat,2021.2.3,120.09945228074372,
8,6,0,1,1,3,3,2,2,1,1,1,1,1,0,0,0,70,70,70,,,,,,,,,,,,,,,,,,,,,,,,,,,,,,,,18_KR,33,F,18,2021_Nov_04_1417,Partial repeat,2021.2.3,120.09945228074372,
8,7,0,1,1,3,3,2,3,0,0,1,0,1,0,0,0,71,71,71,0,0,0,0,,,,,,,596.8084062903508,None,0.8334855315848113,597.649351869728,None,"[93. 87. 93. 87. 87. 87. 93. 93. 87. 93. 93. 93. 93. 93. 87. 93. 87. 87.
 87. 93. 93. 93. 93. 93. 93. 93. 87. 93. 93. 93. 87. 87. 87. 93.]",598.5652386141846,None,l,0,7.664289182506764,598.5652386141846,None,606.2420047683736,None,,,,,,,18_KR,33,F,18,2021_Nov_04_1417,Partial repeat,2021.2.3,120.09945228074372,
8,7,0,1,1,3,3,2,3,0,0,1,0,1,0,0,0,71,71,71,1,0,1,0,,,,,,,,,0.7864002216297145,606.791538995898,None,"[93. 93. 87. 87. 93. 87. 93. 87. 93. 87. 93. 87. 93. 87. 87. 93. 93. 93.
 93. 87. 93. 93. 93. 87. 87. 93. 93. 93. 87. 87. 87. 87. 93. 87.]",607.665793897846,None,l,0,1.395718738069263,607.665793897846,None,609.0729168203434,None,,,,,,,18_KR,33,F,18,2021_Nov_04_1417,Partial repeat,2021.2.3,120.09945228074372,
8,7,0,1,1,3,3,2,3,0,0,1,0,1,0,0,0,71,71,71,,,,,,,,,,,,,,,,,,,,,,,,,,,,,,,,18_KR,33,F,18,2021_Nov_04_1417,Partial repeat,2021.2.3,120.09945228074372,
8,2,0,1,1,2,2,3,3,1,0,1,1,0,0,0,0,72,72,72,0,0,0,0,,,,,,,609.5724822533084,None,0.7349984734470922,610.4217651054532,None,"[87. 93. 93. 93. 93. 93. 93. 93. 93. 87. 93. 87. 93. 93. 87. 93. 93. 87.
 87. 93. 87. 93. 87. 93. 93. 87. 93. 87. 93. 93. 93. 93. 93. 93.]",611.2460637206786,None,l,1,1.4965876797068631,611.2460637206786,None,None,None,,,,,,,18_KR,33,F,18,2021_Nov_04_1417,Partial repeat,2021.2.3,120.09945228074372,
8,2,0,1,1,2,2,3,3,1,0,1,1,0,0,0,0,72,72,72,1,0,1,0,,,,,,,,,0.8498792469249153,612.8030619176243,None,"[93. 93. 93. 93. 87. 93. 87. 87. 87. 93. 93. 93. 93. 93. 93. 93. 87. 87.
 93. 87. 93. 87. 87. 93. 87. 93. 93. 93. 87. 93. 87. 93. 93. 93.]",613.735590174103,None,s,1,1.9180304679175606,613.735590174103,None,None,None,,,,,,,18_KR,33,F,18,2021_Nov_04_1417,Partial repeat,2021.2.3,120.09945228074372,
8,2,0,1,1,2,2,3,3,1,0,1,1,0,0,0,0,72,72,72,,,,,,,,,,,,,,,,,,,,,,,,,,,,,,,,18_KR,33,F,18,2021_Nov_04_1417,Partial repeat,2021.2.3,120.09945228074372,
8,8,0,1,1,3,3,3,2,1,0,1,0,0,0,0,0,73,73,73,0,0,0,0,,,,,,,615.6755897764197,None,0.8000072215089674,616.5831613773516,None,"[93. 93. 87. 93. 93. 93. 93. 87. 93. 87. 87. 87. 87. 87. 93. 93. 93. 93.
 93. 87. 87. 87. 93. 93. 93. 93. 87. 93. 87. 93. 93. 93. 93. 93.]",617.465717311421,None,l,1,2.461381977162091,617.465717311421,None,None,None,,,,,,,18_KR,33,F,18,2021_Nov_04_1417,Partial repeat,2021.2.3,120.09945228074372,
8,8,0,1,1,3,3,3,2,1,0,1,0,0,0,0,0,73,73,73,1,0,1,0,,,,,,,,,0.9558516836320662,619.9885902902024,None,"[93. 87. 87. 93. 93. 93. 87. 87. 93. 93. 87. 93. 87. 87. 93. 87. 87. 87.
 93. 87. 87. 87. 87. 87. 87. 93. 93. 87. 93. 87. 87. 93. 87. 93.]",621.0293796178776,None,s,1,2.5913303486740915,621.0293796178776,None,None,None,,,,,,,18_KR,33,F,18,2021_Nov_04_1417,Partial repeat,2021.2.3,120.09945228074372,
8,8,0,1,1,3,3,3,2,1,0,1,0,0,0,0,0,73,73,73,,,,,,,,,,,,,,,,,,,,,,,,,,,,,,,,18_KR,33,F,18,2021_Nov_04_1417,Partial repeat,2021.2.3,120.09945228074372,
7,3,0,1,1,3,3,2,2,0,0,1,1,1,0,0,0,74,74,74,0,0,0,0,,,,,,,623.6437903738442,None,0.7724342108954643,624.518047520789,None,"[93. 87. 87. 93. 87. 87. 87. 93. 87. 93. 93. 93. 87. 93. 93. 93. 93. 93.
 87. 87. 87. 87. 93. 93. 87. 93. 87. 87. 87. 87. 93. 87. 87. 87.]",625.3756570621481,None,s,1,6.229745240565535,625.3756570621481,None,None,None,,,,,,,18_KR,33,F,18,2021_Nov_04_1417,Partial repeat,2021.2.3,120.09945228074372,
7,3,0,1,1,3,3,2,2,0,0,1,1,1,0,0,0,74,74,74,1,0,1,0,,,,,,,,,0.9714633634897587,631.6785903735872,None,"[93. 93. 93. 93. 93. 87. 87. 93. 93. 87. 93. 93. 93. 87. 87. 93. 87. 87.
 93. 93. 93. 87. 93. 93. 87. 87. 93. 87. 87. 93. 93. 87. 87. 93.]",632.736007422598,None,s,1,3.6360471360458178,632.736007422598,None,None,None,,,,,,,18_KR,33,F,18,2021_Nov_04_1417,Partial repeat,2021.2.3,120.09945228074372,
7,3,0,1,1,3,3,2,2,0,0,1,1,1,0,0,0,74,74,74,,,,,,,,,,,,,,,,,,,,,,,,,,,,,,,,18_KR,33,F,18,2021_Nov_04_1417,Partial repeat,2021.2.3,120.09945228074372,
2,4,0,1,1,2,2,2,2,0,1,1,1,0,0,0,0,75,75,75,0,0,0,0,,,,,,,636.3912206554996,None,0.7875199708977034,637.0406796436,None,"[87. 87. 93. 93. 93. 93. 87. 93. 87. 93. 93. 93. 87. 93. 87. 87. 87. 93.
 93. 87. 87. 93. 87. 87. 93. 93. 93. 93. 93. 93. 87. 93. 87. 93.]",637.9149060020281,None,s,1,1.5770900199568132,637.9149060020281,None,None,None,,,,,,,18_KR,33,F,18,2021_Nov_04_1417,Partial repeat,2021.2.3,120.09945228074372,
2,4,0,1,1,2,2,2,2,0,1,1,1,0,0,0,0,75,75,75,1,0,1,0,,,,,,,,,0.9063992747311737,639.5635077224651,None,"[87. 93. 87. 87. 87. 93. 93. 87. 93. 87. 87. 87. 87. 87. 87. 87. 93. 93.
 93. 93. 87. 93. 87. 93. 87. 93. 93. 93. 87. 93. 87. 87. 87. 93.]",640.5543157477478,None,l,1,2.6817218951764517,640.5543157477478,None,None,None,,,,,,,18_KR,33,F,18,2021_Nov_04_1417,Partial repeat,2021.2.3,120.09945228074372,
2,4,0,1,1,2,2,2,2,0,1,1,1,0,0,0,0,75,75,75,,,,,,,,,,,,,,,,,,,,,,,,,,,,,,,,18_KR,33,F,18,2021_Nov_04_1417,Partial repeat,2021.2.3,120.09945228074372,
2,5,0,1,1,2,2,3,2,1,0,1,0,0,0,0,0,76,76,76,0,0,0,0,,,,,,,643.2520043001314,None,0.716991887046239,643.9347819114919,None,"[87. 87. 93. 93. 93. 93. 87. 93. 87. 93. 93. 93. 93. 87. 93. 93. 93. 93.
 93. 93. 93. 93. 93. 87. 93. 87. 93. 87. 93. 87. 87. 87. 87. 87.]",644.7257769769931,None,l,1,1.9343236848872039,644.7257769769931,None,None,None,,,,,,,18_KR,33,F,18,2021_Nov_04_1417,Partial repeat,2021.2.3,120.09945228074372,
2,5,0,1,1,2,2,3,2,1,0,1,0,0,0,0,0,76,76,76,1,0,1,0,,,,,,,,,0.7390731276357366,646.7323788680478,None,"[93. 87. 87. 93. 93. 87. 87. 93. 87. 87. 93. 93. 87. 87. 87. 93. 87. 93.
 93. 93. 93. 87. 93. 87. 93. 93. 87. 93. 93. 87. 87. 93. 93. 87.]",647.5566755589898,None,s,1,1.3114643685039482,647.5566755589898,None,None,None,,,,,,,18_KR,33,F,18,2021_Nov_04_1417,Partial repeat,2021.2.3,120.09945228074372,
2,5,0,1,1,2,2,3,2,1,0,1,0,0,0,0,0,76,76,76,,,,,,,,,,,,,,,,,,,,,,,,,,,,,,,,18_KR,33,F,18,2021_Nov_04_1417,Partial repeat,2021.2.3,120.09945228074372,
1,3,0,1,1,3,3,3,2,0,1,1,0,0,0,0,0,77,77,77,0,0,0,0,,,,,,,648.888871427811,None,0.8379099634560382,649.6049240453794,None,"[93. 93. 87. 87. 87. 87. 87. 93. 93. 87. 87. 87. 87. 93. 93. 93. 87. 93.
 93. 87. 87. 93. 87. 93. 93. 87. 87. 87. 87. 93. 93. 93. 87. 93.]",650.5291179155174,None,l,0,1.7470839841262205,650.5291179155174,None,652.2859598607611,None,,,,,,,18_KR,33,F,18,2021_Nov_04_1417,Partial repeat,2021.2.3,120.09945228074372,
1,3,0,1,1,3,3,3,2,0,1,1,0,0,0,0,0,77,77,77,1,0,1,0,,,,,,,,,0.9681542560559147,652.835487353299,None,"[93. 93. 87. 87. 87. 87. 93. 87. 87. 87. 93. 93. 93. 87. 93. 87. 93. 93.
 93. 87. 87. 93. 93. 87. 93. 93. 93. 87. 87. 87. 93. 93. 87. 87.]",653.8929310215462,None,l,1,2.798328577697248,653.8929310215462,None,None,None,,,,,,,18_KR,33,F,18,2021_Nov_04_1417,Partial repeat,2021.2.3,120.09945228074372,
1,3,0,1,1,3,3,3,2,0,1,1,0,0,0,0,0,77,77,77,,,,,,,,,,,,,,,,,,,,,,,,,,,,,,,,18_KR,33,F,18,2021_Nov_04_1417,Partial repeat,2021.2.3,120.09945228074372,
7,5,0,1,1,3,2,2,3,0,0,0,0,1,0,0,0,78,78,78,0,0,0,0,,,,,,,656.707174300831,None,0.9781151376212125,657.4731896193989,None,"[93. 87. 87. 87. 93. 87. 87. 93. 87. 93. 93. 93. 87. 87. 87. 87. 87. 87.
 87. 93. 87. 93. 87. 87. 93. 87. 87. 93. 93. 87. 93. 93. 93. 93.]",658.5389695982703,None,s,1,3.6403873542512883,658.5389695982703,None,None,None,,,,,,,18_KR,33,F,18,2021_Nov_04_1417,Partial repeat,2021.2.3,120.09945228074372,
7,5,0,1,1,3,2,2,3,0,0,0,0,1,0,0,0,78,78,78,1,0,1,0,,,,,,,,,0.824309028915294,662.2524411121594,None,"[93. 93. 93. 93. 87. 87. 93. 93. 87. 93. 87. 93. 87. 93. 93. 93. 87. 87.
 93. 93. 93. 87. 93. 93. 93. 87. 93. 87. 87. 87. 93. 87. 93. 87.]",663.1600043745348,None,s,1,1.675389724321576,663.1600043745348,None,None,None,,,,,,,18_KR,33,F,18,2021_Nov_04_1417,Partial repeat,2021.2.3,120.09945228074372,
7,5,0,1,1,3,2,2,3,0,0,0,0,1,0,0,0,78,78,78,,,,,,,,,,,,,,,,,,,,,,,,,,,,,,,,18_KR,33,F,18,2021_Nov_04_1417,Partial repeat,2021.2.3,120.09945228074372,
5,7,0,1,1,2,3,3,2,1,1,0,0,1,0,0,0,79,79,79,0,0,0,0,,,,,,,664.8502206189405,None,0.7039994079566494,665.7577694491993,None,"[93. 87. 87. 93. 93. 93. 93. 87. 87. 93. 87. 93. 93. 93. 87. 93. 87. 93.
 87. 93. 93. 93. 93. 87. 87. 87. 93. 87. 87. 87. 93. 87. 93. 93.]",666.5487613075638,None,l,1,5.005738923788158,666.5487613075638,None,None,None,,,,,,,18_KR,33,F,18,2021_Nov_04_1417,Partial repeat,2021.2.3,120.09945228074372,
5,7,0,1,1,2,3,3,2,1,1,0,0,1,0,0,0,79,79,79,1,0,1,0,,,,,,,,,0.9233205459084906,671.6277434649783,None,"[87. 87. 87. 93. 93. 87. 93. 93. 93. 93. 93. 93. 87. 87. 87. 87. 93. 87.
 93. 87. 93. 93. 93. 87. 93. 93. 87. 93. 93. 93. 87. 93. 93. 87.]",672.6352404679092,None,s,0,3.0633708509631106,672.6352404679092,None,675.7075764757828,None,,,,,,,18_KR,33,F,18,2021_Nov_04_1417,Partial repeat,2021.2.3,120.09945228074372,
5,7,0,1,1,2,3,3,2,1,1,0,0,1,0,0,0,79,79,79,,,,,,,,,,,,,,,,,,,,,,,,,,,,,,,,18_KR,33,F,18,2021_Nov_04_1417,Partial repeat,2021.2.3,120.09945228074372,
3,6,0,1,1,2,2,3,2,1,1,1,0,1,0,0,0,80,80,80,0,0,0,0,,,,,,,676.2071675658408,None,0.9061617921516233,677.073089043588,None,"[87. 87. 93. 93. 93. 87. 93. 87. 93. 93. 87. 93. 87. 93. 87. 87. 87. 93.
 93. 93. 93. 93. 93. 93. 87. 93. 87. 87. 87. 87. 87. 87. 87. 87.]",678.0639307438068,None,l,1,3.2027158125201822,678.0639307438068,None,None,None,,,,,,,18_KR,33,F,18,2021_Nov_04_1417,Partial repeat,2021.2.3,120.09945228074372,
3,6,0,1,1,2,2,3,2,1,1,1,0,1,0,0,0,80,80,80,1,0,1,0,,,,,,,,,0.9609291906543975,681.3277857350404,None,"[87. 87. 87. 93. 87. 87. 87. 93. 93. 87. 87. 93. 93. 93. 93. 93. 93. 87.
 87. 93. 93. 87. 93. 87. 87. 93. 93. 93. 87. 93. 93. 93. 87. 93.]",682.3768738498402,None,s,0,3.2417793798958883,682.3768738498402,None,685.632447372489,None,,,,,,,18_KR,33,F,18,2021_Nov_04_1417,Partial repeat,2021.2.3,120.09945228074372,
3,6,0,1,1,2,2,3,2,1,1,1,0,1,0,0,0,80,80,80,,,,,,,,,,,,,,,,,,,,,,,,,,,,,,,,18_KR,33,F,18,2021_Nov_04_1417,Partial repeat,2021.2.3,120.09945228074372,
3,2,0,1,1,2,3,2,3,0,0,0,0,1,0,0,0,81,81,81,0,0,0,0,,,,,,,686.1320067118977,None,0.9817165258248595,686.9479779964786,None,"[87. 87. 93. 93. 93. 93. 87. 93. 93. 93. 87. 93. 93. 93. 87. 87. 87. 93.
 93. 87. 87. 87. 87. 93. 87. 93. 87. 87. 87. 87. 93. 87. 93. 87.]",688.0137243004137,None,s,1,3.25208679678326,688.0137243004137,None,None,None,,,,,,,18_KR,33,F,18,2021_Nov_04_1417,Partial repeat,2021.2.3,120.09945228074372,
3,2,0,1,1,2,3,2,3,0,0,0,0,1,0,0,0,81,81,81,1,0,1,0,,,,,,,,,0.7233200103435418,691.3275801575728,None,"[87. 93. 87. 87. 87. 93. 93. 93. 93. 87. 87. 93. 87. 87. 87. 87. 93. 93.
 93. 93. 87. 93. 93. 93. 93. 93. 87. 87. 93. 93. 87. 87. 87. 93.]",692.1352016615529,None,s,1,2.4266695322548912,692.1352016615529,None,None,None,,,,,,,18_KR,33,F,18,2021_Nov_04_1417,Partial repeat,2021.2.3,120.09945228074372,
3,2,0,1,1,2,3,2,3,0,0,0,0,1,0,0,0,81,81,81,,,,,,,,,,,,,,,,,,,,,,,,,,,,,,,,18_KR,33,F,18,2021_Nov_04_1417,Partial repeat,2021.2.3,120.09945228074372,
2,1,0,1,1,2,3,3,3,0,1,0,1,0,0,0,0,82,82,82,0,0,0,0,,,,,,,694.5747721489679,None,0.8966920017717965,695.457363682257,None,"[87. 87. 87. 87. 93. 93. 93. 87. 87. 93. 87. 87. 87. 93. 93. 93. 93. 87.
 93. 87. 93. 87. 87. 93. 87. 93. 93. 87. 93. 87. 93. 87. 87. 93.]",696.4398459804652,None,s,1,1.1621352694492089,696.4398459804652,None,None,None,,,,,,,18_KR,33,F,18,2021_Nov_04_1417,Partial repeat,2021.2.3,120.09945228074372,
2,1,0,1,1,2,3,3,3,0,1,0,1,0,0,0,0,82,82,82,1,0,1,0,,,,,,,,,0.7910574383903888,697.6721382558171,None,"[87. 93. 93. 93. 87. 93. 87. 93. 93. 93. 87. 93. 93. 93. 93. 87. 93. 87.
 93. 87. 87. 87. 93. 93. 93. 93. 87. 87. 93. 87. 93. 87. 93. 93.]",698.5463941199087,None,l,1,3.1985587218259752,698.5463941199087,None,None,None,,,,,,,18_KR,33,F,18,2021_Nov_04_1417,Partial repeat,2021.2.3,120.09945228074372,
2,1,0,1,1,2,3,3,3,0,1,0,1,0,0,0,0,82,82,82,,,,,,,,,,,,,,,,,,,,,,,,,,,,,,,,18_KR,33,F,18,2021_Nov_04_1417,Partial repeat,2021.2.3,120.09945228074372,
2,7,0,1,1,2,3,2,3,1,1,0,0,1,0,0,0,83,83,83,0,0,0,0,,,,,,,701.776950692838,None,0.8894781988351531,702.6262380349763,None,"[93. 93. 93. 93. 87. 87. 93. 93. 87. 87. 87. 87. 93. 93. 93. 93. 87. 87.
 87. 93. 93. 93. 93. 93. 93. 87. 87. 87. 87. 93. 87. 93. 87. 93.]",703.5920759347355,None,l,1,1.9140353376351413,703.5920759347355,None,None,None,,,,,,,18_KR,33,F,18,2021_Nov_04_1417,Partial repeat,2021.2.3,120.09945228074372,
2,7,0,1,1,2,3,2,3,1,1,0,0,1,0,0,0,83,83,83,1,0,1,0,,,,,,,,,0.7751353986972912,705.565384859623,None,"[93. 93. 93. 93. 93. 93. 93. 93. 93. 93. 87. 93. 87. 87. 87. 87. 93. 87.
 87. 93. 87. 93. 93. 93. 93. 87. 93. 93. 93. 93. 87. 93. 93. 93.]",706.4229847795723,None,l,1,3.0181258481643454,706.4229847795723,None,None,None,,,,,,,18_KR,33,F,18,2021_Nov_04_1417,Partial repeat,2021.2.3,120.09945228074372,
2,7,0,1,1,2,3,2,3,1,1,0,0,1,0,0,0,83,83,83,,,,,,,,,,,,,,,,,,,,,,,,,,,,,,,,18_KR,33,F,18,2021_Nov_04_1417,Partial repeat,2021.2.3,120.09945228074372,
5,6,0,1,1,2,2,3,2,0,1,1,0,0,0,0,0,84,84,84,0,0,0,0,,,,,,,709.4620448190944,None,0.9372291653885327,710.2696958287343,None,"[93. 93. 87. 93. 87. 93. 87. 87. 93. 87. 87. 93. 87. 87. 87. 93. 93. 87.
 87. 93. 87. 87. 87. 87. 87. 87. 87. 93. 87. 87. 87. 93. 93. 93.]",711.2854832802332,None,s,1,3.4188181407080265,711.2854832802332,None,None,None,,,,,,,18_KR,33,F,18,2021_Nov_04_1417,Partial repeat,2021.2.3,120.09945228074372,
5,6,0,1,1,2,2,3,2,0,1,1,0,0,0,0,0,84,84,84,1,0,1,0,,,,,,,,,0.7833707333065811,714.7741630495511,None,"[93. 87. 87. 93. 87. 93. 93. 93. 93. 87. 93. 93. 87. 93. 93. 93. 93. 93.
 87. 93. 93. 87. 87. 87. 93. 87. 93. 93. 93. 93. 93. 87. 93. 93.]",715.6400996008415,None,l,1,4.7282000420673285,715.6400996008415,None,None,None,,,,,,,18_KR,33,F,18,2021_Nov_04_1417,Partial repeat,2021.2.3,120.09945228074372,
5,6,0,1,1,2,2,3,2,0,1,1,0,0,0,0,0,84,84,84,,,,,,,,,,,,,,,,,,,,,,,,,,,,,,,,18_KR,33,F,18,2021_Nov_04_1417,Partial repeat,2021.2.3,120.09945228074372,
5,8,0,1,1,2,3,3,3,1,0,0,1,0,0,0,0,85,85,85,0,0,0,0,,,,,,,720.3860520338712,None,0.7766013525251705,721.3935192104291,None,"[87. 93. 87. 93. 87. 93. 93. 93. 93. 87. 93. 87. 93. 87. 93. 87. 93. 93.
 93. 87. 93. 93. 87. 87. 93. 93. 93. 93. 93. 87. 93. 87. 87. 93.]",722.2511069432585,None,l,1,2.7412498816156585,722.2511069432585,None,None,None,,,,,,,18_KR,33,F,18,2021_Nov_04_1417,Partial repeat,2021.2.3,120.09945228074372,
5,8,0,1,1,2,3,3,3,1,0,0,1,0,0,0,0,85,85,85,1,0,1,0,,,,,,,,,0.8944692070760181,725.0570536804153,None,"[93. 87. 93. 87. 93. 87. 87. 93. 87. 93. 87. 93. 87. 93. 87. 93. 87. 93.
 87. 87. 93. 93. 93. 93. 93. 93. 87. 93. 93. 93. 93. 87. 93. 93.]",726.039531809347,None,s,1,3.0000122603560158,726.039531809347,None,None,None,,,,,,,18_KR,33,F,18,2021_Nov_04_1417,Partial repeat,2021.2.3,120.09945228074372,
5,8,0,1,1,2,3,3,3,1,0,0,1,0,0,0,0,85,85,85,,,,,,,,,,,,,,,,,,,,,,,,,,,,,,,,18_KR,33,F,18,2021_Nov_04_1417,Partial repeat,2021.2.3,120.09945228074372,
4,8,0,1,1,3,2,3,2,0,0,0,0,1,0,0,0,86,86,86,0,0,0,0,,,,,,,729.0619541854103,None,0.930989737702813,729.9195541053596,None,"[93. 87. 93. 87. 87. 93. 93. 93. 87. 87. 93. 93. 93. 93. 93. 87. 93. 87.
 87. 87. 93. 87. 87. 93. 87. 93. 87. 87. 87. 87. 93. 87. 87. 93.]",730.9353630446785,None,s,1,3.8491386042333033,730.9353630446785,None,None,None,,,,,,,18_KR,33,F,18,2021_Nov_04_1417,Partial repeat,2021.2.3,120.09945228074372,
4,8,0,1,1,3,2,3,2,0,0,0,0,1,0,0,0,86,86,86,1,0,1,0,,,,,,,,,0.8703608486837924,734.8569960160967,None,"[87. 93. 87. 93. 93. 93. 87. 93. 93. 87. 87. 93. 93. 93. 93. 93. 87. 87.
 93. 87. 93. 87. 87. 93. 87. 93. 93. 93. 93. 87. 93. 87. 87. 93.]",735.8145152444849,None,s,1,2.4090998748433776,735.8145152444849,None,None,None,,,,,,,18_KR,33,F,18,2021_Nov_04_1417,Partial repeat,2021.2.3,120.09945228074372,
4,8,0,1,1,3,2,3,2,0,0,0,0,1,0,0,0,86,86,86,,,,,,,,,,,,,,,,,,,,,,,,,,,,,,,,18_KR,33,F,18,2021_Nov_04_1417,Partial repeat,2021.2.3,120.09945228074372,
3,5,0,1,1,3,2,3,2,1,1,0,0,1,0,0,0,87,87,87,0,0,0,0,,,,,,,738.2457632119622,None,0.8776922297845896,739.1533322471842,None,"[87. 93. 93. 87. 87. 93. 87. 87. 93. 93. 87. 93. 87. 93. 87. 87. 93. 93.
 93. 87. 87. 87. 87. 93. 93. 87. 87. 93. 93. 93. 93. 93. 93. 87.]",740.1191672605237,None,l,1,2.1198408324817137,740.1191672605237,None,None,None,,,,,,,18_KR,33,F,18,2021_Nov_04_1417,Partial repeat,2021.2.3,120.09945228074372,
3,5,0,1,1,3,2,3,2,1,1,0,0,1,0,0,0,87,87,87,1,0,1,0,,,,,,,,,0.9483571035011314,742.3089438064744,None,"[93. 93. 93. 93. 87. 87. 93. 87. 93. 93. 93. 87. 87. 87. 87. 93. 87. 87.
 93. 87. 93. 93. 93. 93. 93. 93. 87. 93. 93. 93. 93. 93. 93. 93.]",743.3414154249185,None,s,0,3.0735300981359615,743.3414154249185,None,746.4387648546581,None,,,,,,,18_KR,33,F,18,2021_Nov_04_1417,Partial repeat,2021.2.3,120.09945228074372,
3,5,0,1,1,3,2,3,2,1,1,0,0,1,0,0,0,87,87,87,,,,,,,,,,,,,,,,,,,,,,,,,,,,,,,,18_KR,33,F,18,2021_Nov_04_1417,Partial repeat,2021.2.3,120.09945228074372,
4,3,0,1,1,3,3,3,2,1,1,1,0,1,0,0,0,88,88,88,0,0,0,0,,,,,,,746.938336381183,None,0.9273767139462288,747.9291344643425,None,"[87. 87. 93. 87. 87. 87. 93. 93. 93. 87. 87. 93. 87. 93. 93. 87. 87. 87.
 93. 87. 87. 87. 93. 87. 87. 93. 87. 87. 93. 87. 93. 93. 93. 93.]",748.9449369893846,None,l,1,3.8698701777866518,748.9449369893846,None,None,None,,,,,,,18_KR,33,F,18,2021_Nov_04_1417,Partial repeat,2021.2.3,120.09945228074372,
4,3,0,1,1,3,3,3,2,1,1,1,0,1,0,0,0,88,88,88,1,0,1,0,,,,,,,,,0.7415457277829872,752.8832438649079,None,"[87. 93. 93. 93. 87. 93. 87. 87. 93. 87. 87. 87. 87. 93. 93. 87. 93. 87.
 93. 87. 87. 93. 87. 93. 93. 87. 87. 87. 87. 93. 93. 93. 93. 87.]",753.7075357451431,None,l,1,2.7553372299080365,753.7075357451431,None,None,None,,,,,,,18_KR,33,F,18,2021_Nov_04_1417,Partial repeat,2021.2.3,120.09945228074372,
4,3,0,1,1,3,3,3,2,1,1,1,0,1,0,0,0,88,88,88,,,,,,,,,,,,,,,,,,,,,,,,,,,,,,,,18_KR,33,F,18,2021_Nov_04_1417,Partial repeat,2021.2.3,120.09945228074372,
8,4,0,1,1,3,2,2,3,1,0,0,0,0,0,0,0,89,89,89,0,0,0,0,,,,,,,756.4801689904525,None,0.7233233289062145,757.5792294276616,None,"[93. 93. 93. 87. 93. 87. 93. 87. 87. 87. 93. 93. 87. 93. 93. 93. 87. 87.
 93. 93. 93. 87. 93. 93. 87. 93. 93. 87. 87. 93. 93. 93. 93. 87.]",758.3868611944781,None,l,1,1.1646118204698723,758.3868611944781,None,None,None,,,,,,,18_KR,33,F,18,2021_Nov_04_1417,Partial repeat,2021.2.3,120.09945228074372,
8,4,0,1,1,3,2,2,3,1,0,0,0,0,0,0,0,89,89,89,1,0,1,0,,,,,,,,,0.787108592421465,759.6191371134373,None,"[93. 93. 87. 93. 87. 93. 87. 87. 93. 93. 87. 87. 87. 93. 93. 93. 93. 87.
 87. 87. 87. 93. 87. 87. 93. 93. 93. 87. 87. 93. 93. 93. 87. 93.]",760.4934122203449,None,s,1,2.2565572247367527,760.4934122203449,None,None,None,,,,,,,18_KR,33,F,18,2021_Nov_04_1417,Partial repeat,2021.2.3,120.09945228074372,
8,4,0,1,1,3,2,2,3,1,0,0,0,0,0,0,0,89,89,89,,,,,,,,,,,,,,,,,,,,,,,,,,,,,,,,18_KR,33,F,18,2021_Nov_04_1417,Partial repeat,2021.2.3,120.09945228074372,
5,2,0,1,1,3,3,2,2,1,0,1,1,0,0,0,0,90,90,90,0,0,0,0,,,,,,,762.7664396227665,None,0.7384973058191157,764.2069013734908,None,"[93. 87. 93. 93. 87. 93. 93. 87. 93. 87. 87. 87. 93. 93. 87. 93. 87. 93.
 87. 93. 93. 93. 87. 87. 93. 87. 93. 87. 93. 87. 87. 93. 87. 93.]",765.0311836323126,None,l,1,4.054859109957761,765.0311836323126,None,None,None,,,,,,,18_KR,33,F,18,2021_Nov_04_1417,Partial repeat,2021.2.3,120.09945228074372,
5,2,0,1,1,3,3,2,2,1,0,1,1,0,0,0,0,90,90,90,1,0,1,0,,,,,,,,,0.9434612731235573,769.1526625970255,None,"[93. 87. 87. 87. 87. 93. 93. 93. 87. 87. 87. 87. 93. 87. 87. 93. 87. 87.
 93. 93. 93. 93. 87. 93. 93. 87. 87. 93. 87. 93. 87. 87. 93. 87.]",770.1851063133763,None,s,1,2.084997215682961,770.1851063133763,None,None,None,,,,,,,18_KR,33,F,18,2021_Nov_04_1417,Partial repeat,2021.2.3,120.09945228074372,
5,2,0,1,1,3,3,2,2,1,0,1,1,0,0,0,0,90,90,90,,,,,,,,,,,,,,,,,,,,,,,,,,,,,,,,18_KR,33,F,18,2021_Nov_04_1417,Partial repeat,2021.2.3,120.09945228074372,
7,7,0,1,1,3,2,3,2,1,0,0,0,0,0,0,0,91,91,91,0,0,0,0,,,,,,,772.2916579806733,None,0.7079975923581026,774.2816135489993,None,"[93. 93. 87. 93. 93. 87. 87. 93. 93. 87. 93. 93. 87. 93. 87. 93. 87. 87.
 87. 87. 93. 87. 93. 93. 93. 93. 93. 87. 87. 87. 87. 93. 87. 93.]",775.0726005966571,None,l,1,3.6925960131302418,775.0726005966571,None,None,None,,,,,,,18_KR,33,F,18,2021_Nov_04_1417,Partial repeat,2021.2.3,120.09945228074372,
7,7,0,1,1,3,2,3,2,1,0,0,0,0,0,0,0,91,91,91,1,0,1,0,,,,,,,,,0.7505353963943826,778.8277183851678,None,"[93. 87. 87. 93. 93. 93. 87. 93. 93. 87. 93. 87. 87. 87. 93. 93. 93. 87.
 93. 87. 87. 93. 87. 87. 93. 93. 93. 93. 87. 87. 87. 87. 87. 93.]",779.6686678131118,None,s,1,1.5926186555188906,779.6686678131118,None,None,None,,,,,,,18_KR,33,F,18,2021_Nov_04_1417,Partial repeat,2021.2.3,120.09945228074372,
7,7,0,1,1,3,2,3,2,1,0,0,0,0,0,0,0,91,91,91,,,,,,,,,,,,,,,,,,,,,,,,,,,,,,,,18_KR,33,F,18,2021_Nov_04_1417,Partial repeat,2021.2.3,120.09945228074372,
4,4,0,1,1,2,2,3,3,0,0,1,1,1,0,0,0,92,92,92,0,0,0,0,,,,,,,781.2839685495346,None,0.7171067509403725,782.5745139744577,None,"[87. 93. 87. 87. 93. 87. 87. 93. 93. 93. 93. 93. 87. 93. 93. 93. 93. 87.
 93. 87. 93. 87. 87. 87. 87. 87. 87. 87. 87. 87. 87. 87. 87. 87.]",783.3821576076807,None,s,1,1.4471522319981887,783.3821576076807,None,None,None,,,,,,,18_KR,33,F,18,2021_Nov_04_1417,Partial repeat,2021.2.3,120.09945228074372,
4,4,0,1,1,2,2,3,3,0,0,1,1,1,0,0,0,92,92,92,1,0,1,0,,,,,,,,,0.9785740258996831,784.8975278106882,None,"[93. 93. 87. 93. 93. 87. 93. 87. 93. 93. 87. 93. 93. 87. 87. 87. 93. 93.
 93. 93. 93. 87. 87. 87. 87. 93. 87. 93. 87. 87. 93. 87. 87. 87.]",785.9632834153199,None,s,1,2.14608515344662,785.9632834153199,None,None,None,,,,,,,18_KR,33,F,18,2021_Nov_04_1417,Partial repeat,2021.2.3,120.09945228074372,
4,4,0,1,1,2,2,3,3,0,0,1,1,1,0,0,0,92,92,92,,,,,,,,,,,,,,,,,,,,,,,,,,,,,,,,18_KR,33,F,18,2021_Nov_04_1417,Partial repeat,2021.2.3,120.09945228074372,
4,6,0,1,1,2,2,2,3,1,1,1,0,1,0,0,0,93,93,93,0,0,0,0,,,,,,,788.1281106821407,None,0.9987797591669442,795.0222171193127,None,"[93. 93. 93. 93. 93. 87. 93. 93. 93. 87. 93. 93. 87. 93. 93. 87. 87. 93.
 93. 87. 87. 87. 87. 87. 87. 93. 93. 87. 93. 87. 93. 93. 93. 93.]",796.1046139152531,None,l,1,1.907869937891519,796.1046139152531,None,None,None,,,,,,,18_KR,33,F,18,2021_Nov_04_1417,Partial repeat,2021.2.3,120.09945228074372,
4,6,0,1,1,2,2,2,3,1,1,1,0,1,0,0,0,93,93,93,1,0,1,0,,,,,,,,,0.9353511142230239,798.0779186708605,None,"[93. 87. 87. 87. 93. 93. 87. 93. 87. 93. 87. 87. 87. 93. 93. 87. 87. 93.
 93. 93. 87. 87. 93. 87. 93. 93. 93. 87. 93. 87. 93. 87. 93. 93.]",799.1020514129705,None,l,1,3.727632378853741,799.1020514129705,None,None,None,,,,,,,18_KR,33,F,18,2021_Nov_04_1417,Partial repeat,2021.2.3,120.09945228074372,
4,6,0,1,1,2,2,2,3,1,1,1,0,1,0,0,0,93,93,93,,,,,,,,,,,,,,,,,,,,,,,,,,,,,,,,18_KR,33,F,18,2021_Nov_04_1417,Partial repeat,2021.2.3,120.09945228074372,
8,1,0,1,1,3,3,3,3,0,0,1,1,1,0,0,0,94,94,94,0,0,0,0,,,,,,,802.8488239108738,None,0.8456964899365914,803.614848209425,None,"[87. 87. 87. 87. 87. 93. 93. 87. 93. 93. 93. 87. 87. 87. 93. 93. 93. 93.
 87. 87. 87. 93. 87. 93. 87. 93. 87. 93. 87. 87. 87. 87. 87. 87.]",804.5473969915802,None,s,1,2.425195532192447,804.5473969915802,None,None,None,,,,,,,18_KR,33,F,18,2021_Nov_04_1417,Partial repeat,2021.2.3,120.09945228074372,
8,1,0,1,1,3,3,3,3,0,0,1,1,1,0,0,0,94,94,94,1,0,1,0,,,,,,,,,0.9047939397601604,807.0369240864311,None,"[93. 93. 87. 87. 87. 87. 93. 87. 93. 87. 93. 87. 87. 93. 87. 87. 87. 93.
 93. 93. 93. 93. 87. 93. 93. 87. 87. 87. 93. 93. 87. 93. 87. 93.]",808.0277439781203,None,s,1,1.7119488385869772,808.0277439781203,None,None,None,,,,,,,18_KR,33,F,18,2021_Nov_04_1417,Partial repeat,2021.2.3,120.09945228074372,
8,1,0,1,1,3,3,3,3,0,0,1,1,1,0,0,0,94,94,94,,,,,,,,,,,,,,,,,,,,,,,,,,,,,,,,18_KR,33,F,18,2021_Nov_04_1417,Partial repeat,2021.2.3,120.09945228074372,
1,8,0,1,1,2,2,2,2,1,0,1,1,0,0,0,0,95,95,95,0,0,0,0,,,,,,,809.7595782743447,None,0.9055519394674928,810.5255865372092,None,"[93. 93. 93. 87. 93. 87. 93. 93. 87. 87. 87. 93. 93. 93. 87. 93. 87. 93.
 93. 93. 93. 87. 93. 87. 87. 93. 87. 93. 93. 93. 87. 87. 93. 93.]",811.5164522909545,None,l,1,1.2953007198630075,811.5164522909545,None,None,None,,,,,,,18_KR,33,F,18,2021_Nov_04_1417,Partial repeat,2021.2.3,120.09945228074372,
1,8,0,1,1,2,2,2,2,1,0,1,1,0,0,0,0,95,95,95,1,0,1,0,,,,,,,,,0.7218552996527707,812.8819222038437,None,"[93. 93. 93. 93. 87. 87. 93. 93. 87. 93. 87. 87. 93. 87. 87. 87. 93. 87.
 87. 87. 93. 87. 93. 93. 93. 87. 93. 87. 87. 87. 93. 87. 93. 87.]",813.6895510842369,None,s,1,2.162255857791024,813.6895510842369,None,None,None,,,,,,,18_KR,33,F,18,2021_Nov_04_1417,Partial repeat,2021.2.3,120.09945228074372,
1,8,0,1,1,2,2,2,2,1,0,1,1,0,0,0,0,95,95,95,,,,,,,,,,,,,,,,,,,,,,,,,,,,,,,,18_KR,33,F,18,2021_Nov_04_1417,Partial repeat,2021.2.3,120.09945228074372,
6,2,0,1,1,2,3,3,3,1,1,0,1,1,0,0,0,96,96,96,0,0,0,0,,,,,,,815.8793568151341,None,0.956457223035398,816.7785937090084,None,"[93. 87. 87. 93. 93. 87. 93. 87. 93. 93. 93. 87. 93. 93. 87. 93. 87. 87.
 87. 93. 93. 93. 93. 93. 87. 93. 87. 93. 93. 87. 93. 87. 93. 87.]",817.8193727738471,None,l,1,1.744496145460289,817.8193727738471,None,None,None,,,,,,,18_KR,33,F,18,2021_Nov_04_1417,Partial repeat,2021.2.3,120.09945228074372,
6,2,0,1,1,2,3,3,3,1,1,0,1,1,0,0,0,96,96,96,1,0,1,0,,,,,,,,,0.9867401430870246,819.6344794143515,None,"[87. 93. 93. 87. 93. 93. 93. 93. 93. 93. 93. 87. 87. 93. 93. 93. 93. 87.
 93. 93. 87. 87. 93. 93. 87. 87. 93. 87. 93. 93. 87. 93. 93. 87.]",820.708607890967,None,l,1,2.919551612889336,820.708607890967,None,None,None,,,,,,,18_KR,33,F,18,2021_Nov_04_1417,Partial repeat,2021.2.3,120.09945228074372,
6,2,0,1,1,2,3,3,3,1,1,0,1,1,0,0,0,96,96,96,,,,,,,,,,,,,,,,,,,,,,,,,,,,,,,,18_KR,33,F,18,2021_Nov_04_1417,Partial repeat,2021.2.3,120.09945228074372,
7,6,0,1,1,3,3,3,3,1,0,1,1,0,0,0,0,97,97,97,0,0,0,0,,,,,,,823.6393921064664,None,0.7673765099198876,824.8050557945608,None,"[93. 87. 87. 87. 93. 93. 87. 93. 87. 87. 87. 93. 93. 87. 93. 87. 87. 93.
 87. 93. 87. 93. 93. 93. 93. 93. 87. 93. 93. 87. 87. 87. 93. 87.]",825.6626900308729,None,l,1,3.1002978238175274,825.6626900308729,None,None,None,,,,,,,18_KR,33,F,18,2021_Nov_04_1417,Partial repeat,2021.2.3,120.09945228074372,
7,6,0,1,1,3,3,3,3,1,0,1,1,0,0,0,0,97,97,97,1,0,1,0,,,,,,,,,0.9844609220390222,828.8266164129709,None,"[87. 93. 87. 93. 93. 87. 93. 87. 87. 87. 93. 93. 87. 87. 87. 87. 87. 87.
 93. 93. 87. 87. 93. 93. 93. 93. 87. 87. 93. 87. 93. 93. 87. 93.]",829.9007237224869,None,s,1,2.1743445184438315,829.9007237224869,None,None,None,,,,,,,18_KR,33,F,18,2021_Nov_04_1417,Partial repeat,2021.2.3,120.09945228074372,
7,6,0,1,1,3,3,3,3,1,0,1,1,0,0,0,0,97,97,97,,,,,,,,,,,,,,,,,,,,,,,,,,,,,,,,18_KR,33,F,18,2021_Nov_04_1417,Partial repeat,2021.2.3,120.09945228074372,
4,5,0,1,1,3,2,2,2,0,0,0,1,1,0,0,0,98,98,98,0,0,0,0,,,,,,,832.0988182983856,None,0.9122138282598489,833.5142791350736,None,"[93. 93. 93. 87. 93. 93. 93. 87. 87. 87. 87. 87. 87. 93. 93. 87. 87. 87.
 93. 87. 87. 87. 87. 93. 93. 93. 87. 93. 87. 87. 87. 87. 93. 93.]",834.5134205845607,None,s,1,2.088928203229443,834.5134205845607,None,None,None,,,,,,,18_KR,33,F,18,2021_Nov_04_1417,Partial repeat,2021.2.3,120.09945228074372,
4,5,0,1,1,3,2,2,2,0,0,0,1,1,0,0,0,98,98,98,1,0,1,0,,,,,,,,,0.7121574649841454,836.6615787579794,None,"[93. 87. 93. 87. 87. 87. 93. 93. 93. 87. 87. 93. 87. 87. 93. 87. 87. 93.
 87. 87. 87. 93. 93. 87. 93. 93. 87. 87. 93. 87. 87. 93. 93. 93.]",837.4609155862381,None,s,1,2.261369212756108,837.4609155862381,None,None,None,,,,,,,18_KR,33,F,18,2021_Nov_04_1417,Partial repeat,2021.2.3,120.09945228074372,
4,5,0,1,1,3,2,2,2,0,0,0,1,1,0,0,0,98,98,98,,,,,,,,,,,,,,,,,,,,,,,,,,,,,,,,18_KR,33,F,18,2021_Nov_04_1417,Partial repeat,2021.2.3,120.09945228074372,
6,4,0,1,1,2,2,2,3,0,1,1,0,0,0,0,0,99,99,99,0,0,0,0,,,,,,,839.7422796199935,None,0.7892946069960468,841.9903542154279,None,"[93. 93. 93. 87. 93. 93. 87. 93. 87. 93. 87. 87. 93. 93. 87. 87. 93. 87.
 93. 87. 93. 87. 93. 93. 93. 87. 87. 93. 93. 93. 93. 93. 93. 87.]",842.8645991752528,None,s,1,1.5936523157033662,842.8645991752528,None,None,None,,,,,,,18_KR,33,F,18,2021_Nov_04_1417,Partial repeat,2021.2.3,120.09945228074372,
6,4,0,1,1,2,2,2,3,0,1,1,0,0,0,0,0,99,99,99,1,0,1,0,,,,,,,,,0.8811314182843851,844.521522774201,None,"[87. 93. 87. 93. 93. 87. 93. 93. 93. 87. 93. 87. 93. 87. 93. 87. 87. 87.
 87. 93. 93. 93. 93. 93. 87. 87. 93. 87. 93. 93. 93. 87. 87. 93.]",845.4873565046837,None,l,1,1.6429652507904393,845.4873565046837,None,None,None,,,,,,,18_KR,33,F,18,2021_Nov_04_1417,Partial repeat,2021.2.3,120.09945228074372,
6,4,0,1,1,2,2,2,3,0,1,1,0,0,0,0,0,99,99,99,,,,,,,,,,,,,,,,,,,,,,,,,,,,,,,,18_KR,33,F,18,2021_Nov_04_1417,Partial repeat,2021.2.3,120.09945228074372,
2,6,0,1,1,2,3,2,3,1,0,0,0,0,0,0,0,100,100,100,0,0,0,0,,,,,,,847.1525907571595,None,0.8366541232236516,848.1684035450417,None,"[87. 87. 87. 93. 93. 93. 93. 93. 87. 87. 93. 93. 87. 93. 93. 87. 93. 93.
 87. 93. 93. 87. 87. 93. 93. 87. 87. 93. 87. 93. 87. 87. 93. 87.]",849.0926160165691,None,l,1,2.6298246492733597,849.0926160165691,None,None,None,,,,,,,18_KR,33,F,18,2021_Nov_04_1417,Partial repeat,2021.2.3,120.09945228074372,
2,6,0,1,1,2,3,2,3,1,0,0,0,0,0,0,0,100,100,100,1,0,1,0,,,,,,,,,0.7797423622280577,851.7819804454484,None,"[87. 93. 87. 87. 87. 87. 93. 93. 93. 87. 93. 93. 87. 93. 93. 87. 93. 93.
 93. 93. 93. 93. 87. 93. 87. 93. 93. 93. 87. 93. 87. 93. 93. 87.]",852.6478990367686,None,s,1,1.969624960107467,852.6478990367686,None,None,None,,,,,,,18_KR,33,F,18,2021_Nov_04_1417,Partial repeat,2021.2.3,120.09945228074372,
2,6,0,1,1,2,3,2,3,1,0,0,0,0,0,0,0,100,100,100,,,,,,,,,,,,,,,,,,,,,,,,,,,,,,,,18_KR,33,F,18,2021_Nov_04_1417,Partial repeat,2021.2.3,120.09945228074372,
4,7,0,1,1,2,2,2,2,1,1,1,1,1,0,0,0,101,101,101,0,0,0,0,,,,,,,854.6378699993547,None,0.720874964299765,855.8618221155193,None,"[87. 93. 87. 93. 87. 93. 87. 87. 93. 87. 93. 93. 93. 87. 93. 87. 93. 87.
