prime_tar_pos,probe_tar_pos,dimension,tar_color,tar_shape,prime_dist_color,probe_dist_color,prime_dist_shape,probe_dist_shape,prime_tar_ori,probe_tar_ori,col_rep,shape_rep,resp_rep,pos_fixed,sparse,MainLoop.thisRepN,MainLoop.thisTrialN,MainLoop.thisN,MainLoop.thisIndex,PrimeProbe.thisRepN,PrimeProbe.thisTrialN,PrimeProbe.thisN,PrimeProbe.thisIndex,Instruction.started,Instruction.stopped,instruction_key.keys,instruction_key.rt,instruction_key.started,instruction_key.stopped,PairStartText.started,PairStartText.stopped,fixdur,FixCross.started,FixCross.stopped,dist_ori,SearchFixCross.started,SearchFixCross.stopped,key_resp.keys,key_resp.corr,key_resp.rt,key_resp.started,key_resp.stopped,feedback_text.started,feedback_text.stopped,text_finish.started,text_finish.stopped,finish_key.keys,finish_key.rt,finish_key.started,finish_key.stopped,participant,age,gender,group,date,expName,psychopyVersion,frameRate,
,,,,,,,,,,,,,,,,,,,,,,,,61.26587798581696,None,space,3.93289209024519,61.26587798581696,None,,,,,,,,,,,,,,,,,,,,,,19_JM,32,M,19,2021_Nov_04_1653,Partial repeat,2021.2.3,120.12486563748429,
1,6,0,1,1,2,2,2,2,0,0,1,1,1,0,0,0,0,0,0,0,0,0,0,,,,,,,103.09860360127766,None,0.9022212478342946,113.20636803231866,None,"[87. 87. 93. 93. 87. 93. 87. 87. 93. 93. 93. 87. 87. 93. 87. 93. 93. 93.
 93. 93. 87. 87. 87. 93. 87. 93. 87. 93. 87. 93. 93. 87. 93. 93.]",114.22219606542632,None,s,1,1.9349726245964405,114.22219606542632,None,None,None,,,,,,,19_JM,32,M,19,2021_Nov_04_1653,Partial repeat,2021.2.3,120.12486563748429,
1,6,0,1,1,2,2,2,2,0,0,1,1,1,0,0,0,0,0,0,1,0,1,0,,,,,,,,,0.9454825302915522,116.23718540617568,None,"[93. 87. 93. 93. 93. 87. 87. 93. 93. 93. 87. 93. 93. 87. 87. 93. 93. 93.
 93. 93. 93. 93. 87. 93. 87. 87. 87. 87. 87. 93. 93. 93. 87. 87.]",117.26968305126223,None,s,1,0.935665708415371,117.26968305126223,None,None,None,,,,,,,19_JM,32,M,19,2021_Nov_04_1653,Partial repeat,2021.2.3,120.12486563748429,
1,6,0,1,1,2,2,2,2,0,0,1,1,1,0,0,0,0,0,0,,,,,,,,,,,,,,,,,,,,,,,,,,,,,,,,19_JM,32,M,19,2021_Nov_04_1653,Partial repeat,2021.2.3,120.12486563748429,
8,8,0,1,1,2,2,2,3,1,0,1,0,0,0,0,0,1,1,1,0,0,0,0,,,,,,,118.22721346628828,None,0.8216759363925156,119.38459865764321,None,"[87. 87. 87. 87. 93. 93. 93. 93. 87. 87. 87. 87. 93. 87. 93. 87. 87. 93.
 87. 87. 93. 93. 87. 93. 93. 93. 87. 93. 93. 93. 93. 87. 93. 87.]",120.29221741600008,None,l,1,2.6012705659675532,120.29221741600008,None,None,None,,,,,,,19_JM,32,M,19,2021_Nov_04_1653,Partial repeat,2021.2.3,120.12486563748429,
8,8,0,1,1,2,2,2,3,1,0,1,0,0,0,0,0,1,1,1,1,0,1,0,,,,,,,,,0.9384348441543613,122.9649991067846,None,"[93. 87. 87. 93. 93. 87. 87. 87. 93. 87. 87. 87. 93. 93. 87. 93. 87. 87.
 93. 87. 93. 87. 93. 87. 93. 93. 93. 93. 93. 87. 93. 93. 87. 87.]",123.98914671150811,None,s,1,0.9841697089619004,123.98914671150811,None,None,None,,,,,,,19_JM,32,M,19,2021_Nov_04_1653,Partial repeat,2021.2.3,120.12486563748429,
8,8,0,1,1,2,2,2,3,1,0,1,0,0,0,0,0,1,1,1,,,,,,,,,,,,,,,,,,,,,,,,,,,,,,,,19_JM,32,M,19,2021_Nov_04_1653,Partial repeat,2021.2.3,120.12486563748429,
7,8,0,1,1,3,2,2,3,1,1,0,0,1,0,0,0,2,2,2,0,0,0,0,,,,,,,124.99664875852682,None,0.9723656583520984,125.9292117991667,None,"[87. 93. 93. 93. 93. 93. 93. 93. 87. 93. 93. 87. 93. 93. 87. 87. 87. 87.
 93. 87. 87. 93. 93. 93. 87. 93. 87. 87. 87. 93. 87. 93. 93. 87.]",126.98666880054805,None,l,1,0.8981548318743933,126.98666880054805,None,None,None,,,,,,,19_JM,32,M,19,2021_Nov_04_1653,Partial repeat,2021.2.3,120.12486563748429,
7,8,0,1,1,3,2,2,3,1,1,0,0,1,0,0,0,2,2,2,1,0,1,0,,,,,,,,,0.9966984163248243,127.94422006261169,None,"[93. 87. 93. 87. 87. 93. 93. 87. 93. 93. 87. 93. 93. 87. 93. 93. 93. 87.
 93. 87. 93. 87. 87. 87. 87. 87. 93. 93. 87. 87. 93. 93. 93. 87.]",129.02664924923403,None,l,1,1.0021728898990716,129.02664924923403,None,None,None,,,,,,,19_JM,32,M,19,2021_Nov_04_1653,Partial repeat,2021.2.3,120.12486563748429,
7,8,0,1,1,3,2,2,3,1,1,0,0,1,0,0,0,2,2,2,,,,,,,,,,,,,,,,,,,,,,,,,,,,,,,,19_JM,32,M,19,2021_Nov_04_1653,Partial repeat,2021.2.3,120.12486563748429,
5,4,0,1,1,3,3,2,3,1,0,1,0,0,0,0,0,3,3,3,0,0,0,0,,,,,,,130.0508013440887,None,0.9346754309168436,130.92509659394688,None,"[87. 87. 87. 93. 87. 87. 93. 87. 93. 93. 87. 87. 87. 93. 87. 93. 87. 93.
 87. 87. 93. 87. 87. 93. 93. 87. 87. 87. 93. 93. 87. 87. 93. 93.]",131.94925927268213,None,l,1,1.0396799177561604,131.94925927268213,None,None,None,,,,,,,19_JM,32,M,19,2021_Nov_04_1653,Partial repeat,2021.2.3,120.12486563748429,
5,4,0,1,1,3,3,2,3,1,0,1,0,0,0,0,0,3,3,3,1,0,1,0,,,,,,,,,0.947431634200752,133.0483474874028,None,"[93. 87. 93. 87. 93. 87. 87. 87. 93. 93. 93. 93. 87. 87. 93. 93. 93. 87.
 87. 87. 93. 93. 87. 87. 93. 87. 87. 93. 87. 87. 93. 87. 87. 93.]",134.08084000091088,None,s,1,1.0842220189900615,134.08084000091088,None,None,None,,,,,,,19_JM,32,M,19,2021_Nov_04_1653,Partial repeat,2021.2.3,120.12486563748429,
5,4,0,1,1,3,3,2,3,1,0,1,0,0,0,0,0,3,3,3,,,,,,,,,,,,,,,,,,,,,,,,,,,,,,,,19_JM,32,M,19,2021_Nov_04_1653,Partial repeat,2021.2.3,120.12486563748429,
3,7,0,1,1,2,2,3,2,0,0,1,0,1,0,0,0,4,4,4,0,0,0,0,,,,,,,135.1965763391255,None,0.7879601431070681,136.01257204656008,None,"[87. 93. 93. 87. 93. 87. 87. 93. 93. 93. 87. 87. 93. 93. 93. 87. 93. 93.
 93. 93. 87. 93. 87. 93. 87. 93. 93. 93. 87. 93. 93. 93. 87. 87.]",136.8868756352333,None,s,1,0.8383084392618514,136.8868756352333,None,None,None,,,,,,,19_JM,32,M,19,2021_Nov_04_1653,Partial repeat,2021.2.3,120.12486563748429,
3,7,0,1,1,2,2,3,2,0,0,1,0,1,0,0,0,4,4,4,1,0,1,0,,,,,,,,,0.7106364878187642,137.7860991311917,None,"[93. 87. 93. 93. 87. 87. 87. 93. 87. 93. 93. 87. 87. 87. 87. 93. 87. 93.
 87. 93. 87. 87. 87. 93. 87. 93. 93. 93. 93. 87. 93. 87. 93. 93.]",138.58545569539461,None,s,1,0.883821050276282,138.58545569539461,None,None,None,,,,,,,19_JM,32,M,19,2021_Nov_04_1653,Partial repeat,2021.2.3,120.12486563748429,
3,7,0,1,1,2,2,3,2,0,0,1,0,1,0,0,0,4,4,4,,,,,,,,,,,,,,,,,,,,,,,,,,,,,,,,19_JM,32,M,19,2021_Nov_04_1653,Partial repeat,2021.2.3,120.12486563748429,
4,3,0,1,1,3,2,3,3,0,1,0,1,0,0,0,0,5,5,5,0,0,0,0,,,,,,,139.4846993969433,None,0.7288466354372821,140.1841345063694,None,"[93. 87. 93. 93. 87. 93. 87. 87. 93. 87. 93. 87. 93. 93. 93. 87. 87. 87.
 93. 93. 87. 93. 87. 93. 87. 87. 87. 87. 93. 93. 93. 93. 93. 87.]",141.00013919406638,None,s,1,0.7884182710775747,141.00013919406638,None,None,None,,,,,,,19_JM,32,M,19,2021_Nov_04_1653,Partial repeat,2021.2.3,120.12486563748429,
4,3,0,1,1,3,2,3,3,0,1,0,1,0,0,0,0,5,5,5,1,0,1,0,,,,,,,,,0.8063479976157161,141.849429224147,None,"[87. 87. 93. 87. 87. 93. 93. 87. 87. 93. 87. 87. 87. 87. 93. 93. 87. 87.
 87. 93. 87. 87. 93. 93. 93. 87. 93. 87. 87. 93. 93. 87. 93. 87.]",142.74036041000028,None,l,1,0.7923872263106375,142.74036041000028,None,None,None,,,,,,,19_JM,32,M,19,2021_Nov_04_1653,Partial repeat,2021.2.3,120.12486563748429,
4,3,0,1,1,3,2,3,3,0,1,0,1,0,0,0,0,5,5,5,,,,,,,,,,,,,,,,,,,,,,,,,,,,,,,,19_JM,32,M,19,2021_Nov_04_1653,Partial repeat,2021.2.3,120.12486563748429,
3,5,0,1,1,3,3,2,3,0,1,1,0,0,0,0,0,6,6,6,0,0,0,0,,,,,,,143.56468114135288,None,0.8639053479615117,144.31406607356308,None,"[93. 93. 93. 93. 87. 87. 87. 93. 93. 93. 93. 93. 87. 93. 87. 87. 93. 93.
 87. 93. 93. 87. 93. 93. 87. 87. 93. 93. 93. 93. 93. 87. 93. 87.]",145.26329231170877,None,s,1,0.8133038609316543,145.26329231170877,None,None,None,,,,,,,19_JM,32,M,19,2021_Nov_04_1653,Partial repeat,2021.2.3,120.12486563748429,
3,5,0,1,1,3,3,2,3,0,1,1,0,0,0,0,0,6,6,6,1,0,1,0,,,,,,,,,0.7814737752720767,146.15419623605135,None,"[87. 93. 93. 87. 93. 93. 87. 93. 87. 93. 93. 87. 93. 87. 93. 87. 87. 93.
 87. 87. 93. 93. 87. 87. 87. 93. 93. 93. 93. 93. 87. 93. 87. 93.]",147.02015235015068,None,l,1,0.8325091141285554,147.02015235015068,None,None,None,,,,,,,19_JM,32,M,19,2021_Nov_04_1653,Partial repeat,2021.2.3,120.12486563748429,
3,5,0,1,1,3,3,2,3,0,1,1,0,0,0,0,0,6,6,6,,,,,,,,,,,,,,,,,,,,,,,,,,,,,,,,19_JM,32,M,19,2021_Nov_04_1653,Partial repeat,2021.2.3,120.12486563748429,
6,2,0,1,1,2,2,3,3,1,1,1,1,1,0,0,0,7,7,7,0,0,0,0,,,,,,,147.877795627831,None,0.9466288462742506,148.70210930326311,None,"[87. 87. 93. 93. 87. 93. 93. 93. 93. 87. 93. 87. 93. 87. 87. 93. 93. 87.
 93. 87. 93. 87. 87. 93. 87. 93. 87. 87. 87. 93. 93. 93. 93. 93.]",149.73460245821855,None,l,1,0.8541890710489213,149.73460245821855,None,None,None,,,,,,,19_JM,32,M,19,2021_Nov_04_1653,Partial repeat,2021.2.3,120.12486563748429,
6,2,0,1,1,2,2,3,3,1,1,1,1,1,0,0,0,7,7,7,1,0,1,0,,,,,,,,,0.927494011352619,150.6505237898375,None,"[93. 87. 93. 93. 87. 87. 87. 93. 87. 87. 87. 93. 87. 93. 87. 87. 93. 87.
 87. 93. 87. 93. 93. 87. 93. 93. 93. 87. 87. 93. 93. 93. 87. 87.]",151.6663434841301,None,l,1,1.066550145588593,151.6663434841301,None,None,None,,,,,,,19_JM,32,M,19,2021_Nov_04_1653,Partial repeat,2021.2.3,120.12486563748429,
6,2,0,1,1,2,2,3,3,1,1,1,1,1,0,0,0,7,7,7,,,,,,,,,,,,,,,,,,,,,,,,,,,,,,,,19_JM,32,M,19,2021_Nov_04_1653,Partial repeat,2021.2.3,120.12486563748429,
3,2,0,1,1,3,3,2,3,0,0,1,0,1,0,0,0,8,8,8,0,0,0,0,,,,,,,152.75710988216935,None,0.9382813764784814,153.58143029279825,None,"[87. 93. 93. 93. 87. 87. 87. 93. 87. 93. 87. 93. 87. 87. 87. 93. 87. 93.
 93. 87. 93. 93. 93. 93. 93. 93. 87. 93. 93. 87. 93. 87. 87. 93.]",154.60559746166473,None,s,1,1.3434459511326224,154.60559746166473,None,None,None,,,,,,,19_JM,32,M,19,2021_Nov_04_1653,Partial repeat,2021.2.3,120.12486563748429,
3,2,0,1,1,3,3,2,3,0,0,1,0,1,0,0,0,8,8,8,1,0,1,0,,,,,,,,,0.7679244755322626,156.02941228352358,None,"[93. 87. 93. 87. 93. 93. 87. 87. 93. 87. 87. 87. 93. 87. 87. 93. 93. 87.
 87. 93. 93. 93. 93. 93. 93. 87. 93. 87. 93. 87. 93. 93. 87. 87.]",156.88703599706088,None,s,1,1.0452829600124858,156.88703599706088,None,None,None,,,,,,,19_JM,32,M,19,2021_Nov_04_1653,Partial repeat,2021.2.3,120.12486563748429,
3,2,0,1,1,3,3,2,3,0,0,1,0,1,0,0,0,8,8,8,,,,,,,,,,,,,,,,,,,,,,,,,,,,,,,,19_JM,32,M,19,2021_Nov_04_1653,Partial repeat,2021.2.3,120.12486563748429,
8,2,0,1,1,3,2,3,2,0,0,0,0,1,0,0,0,9,9,9,0,0,0,0,,,,,,,157.95281289078173,None,0.7058527529975,158.98529546185648,None,"[87. 87. 87. 93. 87. 87. 93. 87. 93. 93. 93. 87. 93. 93. 93. 87. 93. 87.
 93. 93. 93. 87. 93. 87. 93. 87. 87. 93. 93. 87. 87. 87. 93. 93.]",159.7763154560899,None,s,1,1.163970276578624,159.7763154560899,None,None,None,,,,,,,19_JM,32,M,19,2021_Nov_04_1653,Partial repeat,2021.2.3,120.12486563748429,
8,2,0,1,1,3,2,3,2,0,0,0,0,1,0,0,0,9,9,9,1,0,1,0,,,,,,,,,0.7656620662307785,161.00864510612587,None,"[87. 87. 87. 87. 93. 93. 87. 87. 93. 93. 93. 93. 87. 93. 87. 87. 87. 93.
 87. 93. 87. 93. 87. 87. 93. 93. 87. 93. 87. 93. 93. 93. 93. 87.]",161.85795437962582,None,s,1,0.77840463711496,161.85795437962582,None,None,None,,,,,,,19_JM,32,M,19,2021_Nov_04_1653,Partial repeat,2021.2.3,120.12486563748429,
8,2,0,1,1,3,2,3,2,0,0,0,0,1,0,0,0,9,9,9,,,,,,,,,,,,,,,,,,,,,,,,,,,,,,,,19_JM,32,M,19,2021_Nov_04_1653,Partial repeat,2021.2.3,120.12486563748429,
4,2,0,1,1,3,2,3,2,1,0,0,0,0,0,0,0,10,10,10,0,0,0,0,,,,,,,162.65727245699014,None,0.8022716345945818,163.39000958643004,None,"[87. 93. 93. 87. 87. 93. 87. 87. 87. 93. 87. 93. 87. 87. 93. 87. 87. 87.
 93. 87. 87. 93. 93. 87. 87. 93. 93. 87. 93. 87. 87. 87. 87. 93.]",164.28095841208437,None,l,1,1.2195436679329816,164.28095841208437,None,None,None,,,,,,,19_JM,32,M,19,2021_Nov_04_1653,Partial repeat,2021.2.3,120.12486563748429,
4,2,0,1,1,3,2,3,2,1,0,0,0,0,0,0,0,10,10,10,1,0,1,0,,,,,,,,,0.8201374942724784,165.57155938086225,None,"[87. 93. 93. 87. 87. 87. 87. 87. 87. 93. 93. 87. 87. 87. 87. 93. 93. 93.
 87. 93. 87. 93. 87. 87. 93. 87. 87. 87. 87. 87. 93. 93. 93. 87.]",166.47914318034066,None,s,1,1.5654861448625468,166.47914318034066,None,None,None,,,,,,,19_JM,32,M,19,2021_Nov_04_1653,Partial repeat,2021.2.3,120.12486563748429,
4,2,0,1,1,3,2,3,2,1,0,0,0,0,0,0,0,10,10,10,,,,,,,,,,,,,,,,,,,,,,,,,,,,,,,,19_JM,32,M,19,2021_Nov_04_1653,Partial repeat,2021.2.3,120.12486563748429,
6,8,0,1,1,2,3,2,3,0,1,0,0,0,0,0,0,11,11,11,0,0,0,0,,,,,,,168.06116841551932,None,0.8834938711031627,168.93545500583878,None,"[93. 87. 93. 87. 87. 93. 93. 93. 93. 93. 93. 87. 93. 93. 93. 87. 93. 87.
 87. 93. 87. 87. 87. 93. 87. 87. 87. 93. 93. 87. 87. 87. 93. 93.]",169.9013245566236,None,s,1,1.2314441191590788,169.9013245566236,None,None,None,,,,,,,19_JM,32,M,19,2021_Nov_04_1653,Partial repeat,2021.2.3,120.12486563748429,
6,8,0,1,1,2,3,2,3,0,1,0,0,0,0,0,0,11,11,11,1,0,1,0,,,,,,,,,0.9814571011179294,171.19191365862622,None,"[87. 93. 93. 93. 93. 93. 93. 87. 93. 93. 93. 93. 93. 87. 93. 93. 93. 87.
 93. 93. 87. 87. 87. 87. 93. 87. 93. 87. 87. 87. 87. 93. 93. 93.]",172.24938765836134,None,l,1,1.0763899473301137,172.24938765836134,None,None,None,,,,,,,19_JM,32,M,19,2021_Nov_04_1653,Partial repeat,2021.2.3,120.12486563748429,
6,8,0,1,1,2,3,2,3,0,1,0,0,0,0,0,0,11,11,11,,,,,,,,,,,,,,,,,,,,,,,,,,,,,,,,19_JM,32,M,19,2021_Nov_04_1653,Partial repeat,2021.2.3,120.12486563748429,
7,5,0,1,1,3,3,3,3,1,1,1,1,1,0,0,0,12,12,12,0,0,0,0,,,,,,,173.34847523163467,None,0.9069256939433429,174.39764377159474,None,"[87. 87. 93. 87. 87. 87. 93. 87. 93. 93. 87. 87. 93. 93. 87. 93. 87. 87.
 87. 87. 93. 93. 87. 87. 87. 87. 93. 93. 93. 93. 93. 93. 87. 87.]",175.3884736408453,None,l,1,0.8314943444835023,175.3884736408453,None,None,None,,,,,,,19_JM,32,M,19,2021_Nov_04_1653,Partial repeat,2021.2.3,120.12486563748429,
7,5,0,1,1,3,3,3,3,1,1,1,1,1,0,0,0,12,12,12,1,0,1,0,,,,,,,,,0.7106907945605202,176.2877430002864,None,"[87. 87. 87. 87. 93. 93. 87. 93. 93. 93. 93. 87. 93. 93. 93. 93. 87. 87.
 87. 87. 93. 87. 87. 87. 93. 87. 93. 93. 93. 87. 93. 87. 87. 87.]",177.08705722896684,None,l,1,0.9100402090887485,177.08705722896684,None,None,None,,,,,,,19_JM,32,M,19,2021_Nov_04_1653,Partial repeat,2021.2.3,120.12486563748429,
7,5,0,1,1,3,3,3,3,1,1,1,1,1,0,0,0,12,12,12,,,,,,,,,,,,,,,,,,,,,,,,,,,,,,,,19_JM,32,M,19,2021_Nov_04_1653,Partial repeat,2021.2.3,120.12486563748429,
7,3,0,1,1,2,2,3,2,1,1,1,0,1,0,0,0,13,13,13,0,0,0,0,,,,,,,178.01962924986907,None,0.7112800993389821,178.902236694699,None,"[93. 93. 93. 93. 93. 93. 87. 93. 87. 87. 93. 93. 93. 87. 87. 93. 87. 87.
 87. 87. 87. 87. 93. 93. 87. 93. 93. 93. 93. 93. 93. 93. 93. 93.]",179.70157946778477,None,l,1,1.1586302277195557,179.70157946778477,None,None,None,,,,,,,19_JM,32,M,19,2021_Nov_04_1653,Partial repeat,2021.2.3,120.12486563748429,
7,3,0,1,1,2,2,3,2,1,1,1,0,1,0,0,0,13,13,13,1,0,1,0,,,,,,,,,0.8699431874884798,180.9255674162727,None,"[93. 93. 93. 93. 87. 87. 87. 93. 87. 87. 87. 93. 93. 87. 87. 87. 87. 93.
 93. 93. 87. 87. 93. 87. 93. 93. 93. 87. 93. 93. 93. 93. 93. 93.]",181.8831151503761,None,l,1,0.9931656867665595,181.8831151503761,None,None,None,,,,,,,19_JM,32,M,19,2021_Nov_04_1653,Partial repeat,2021.2.3,120.12486563748429,
7,3,0,1,1,2,2,3,2,1,1,1,0,1,0,0,0,13,13,13,,,,,,,,,,,,,,,,,,,,,,,,,,,,,,,,19_JM,32,M,19,2021_Nov_04_1653,Partial repeat,2021.2.3,120.12486563748429,
6,6,0,1,1,3,2,2,2,1,1,0,1,1,0,0,0,14,14,14,0,0,0,0,,,,,,,182.89895825749556,None,0.7992295849756528,183.6816359087336,None,"[93. 87. 93. 87. 87. 93. 93. 87. 87. 87. 87. 93. 93. 87. 87. 87. 93. 93.
 87. 87. 87. 87. 93. 93. 87. 93. 93. 87. 93. 93. 87. 87. 87. 87.]",184.56425522033874,None,l,1,0.8721717256722457,184.56425522033874,None,None,None,,,,,,,19_JM,32,M,19,2021_Nov_04_1653,Partial repeat,2021.2.3,120.12486563748429,
6,6,0,1,1,3,2,2,2,1,1,0,1,1,0,0,0,14,14,14,1,0,1,0,,,,,,,,,0.7688557388034241,185.50515354805356,None,"[87. 93. 87. 87. 93. 93. 93. 87. 93. 87. 87. 87. 87. 87. 93. 87. 87. 93.
 87. 93. 93. 87. 87. 87. 87. 93. 87. 93. 87. 87. 93. 93. 93. 93.]",186.36276090468448,None,l,1,0.9450455924352639,186.36276090468448,None,None,None,,,,,,,19_JM,32,M,19,2021_Nov_04_1653,Partial repeat,2021.2.3,120.12486563748429,
6,6,0,1,1,3,2,2,2,1,1,0,1,1,0,0,0,14,14,14,,,,,,,,,,,,,,,,,,,,,,,,,,,,,,,,19_JM,32,M,19,2021_Nov_04_1653,Partial repeat,2021.2.3,120.12486563748429,
1,7,0,1,1,2,3,3,3,0,0,0,1,1,0,0,0,15,15,15,0,0,0,0,,,,,,,187.3286362284951,None,0.8330559348008093,188.60257047180693,None,"[87. 93. 87. 93. 93. 87. 93. 93. 87. 93. 87. 87. 87. 87. 93. 93. 87. 93.
 87. 87. 87. 87. 87. 87. 93. 87. 87. 87. 93. 87. 93. 87. 93. 93.]",189.5184975764517,None,s,1,0.9738853842343076,189.5184975764517,None,None,None,,,,,,,19_JM,32,M,19,2021_Nov_04_1653,Partial repeat,2021.2.3,120.12486563748429,
1,7,0,1,1,2,3,3,3,0,0,0,1,1,0,0,0,15,15,15,1,0,1,0,,,,,,,,,0.8516951440939782,190.55097212943508,None,"[87. 93. 93. 93. 93. 93. 93. 93. 87. 93. 87. 87. 93. 93. 87. 87. 93. 93.
 87. 87. 87. 93. 87. 93. 93. 87. 87. 93. 87. 87. 93. 93. 87. 87.]",191.48354799902114,None,s,1,0.8801872512629245,191.48354799902114,None,None,None,,,,,,,19_JM,32,M,19,2021_Nov_04_1653,Partial repeat,2021.2.3,120.12486563748429,
1,7,0,1,1,2,3,3,3,0,0,0,1,1,0,0,0,15,15,15,,,,,,,,,,,,,,,,,,,,,,,,,,,,,,,,19_JM,32,M,19,2021_Nov_04_1653,Partial repeat,2021.2.3,120.12486563748429,
1,3,0,1,1,3,3,3,3,1,0,1,1,0,0,0,0,16,16,16,0,0,0,0,,,,,,,192.391120252448,None,0.9334403056045433,193.4319310546773,None,"[93. 93. 87. 87. 93. 87. 87. 87. 87. 93. 93. 87. 87. 93. 93. 93. 87. 87.
 93. 87. 93. 93. 93. 87. 93. 93. 93. 87. 93. 93. 93. 93. 93. 93.]",194.44775876706132,None,l,1,0.7642135775434724,194.44775876706132,None,None,None,,,,,,,19_JM,32,M,19,2021_Nov_04_1653,Partial repeat,2021.2.3,120.12486563748429,
1,3,0,1,1,3,3,3,3,1,0,1,1,0,0,0,0,16,16,16,1,0,1,0,,,,,,,,,0.7922449516845795,195.28040676739744,None,"[87. 87. 93. 93. 87. 87. 93. 93. 93. 87. 87. 87. 93. 87. 87. 93. 87. 93.
 93. 87. 93. 93. 93. 87. 87. 87. 87. 87. 93. 93. 93. 87. 87. 93.]",196.16300138328114,None,s,1,1.0819644451811143,196.16300138328114,None,None,None,,,,,,,19_JM,32,M,19,2021_Nov_04_1653,Partial repeat,2021.2.3,120.12486563748429,
1,3,0,1,1,3,3,3,3,1,0,1,1,0,0,0,0,16,16,16,,,,,,,,,,,,,,,,,,,,,,,,,,,,,,,,19_JM,32,M,19,2021_Nov_04_1653,Partial repeat,2021.2.3,120.12486563748429,
5,7,0,1,1,2,2,3,2,1,0,1,0,0,0,0,0,17,17,17,0,0,0,0,,,,,,,197.25378670401602,None,0.8680964493070746,198.58600894369982,None,"[93. 87. 93. 87. 93. 87. 87. 93. 93. 93. 93. 93. 93. 93. 93. 93. 93. 87.
 93. 93. 93. 87. 93. 87. 87. 87. 93. 87. 87. 93. 93. 87. 93. 87.]",199.54356405444736,None,l,1,0.7885885753384798,199.54356405444736,None,None,None,,,,,,,19_JM,32,M,19,2021_Nov_04_1653,Partial repeat,2021.2.3,120.12486563748429,
5,7,0,1,1,2,2,3,2,1,0,1,0,0,0,0,0,17,17,17,1,0,1,0,,,,,,,,,0.7985167336049089,200.40118905087928,None,"[93. 93. 93. 87. 87. 93. 87. 87. 87. 93. 87. 93. 87. 87. 93. 87. 93. 93.
 93. 93. 93. 93. 87. 87. 87. 87. 93. 87. 87. 87. 87. 87. 87. 87.]",201.283782704592,None,s,1,0.8084516327521385,201.283782704592,None,None,None,,,,,,,19_JM,32,M,19,2021_Nov_04_1653,Partial repeat,2021.2.3,120.12486563748429,
5,7,0,1,1,2,2,3,2,1,0,1,0,0,0,0,0,17,17,17,,,,,,,,,,,,,,,,,,,,,,,,,,,,,,,,19_JM,32,M,19,2021_Nov_04_1653,Partial repeat,2021.2.3,120.12486563748429,
3,4,0,1,1,3,3,2,2,1,0,1,1,0,0,0,0,18,18,18,0,0,0,0,,,,,,,202.11644064736146,None,0.8936615432576291,203.08231885768498,None,"[87. 87. 93. 87. 93. 87. 93. 93. 93. 87. 87. 93. 87. 87. 93. 87. 93. 87.
 87. 87. 93. 87. 87. 93. 87. 87. 93. 93. 87. 87. 87. 93. 87. 87.]",204.06484711584443,None,l,1,1.066708583074302,204.06484711584443,None,None,None,,,,,,,19_JM,32,M,19,2021_Nov_04_1653,Partial repeat,2021.2.3,120.12486563748429,
3,4,0,1,1,3,3,2,2,1,0,1,1,0,0,0,0,18,18,18,1,0,1,0,,,,,,,,,0.812754458747461,205.20555307351083,None,"[87. 87. 93. 87. 93. 87. 87. 93. 87. 93. 87. 93. 87. 87. 87. 87. 87. 93.
 87. 87. 93. 93. 93. 87. 93. 87. 93. 87. 87. 87. 93. 87. 93. 87.]",206.10482724380677,None,s,1,1.1546314451865385,206.10482724380677,None,None,None,,,,,,,19_JM,32,M,19,2021_Nov_04_1653,Partial repeat,2021.2.3,120.12486563748429,
3,4,0,1,1,3,3,2,2,1,0,1,1,0,0,0,0,18,18,18,,,,,,,,,,,,,,,,,,,,,,,,,,,,,,,,19_JM,32,M,19,2021_Nov_04_1653,Partial repeat,2021.2.3,120.12486563748429,
5,5,0,1,1,3,3,2,2,0,0,1,1,1,0,0,0,19,19,19,0,0,0,0,,,,,,,207.27886376589225,None,0.750752413624105,209.88503949230727,None,"[93. 87. 87. 93. 87. 87. 87. 93. 87. 87. 93. 93. 93. 93. 93. 87. 93. 93.
 87. 93. 87. 87. 93. 93. 93. 93. 87. 87. 87. 87. 87. 87. 87. 93.]",210.7260301563624,None,s,1,1.3976591534652982,210.7260301563624,None,None,None,,,,,,,19_JM,32,M,19,2021_Nov_04_1653,Partial repeat,2021.2.3,120.12486563748429,
5,5,0,1,1,3,3,2,2,0,0,1,1,1,0,0,0,19,19,19,1,0,1,0,,,,,,,,,0.9116966107934608,212.19148100241534,None,"[87. 93. 87. 93. 93. 93. 93. 87. 87. 93. 93. 87. 93. 87. 87. 93. 93. 87.
 87. 93. 87. 87. 87. 87. 93. 93. 93. 93. 93. 87. 93. 93. 87. 87.]",213.1906548182796,None,s,1,0.917125636079362,213.1906548182796,None,None,None,,,,,,,19_JM,32,M,19,2021_Nov_04_1653,Partial repeat,2021.2.3,120.12486563748429,
5,5,0,1,1,3,3,2,2,0,0,1,1,1,0,0,0,19,19,19,,,,,,,,,,,,,,,,,,,,,,,,,,,,,,,,19_JM,32,M,19,2021_Nov_04_1653,Partial repeat,2021.2.3,120.12486563748429,
5,3,0,1,1,2,2,3,3,0,0,1,1,1,0,0,0,20,20,20,0,0,0,0,,,,,,,214.13155250454707,None,0.8612975187154136,215.37219755679132,None,"[87. 87. 87. 93. 87. 87. 93. 87. 93. 87. 93. 87. 87. 93. 93. 93. 87. 93.
 93. 87. 93. 87. 87. 93. 93. 87. 93. 93. 87. 87. 87. 93. 87. 93.]",216.32141641829293,None,s,1,0.7624803869107666,216.32141641829293,None,None,None,,,,,,,19_JM,32,M,19,2021_Nov_04_1653,Partial repeat,2021.2.3,120.12486563748429,
5,3,0,1,1,2,2,3,3,0,0,1,1,1,0,0,0,20,20,20,1,0,1,0,,,,,,,,,0.7319854015211934,217.145741319053,None,"[87. 93. 93. 87. 93. 93. 93. 87. 93. 93. 87. 87. 87. 87. 93. 93. 93. 93.
 93. 87. 93. 87. 87. 87. 87. 93. 87. 87. 87. 87. 93. 93. 87. 93.]",217.96172291464677,None,s,1,0.9782757703503364,217.96172291464677,None,None,None,,,,,,,19_JM,32,M,19,2021_Nov_04_1653,Partial repeat,2021.2.3,120.12486563748429,
5,3,0,1,1,2,2,3,3,0,0,1,1,1,0,0,0,20,20,20,,,,,,,,,,,,,,,,,,,,,,,,,,,,,,,,19_JM,32,M,19,2021_Nov_04_1653,Partial repeat,2021.2.3,120.12486563748429,
7,2,0,1,1,2,3,2,2,1,1,0,1,1,0,0,0,21,21,21,0,0,0,0,,,,,,,218.96923682844073,None,0.7147038888747091,220.15157239582817,None,"[87. 93. 87. 87. 93. 93. 87. 93. 87. 93. 87. 87. 93. 93. 93. 93. 87. 93.
 93. 87. 87. 93. 87. 87. 93. 93. 87. 87. 87. 87. 87. 87. 93. 87.]",220.95094243042462,None,l,1,0.900902471428509,220.95094243042462,None,None,None,,,,,,,19_JM,32,M,19,2021_Nov_04_1653,Partial repeat,2021.2.3,120.12486563748429,
7,2,0,1,1,2,3,2,2,1,1,0,1,1,0,0,0,21,21,21,1,0,1,0,,,,,,,,,0.9817698941191548,221.92511391302423,None,"[93. 93. 93. 87. 87. 93. 87. 93. 93. 87. 87. 87. 87. 87. 87. 87. 93. 87.
 87. 87. 87. 87. 93. 93. 87. 87. 87. 87. 87. 93. 87. 87. 87. 87.]",222.99093474588585,None,l,1,1.0843525535176752,222.99093474588585,None,None,None,,,,,,,19_JM,32,M,19,2021_Nov_04_1653,Partial repeat,2021.2.3,120.12486563748429,
7,2,0,1,1,2,3,2,2,1,1,0,1,1,0,0,0,21,21,21,,,,,,,,,,,,,,,,,,,,,,,,,,,,,,,,19_JM,32,M,19,2021_Nov_04_1653,Partial repeat,2021.2.3,120.12486563748429,
6,4,0,1,1,2,2,3,3,0,1,1,1,0,0,0,0,22,22,22,0,0,0,0,,,,,,,224.0900184704753,None,0.8891934634067317,225.58044727479506,None,"[93. 87. 93. 87. 87. 93. 87. 87. 87. 93. 93. 87. 93. 87. 87. 93. 87. 87.
 87. 87. 87. 93. 93. 93. 93. 87. 93. 87. 93. 93. 93. 93. 87. 93.]",226.55466013074619,None,s,1,0.9607552785141991,226.55466013074619,None,None,None,,,,,,,19_JM,32,M,19,2021_Nov_04_1653,Partial repeat,2021.2.3,120.12486563748429,
6,4,0,1,1,2,2,3,3,0,1,1,1,0,0,0,0,22,22,22,1,0,1,0,,,,,,,,,0.8056903542884891,227.5871330801113,None,"[93. 93. 87. 93. 87. 87. 87. 93. 93. 93. 93. 93. 93. 93. 87. 93. 93. 87.
 87. 87. 93. 87. 87. 93. 87. 93. 87. 87. 87. 93. 93. 87. 93. 87.]",228.4780485505055,None,l,1,1.054663806203365,228.4780485505055,None,None,None,,,,,,,19_JM,32,M,19,2021_Nov_04_1653,Partial repeat,2021.2.3,120.12486563748429,
6,4,0,1,1,2,2,3,3,0,1,1,1,0,0,0,0,22,22,22,,,,,,,,,,,,,,,,,,,,,,,,,,,,,,,,19_JM,32,M,19,2021_Nov_04_1653,Partial repeat,2021.2.3,120.12486563748429,
8,1,0,1,1,3,2,2,2,1,0,0,1,0,0,0,0,23,23,23,0,0,0,0,,,,,,,229.55223834642578,None,0.8857415346339022,231.12586222545656,None,"[93. 93. 93. 87. 93. 87. 87. 93. 87. 87. 93. 87. 87. 93. 93. 87. 93. 93.
 93. 87. 87. 87. 93. 87. 87. 87. 87. 87. 87. 87. 93. 93. 87. 93.]",232.10007860936787,None,l,1,1.1276258719716168,232.10007860936787,None,None,None,,,,,,,19_JM,32,M,19,2021_Nov_04_1653,Partial repeat,2021.2.3,120.12486563748429,
8,1,0,1,1,3,2,2,2,1,0,0,1,0,0,0,0,23,23,23,1,0,1,0,,,,,,,,,0.7832901656816792,233.29908635452347,None,"[87. 87. 93. 93. 93. 93. 93. 87. 93. 87. 87. 87. 87. 87. 93. 93. 87. 87.
 93. 87. 87. 87. 87. 87. 87. 93. 87. 93. 93. 93. 93. 87. 87. 93.]",234.16504760020126,None,s,1,0.9827338291575813,234.16504760020126,None,None,None,,,,,,,19_JM,32,M,19,2021_Nov_04_1653,Partial repeat,2021.2.3,120.12486563748429,
8,1,0,1,1,3,2,2,2,1,0,0,1,0,0,0,0,23,23,23,,,,,,,,,,,,,,,,,,,,,,,,,,,,,,,,19_JM,32,M,19,2021_Nov_04_1653,Partial repeat,2021.2.3,120.12486563748429,
5,6,0,1,1,3,3,2,2,0,1,1,1,0,0,0,0,24,24,24,0,0,0,0,,,,,,,235.16421500159237,None,0.989517093710383,236.03853013631715,None,"[93. 87. 93. 87. 87. 87. 87. 87. 87. 87. 93. 93. 87. 87. 93. 93. 93. 93.
 87. 93. 87. 87. 87. 93. 93. 93. 93. 93. 93. 87. 93. 87. 93. 87.]",237.11262435658824,None,s,1,1.6983205818594058,237.11262435658824,None,None,None,,,,,,,19_JM,32,M,19,2021_Nov_04_1653,Partial repeat,2021.2.3,120.12486563748429,
5,6,0,1,1,3,3,2,2,0,1,1,1,0,0,0,0,24,24,24,1,0,1,0,,,,,,,,,0.748369974433757,238.8694972239764,None,"[87. 93. 93. 87. 87. 93. 93. 87. 93. 87. 93. 87. 93. 93. 93. 93. 93. 93.
 93. 87. 87. 87. 93. 87. 87. 93. 87. 87. 93. 87. 93. 93. 87. 87.]",239.70214939372005,None,l,1,1.140884908601123,239.70214939372005,None,None,None,,,,,,,19_JM,32,M,19,2021_Nov_04_1653,Partial repeat,2021.2.3,120.12486563748429,
5,6,0,1,1,3,3,2,2,0,1,1,1,0,0,0,0,24,24,24,,,,,,,,,,,,,,,,,,,,,,,,,,,,,,,,19_JM,32,M,19,2021_Nov_04_1653,Partial repeat,2021.2.3,120.12486563748429,
8,7,0,1,1,2,3,2,2,1,0,0,1,0,0,0,0,25,25,25,0,0,0,0,,,,,,,240.85952400119436,None,0.9060312707177192,241.6588735094769,None,"[93. 93. 87. 87. 93. 87. 87. 87. 87. 93. 87. 93. 87. 93. 87. 87. 87. 87.
 87. 93. 93. 93. 93. 87. 93. 93. 87. 93. 93. 93. 87. 93. 87. 87.]",242.64970786885868,None,l,1,0.818944107131955,242.64970786885868,None,None,None,,,,,,,19_JM,32,M,19,2021_Nov_04_1653,Partial repeat,2021.2.3,120.12486563748429,
8,7,0,1,1,2,3,2,2,1,0,0,1,0,0,0,0,25,25,25,1,0,1,0,,,,,,,,,0.825599086069938,243.53232557684555,None,"[93. 87. 87. 93. 87. 93. 87. 87. 93. 93. 87. 87. 87. 87. 87. 93. 93. 93.
 87. 87. 87. 93. 93. 93. 87. 93. 93. 93. 93. 87. 93. 93. 87. 93.]",244.44822862721617,None,s,1,0.8430144174544978,244.44822862721617,None,None,None,,,,,,,19_JM,32,M,19,2021_Nov_04_1653,Partial repeat,2021.2.3,120.12486563748429,
8,7,0,1,1,2,3,2,2,1,0,0,1,0,0,0,0,25,25,25,,,,,,,,,,,,,,,,,,,,,,,,,,,,,,,,19_JM,32,M,19,2021_Nov_04_1653,Partial repeat,2021.2.3,120.12486563748429,
2,4,0,1,1,3,2,2,2,0,0,0,1,1,0,0,0,26,26,26,0,0,0,0,,,,,,,245.3141555554629,None,0.730440017167194,246.88789810224608,None,"[87. 93. 87. 93. 87. 87. 93. 87. 93. 87. 93. 87. 87. 93. 87. 93. 93. 87.
 93. 87. 87. 93. 93. 87. 93. 87. 87. 93. 87. 93. 93. 93. 93. 93.]",247.70386751034096,None,s,1,0.7875279422106871,247.70386751034096,None,None,None,,,,,,,19_JM,32,M,19,2021_Nov_04_1653,Partial repeat,2021.2.3,120.12486563748429,
2,4,0,1,1,3,2,2,2,0,0,0,1,1,0,0,0,26,26,26,1,0,1,0,,,,,,,,,0.7937706671529047,248.56151848538894,None,"[93. 93. 87. 87. 87. 87. 93. 93. 87. 87. 93. 87. 87. 87. 87. 93. 93. 93.
 93. 87. 93. 87. 93. 93. 87. 93. 93. 87. 87. 87. 87. 87. 87. 87.]",249.44413683482315,None,s,1,0.8233441149576208,249.44413683482315,None,None,None,,,,,,,19_JM,32,M,19,2021_Nov_04_1653,Partial repeat,2021.2.3,120.12486563748429,
2,4,0,1,1,3,2,2,2,0,0,0,1,1,0,0,0,26,26,26,,,,,,,,,,,,,,,,,,,,,,,,,,,,,,,,19_JM,32,M,19,2021_Nov_04_1653,Partial repeat,2021.2.3,120.12486563748429,
2,3,0,1,1,3,3,3,3,0,1,1,1,0,0,0,0,27,27,27,0,0,0,0,,,,,,,250.28509382289445,None,0.8631789410577477,251.24264700930001,None,"[87. 93. 93. 87. 87. 93. 93. 87. 93. 93. 87. 87. 87. 87. 93. 87. 93. 93.
 93. 93. 93. 93. 93. 87. 93. 87. 93. 93. 93. 87. 93. 93. 93. 93.]",252.19184983461884,None,s,1,1.1309030262803788,252.19184983461884,None,None,None,,,,,,,19_JM,32,M,19,2021_Nov_04_1653,Partial repeat,2021.2.3,120.12486563748429,
2,3,0,1,1,3,3,3,3,0,1,1,1,0,0,0,0,27,27,27,1,0,1,0,,,,,,,,,0.9833261900451947,253.39919222540203,None,"[93. 93. 87. 93. 93. 93. 87. 87. 93. 87. 93. 93. 87. 93. 93. 87. 93. 93.
 93. 93. 87. 87. 93. 93. 93. 93. 87. 93. 93. 93. 87. 93. 87. 93.]",254.46498772109487,None,l,1,0.7780075812298435,254.46498772109487,None,None,None,,,,,,,19_JM,32,M,19,2021_Nov_04_1653,Partial repeat,2021.2.3,120.12486563748429,
2,3,0,1,1,3,3,3,3,0,1,1,1,0,0,0,0,27,27,27,,,,,,,,,,,,,,,,,,,,,,,,,,,,,,,,19_JM,32,M,19,2021_Nov_04_1653,Partial repeat,2021.2.3,120.12486563748429,
5,1,0,1,1,2,3,2,2,0,0,0,1,1,0,0,0,28,28,28,0,0,0,0,,,,,,,255.2726398026395,None,0.8917213001040917,256.98790519023885,None,"[93. 87. 93. 87. 93. 87. 87. 93. 93. 93. 87. 87. 87. 93. 93. 87. 87. 87.
 93. 93. 87. 93. 93. 87. 87. 87. 93. 93. 93. 93. 93. 87. 87. 93.]",257.9620911054029,None,s,1,0.7687498929225285,257.9620911054029,None,None,None,,,,,,,19_JM,32,M,19,2021_Nov_04_1653,Partial repeat,2021.2.3,120.12486563748429,
5,1,0,1,1,2,3,2,2,0,0,0,1,1,0,0,0,28,28,28,1,0,1,0,,,,,,,,,0.9415528132582727,258.794749368896,None,"[87. 87. 87. 93. 87. 87. 87. 87. 93. 93. 87. 93. 87. 93. 87. 87. 87. 87.
 93. 87. 87. 93. 93. 87. 93. 93. 87. 93. 93. 87. 93. 87. 87. 87.]",259.8188950492776,None,s,1,1.4081115373882085,259.8188950492776,None,None,None,,,,,,,19_JM,32,M,19,2021_Nov_04_1653,Partial repeat,2021.2.3,120.12486563748429,
5,1,0,1,1,2,3,2,2,0,0,0,1,1,0,0,0,28,28,28,,,,,,,,,,,,,,,,,,,,,,,,,,,,,,,,19_JM,32,M,19,2021_Nov_04_1653,Partial repeat,2021.2.3,120.12486563748429,
5,2,0,1,1,2,3,2,2,0,1,0,1,0,0,0,0,29,29,29,0,0,0,0,,,,,,,261.2427448300149,None,0.7287608445237798,262.20028198023766,None,"[93. 87. 93. 93. 93. 87. 93. 87. 93. 87. 87. 87. 93. 93. 93. 87. 93. 93.
 93. 93. 93. 87. 87. 93. 87. 93. 87. 93. 93. 93. 93. 87. 87. 93.]",263.01627223537014,None,s,1,0.8983100621235849,263.01627223537014,None,None,None,,,,,,,19_JM,32,M,19,2021_Nov_04_1653,Partial repeat,2021.2.3,120.12486563748429,
5,2,0,1,1,2,3,2,2,0,1,0,1,0,0,0,0,29,29,29,1,0,1,0,,,,,,,,,0.7710206860948657,263.97384562736596,None,"[87. 93. 93. 87. 87. 93. 87. 93. 93. 93. 87. 87. 87. 87. 93. 93. 87. 93.
 93. 93. 87. 87. 87. 93. 87. 93. 87. 87. 93. 93. 87. 93. 93. 93.]",264.8314446451818,None,l,1,0.8437649108076926,264.8314446451818,None,None,None,,,,,,,19_JM,32,M,19,2021_Nov_04_1653,Partial repeat,2021.2.3,120.12486563748429,
5,2,0,1,1,2,3,2,2,0,1,0,1,0,0,0,0,29,29,29,,,,,,,,,,,,,,,,,,,,,,,,,,,,,,,,19_JM,32,M,19,2021_Nov_04_1653,Partial repeat,2021.2.3,120.12486563748429,
8,6,0,1,1,2,2,2,3,0,1,1,0,0,0,0,0,30,30,30,0,0,0,0,,,,,,,265.7057062190562,None,0.8263626414042956,266.5217160383316,None,"[87. 93. 93. 87. 87. 87. 93. 87. 87. 87. 87. 93. 87. 87. 87. 93. 87. 93.
 87. 87. 87. 87. 93. 93. 93. 93. 87. 87. 93. 87. 93. 87. 87. 87.]",267.43761940942585,None,s,1,0.7177298153009701,267.43761940942585,None,None,None,,,,,,,19_JM,32,M,19,2021_Nov_04_1653,Partial repeat,2021.2.3,120.12486563748429,
8,6,0,1,1,2,2,2,3,0,1,1,0,0,0,0,0,30,30,30,1,0,1,0,,,,,,,,,0.7156539364133474,268.220312776123,None,"[87. 93. 87. 87. 87. 87. 93. 87. 87. 87. 87. 93. 93. 87. 87. 93. 93. 87.
 93. 93. 93. 93. 87. 87. 87. 93. 87. 87. 93. 93. 87. 87. 87. 87.]",269.0113263558833,None,l,1,0.7430759643240208,269.0113263558833,None,None,None,,,,,,,19_JM,32,M,19,2021_Nov_04_1653,Partial repeat,2021.2.3,120.12486563748429,
8,6,0,1,1,2,2,2,3,0,1,1,0,0,0,0,0,30,30,30,,,,,,,,,,,,,,,,,,,,,,,,,,,,,,,,19_JM,32,M,19,2021_Nov_04_1653,Partial repeat,2021.2.3,120.12486563748429,
1,1,0,1,1,3,2,3,2,1,1,0,0,1,0,0,0,31,31,31,0,0,0,0,,,,,,,269.7690472166158,None,0.9155479738066902,270.65164664335435,None,"[87. 93. 87. 93. 93. 93. 87. 87. 87. 87. 87. 87. 93. 93. 87. 87. 87. 87.
 87. 87. 93. 87. 87. 93. 93. 93. 87. 93. 93. 87. 93. 93. 93. 87.]",271.6508271944153,None,l,1,1.703740490908615,271.6508271944153,None,None,None,,,,,,,19_JM,32,M,19,2021_Nov_04_1653,Partial repeat,2021.2.3,120.12486563748429,
1,1,0,1,1,3,2,3,2,1,1,0,0,1,0,0,0,31,31,31,1,0,1,0,,,,,,,,,0.8192290101578825,273.42436678726943,None,"[87. 87. 87. 87. 87. 93. 93. 87. 87. 93. 93. 87. 93. 93. 87. 93. 87. 87.
 87. 87. 87. 93. 87. 87. 87. 93. 87. 87. 93. 93. 93. 87. 87. 93.]",274.331947700235,None,l,1,0.8637998761005861,274.331947700235,None,None,None,,,,,,,19_JM,32,M,19,2021_Nov_04_1653,Partial repeat,2021.2.3,120.12486563748429,
1,1,0,1,1,3,2,3,2,1,1,0,0,1,0,0,0,31,31,31,,,,,,,,,,,,,,,,,,,,,,,,,,,,,,,,19_JM,32,M,19,2021_Nov_04_1653,Partial repeat,2021.2.3,120.12486563748429,
4,6,0,1,1,2,2,2,3,1,1,1,0,1,0,0,0,32,32,32,0,0,0,0,,,,,,,275.20622691391037,None,0.970812845304825,276.0055610274575,None,"[93. 87. 93. 93. 87. 87. 87. 87. 93. 87. 93. 87. 87. 93. 87. 87. 93. 87.
 93. 87. 93. 87. 93. 93. 93. 93. 93. 93. 87. 93. 93. 87. 93. 93.]",277.06304176238933,None,l,1,1.683574991087994,277.06304176238933,None,None,None,,,,,,,19_JM,32,M,19,2021_Nov_04_1653,Partial repeat,2021.2.3,120.12486563748429,
4,6,0,1,1,2,2,2,3,1,1,1,0,1,0,0,0,32,32,32,1,0,1,0,,,,,,,,,0.7603284324191275,278.8198966692528,None,"[93. 87. 93. 93. 87. 87. 87. 93. 93. 93. 93. 93. 93. 87. 93. 87. 87. 93.
 87. 93. 93. 87. 87. 93. 87. 93. 87. 87. 93. 93. 87. 87. 87. 93.]",279.6692011318979,None,l,1,0.9176259649814824,279.6692011318979,None,None,None,,,,,,,19_JM,32,M,19,2021_Nov_04_1653,Partial repeat,2021.2.3,120.12486563748429,
4,6,0,1,1,2,2,2,3,1,1,1,0,1,0,0,0,32,32,32,,,,,,,,,,,,,,,,,,,,,,,,,,,,,,,,19_JM,32,M,19,2021_Nov_04_1653,Partial repeat,2021.2.3,120.12486563748429,
8,4,0,1,1,2,2,2,3,0,0,1,0,1,0,0,0,33,33,33,0,0,0,0,,,,,,,280.6101158165191,None,0.8718168820586806,281.67588405070126,None,"[87. 93. 87. 87. 93. 93. 87. 87. 87. 87. 87. 93. 87. 93. 87. 93. 87. 87.
 93. 87. 93. 87. 93. 87. 93. 87. 87. 87. 93. 93. 87. 87. 93. 87.]",282.6334430101326,None,s,1,0.8976006213982259,282.6334430101326,None,None,None,,,,,,,19_JM,32,M,19,2021_Nov_04_1653,Partial repeat,2021.2.3,120.12486563748429,
8,4,0,1,1,2,2,2,3,0,0,1,0,1,0,0,0,33,33,33,1,0,1,0,,,,,,,,,0.8676323503905359,283.59929748690564,None,"[87. 87. 87. 93. 87. 93. 93. 87. 93. 93. 87. 93. 93. 87. 87. 93. 87. 87.
 87. 93. 87. 87. 93. 87. 93. 93. 93. 87. 87. 93. 93. 87. 87. 93.]",284.5568516354822,None,s,1,0.6533570497425671,284.5568516354822,None,None,None,,,,,,,19_JM,32,M,19,2021_Nov_04_1653,Partial repeat,2021.2.3,120.12486563748429,
8,4,0,1,1,2,2,2,3,0,0,1,0,1,0,0,0,33,33,33,,,,,,,,,,,,,,,,,,,,,,,,,,,,,,,,19_JM,32,M,19,2021_Nov_04_1653,Partial repeat,2021.2.3,120.12486563748429,
2,2,0,1,1,3,2,3,3,1,0,0,1,0,0,0,0,34,34,34,0,0,0,0,,,,,,,285.2313023721684,None,0.8179682398439412,286.55522043497183,None,"[87. 93. 87. 93. 93. 93. 93. 87. 93. 93. 87. 93. 93. 93. 93. 87. 93. 87.
 87. 87. 87. 87. 93. 87. 93. 87. 87. 93. 93. 87. 93. 93. 93. 87.]",287.46280583806856,None,l,1,0.7564671390994704,287.46280583806856,None,None,None,,,,,,,19_JM,32,M,19,2021_Nov_04_1653,Partial repeat,2021.2.3,120.12486563748429,
2,2,0,1,1,3,2,3,3,1,0,0,1,0,0,0,0,34,34,34,1,0,1,0,,,,,,,,,0.7015050848108128,288.2871172684351,None,"[87. 93. 87. 93. 87. 93. 87. 93. 93. 93. 87. 87. 93. 87. 93. 87. 93. 87.
 87. 87. 87. 93. 87. 93. 87. 93. 87. 93. 93. 93. 93. 87. 87. 87.]",289.0781436771416,None,s,1,1.0602116839909854,289.0781436771416,None,None,None,,,,,,,19_JM,32,M,19,2021_Nov_04_1653,Partial repeat,2021.2.3,120.12486563748429,
2,2,0,1,1,3,2,3,3,1,0,0,1,0,0,0,0,34,34,34,,,,,,,,,,,,,,,,,,,,,,,,,,,,,,,,19_JM,32,M,19,2021_Nov_04_1653,Partial repeat,2021.2.3,120.12486563748429,
8,5,0,1,1,2,3,3,3,1,1,0,1,1,0,0,0,35,35,35,0,0,0,0,,,,,,,290.160580240408,None,0.7788111248222819,291.3928919299193,None,"[93. 93. 87. 93. 93. 87. 87. 93. 87. 87. 87. 93. 93. 87. 93. 87. 93. 93.
 87. 87. 93. 87. 87. 87. 87. 87. 87. 87. 93. 93. 93. 93. 93. 87.]",292.2588544584918,None,l,1,1.9596754019671039,292.2588544584918,None,None,None,,,,,,,19_JM,32,M,19,2021_Nov_04_1653,Partial repeat,2021.2.3,120.12486563748429,
8,5,0,1,1,2,3,3,3,1,1,0,1,1,0,0,0,35,35,35,1,0,1,0,,,,,,,,,0.9673896622248215,294.2821771619741,None,"[93. 93. 93. 87. 93. 93. 93. 93. 87. 87. 87. 87. 87. 93. 87. 93. 87. 87.
 87. 93. 93. 87. 87. 87. 87. 93. 87. 93. 87. 93. 93. 87. 87. 87.]",295.33963480480276,None,l,1,1.135015024263737,295.33963480480276,None,None,None,,,,,,,19_JM,32,M,19,2021_Nov_04_1653,Partial repeat,2021.2.3,120.12486563748429,
8,5,0,1,1,2,3,3,3,1,1,0,1,1,0,0,0,35,35,35,,,,,,,,,,,,,,,,,,,,,,,,,,,,,,,,19_JM,32,M,19,2021_Nov_04_1653,Partial repeat,2021.2.3,120.12486563748429,
7,4,0,1,1,3,2,3,3,1,1,0,1,1,0,0,0,36,36,36,0,0,0,0,,,,,,,296.49703122148566,None,0.7316916245625175,297.3712972854912,None,"[87. 87. 87. 87. 93. 87. 93. 93. 93. 87. 93. 93. 87. 93. 93. 87. 87. 87.
 93. 93. 93. 93. 93. 87. 93. 93. 93. 93. 87. 87. 87. 87. 87. 93.]",298.18729844522795,None,l,1,0.7505725590405632,298.18729844522795,None,None,None,,,,,,,19_JM,32,M,19,2021_Nov_04_1653,Partial repeat,2021.2.3,120.12486563748429,
7,4,0,1,1,3,2,3,3,1,1,0,1,1,0,0,0,36,36,36,1,0,1,0,,,,,,,,,0.738978294196201,299.00328837963673,None,"[93. 93. 87. 87. 93. 87. 93. 93. 93. 87. 87. 87. 87. 93. 87. 87. 93. 93.
 93. 87. 93. 93. 87. 87. 87. 93. 87. 93. 87. 93. 93. 93. 87. 87.]",299.82761873269897,None,l,1,0.7903044468937992,299.82761873269897,None,None,None,,,,,,,19_JM,32,M,19,2021_Nov_04_1653,Partial repeat,2021.2.3,120.12486563748429,
7,4,0,1,1,3,2,3,3,1,1,0,1,1,0,0,0,36,36,36,,,,,,,,,,,,,,,,,,,,,,,,,,,,,,,,19_JM,32,M,19,2021_Nov_04_1653,Partial repeat,2021.2.3,120.12486563748429,
6,3,0,1,1,2,3,3,2,0,0,0,0,1,0,0,0,37,37,37,0,0,0,0,,,,,,,300.64361476085725,None,0.9147332943796594,301.5095833831791,None,"[93. 93. 93. 87. 87. 93. 87. 93. 87. 87. 87. 93. 93. 93. 93. 87. 93. 87.
 87. 87. 93. 87. 93. 87. 87. 87. 93. 87. 87. 93. 87. 87. 93. 93.]",302.500414856048,None,s,1,0.8695687324866981,302.500414856048,None,None,None,,,,,,,19_JM,32,M,19,2021_Nov_04_1653,Partial repeat,2021.2.3,120.12486563748429,
6,3,0,1,1,2,3,3,2,0,0,0,0,1,0,0,0,37,37,37,1,0,1,0,,,,,,,,,0.9344348781552898,303.4329567289266,None,"[93. 87. 87. 93. 93. 93. 87. 87. 87. 93. 93. 87. 93. 93. 87. 87. 93. 87.
 93. 87. 93. 87. 93. 93. 93. 87. 87. 87. 87. 87. 87. 93. 93. 93.]",304.45714378265967,None,s,1,0.9928250782447208,304.45714378265967,None,None,None,,,,,,,19_JM,32,M,19,2021_Nov_04_1653,Partial repeat,2021.2.3,120.12486563748429,
6,3,0,1,1,2,3,3,2,0,0,0,0,1,0,0,0,37,37,37,,,,,,,,,,,,,,,,,,,,,,,,,,,,,,,,19_JM,32,M,19,2021_Nov_04_1653,Partial repeat,2021.2.3,120.12486563748429,
2,6,0,1,1,2,3,3,2,1,0,0,0,0,0,0,0,38,38,38,0,0,0,0,,,,,,,305.47294872366416,None,0.7803235843359512,306.372216479487,None,"[93. 87. 87. 93. 87. 87. 87. 87. 93. 87. 87. 93. 87. 87. 87. 93. 87. 93.
 87. 93. 93. 93. 87. 87. 87. 93. 87. 87. 87. 87. 93. 87. 87. 87.]",307.2381610475348,None,l,1,1.1241745647180323,307.2381610475348,None,None,None,,,,,,,19_JM,32,M,19,2021_Nov_04_1653,Partial repeat,2021.2.3,120.12486563748429,
2,6,0,1,1,2,3,3,2,1,0,0,0,0,0,0,0,38,38,38,1,0,1,0,,,,,,,,,0.9335725575774673,308.4205309323533,None,"[93. 93. 93. 93. 93. 93. 87. 93. 87. 87. 87. 93. 87. 93. 87. 93. 93. 93.
 87. 93. 87. 93. 87. 93. 87. 93. 93. 93. 93. 93. 93. 87. 93. 87.]",309.4446897624047,None,s,1,0.7256112784038464,309.4446897624047,None,None,None,,,,,,,19_JM,32,M,19,2021_Nov_04_1653,Partial repeat,2021.2.3,120.12486563748429,
2,6,0,1,1,2,3,3,2,1,0,0,0,0,0,0,0,38,38,38,,,,,,,,,,,,,,,,,,,,,,,,,,,,,,,,19_JM,32,M,19,2021_Nov_04_1653,Partial repeat,2021.2.3,120.12486563748429,
4,7,0,1,1,3,2,3,3,0,0,0,1,1,0,0,0,39,39,39,0,0,0,0,,,,,,,310.19407405316764,None,0.800949127965877,311.05170514334907,None,"[93. 93. 87. 87. 93. 87. 93. 87. 87. 87. 87. 87. 87. 93. 93. 87. 87. 87.
 93. 87. 93. 87. 87. 87. 93. 87. 93. 93. 87. 93. 93. 87. 93. 93.]",311.9426472338066,None,s,1,0.7717746377147137,311.9426472338066,None,None,None,,,,,,,19_JM,32,M,19,2021_Nov_04_1653,Partial repeat,2021.2.3,120.12486563748429,
4,7,0,1,1,3,2,3,3,0,0,0,1,1,0,0,0,39,39,39,1,0,1,0,,,,,,,,,0.7566461669730266,312.7835907514844,None,"[87. 87. 87. 93. 93. 87. 93. 93. 87. 93. 87. 93. 93. 93. 93. 87. 87. 93.
 93. 87. 93. 87. 93. 87. 93. 87. 93. 87. 93. 87. 93. 87. 93. 93.]",313.624567945146,None,s,1,0.817972635180297,313.624567945146,None,None,None,,,,,,,19_JM,32,M,19,2021_Nov_04_1653,Partial repeat,2021.2.3,120.12486563748429,
4,7,0,1,1,3,2,3,3,0,0,0,1,1,0,0,0,39,39,39,,,,,,,,,,,,,,,,,,,,,,,,,,,,,,,,19_JM,32,M,19,2021_Nov_04_1653,Partial repeat,2021.2.3,120.12486563748429,
3,1,0,1,1,2,3,2,3,0,0,0,0,1,0,0,0,40,40,40,0,0,0,0,,,,,,,314.4738743321331,None,0.7095988046662235,315.30650982424663,None,"[93. 87. 87. 87. 87. 87. 93. 93. 93. 93. 93. 93. 93. 87. 87. 87. 87. 93.
 87. 87. 93. 93. 87. 87. 87. 93. 93. 93. 93. 93. 87. 87. 87. 93.]",316.10587312364635,None,s,1,0.8157615663013758,316.10587312364635,None,None,None,,,,,,,19_JM,32,M,19,2021_Nov_04_1653,Partial repeat,2021.2.3,120.12486563748429,
3,1,0,1,1,2,3,2,3,0,0,0,0,1,0,0,0,40,40,40,1,0,1,0,,,,,,,,,0.8594127287133648,316.98014431923036,None,"[87. 87. 87. 87. 93. 87. 87. 93. 93. 87. 93. 87. 87. 93. 87. 87. 87. 93.
 87. 93. 87. 93. 87. 87. 93. 87. 87. 93. 93. 93. 87. 87. 93. 93.]",317.9210394397086,None,s,1,0.5846618914831652,317.9210394397086,None,None,None,,,,,,,19_JM,32,M,19,2021_Nov_04_1653,Partial repeat,2021.2.3,120.12486563748429,
3,1,0,1,1,2,3,2,3,0,0,0,0,1,0,0,0,40,40,40,,,,,,,,,,,,,,,,,,,,,,,,,,,,,,,,19_JM,32,M,19,2021_Nov_04_1653,Partial repeat,2021.2.3,120.12486563748429,
2,5,0,1,1,2,3,3,3,0,1,0,1,0,0,0,0,41,41,41,0,0,0,0,,,,,,,318.5288704209081,None,0.903363441739019,319.211634314737,None,"[93. 93. 87. 93. 93. 93. 87. 87. 93. 93. 87. 87. 87. 93. 93. 87. 87. 93.
 93. 87. 87. 93. 93. 87. 87. 93. 87. 87. 87. 93. 93. 87. 93. 87.]",320.20250619878647,None,s,1,0.6553256515381918,320.20250619878647,None,None,None,,,,,,,19_JM,32,M,19,2021_Nov_04_1653,Partial repeat,2021.2.3,120.12486563748429,
2,5,0,1,1,2,3,3,3,0,1,0,1,0,0,0,0,41,41,41,1,0,1,0,,,,,,,,,0.7103041049847211,320.91857147118185,None,"[87. 87. 87. 93. 93. 87. 87. 87. 93. 87. 93. 93. 93. 93. 87. 93. 93. 87.
 93. 93. 93. 93. 87. 87. 93. 93. 87. 87. 87. 87. 93. 87. 87. 87.]",321.71792579031927,None,l,1,0.9639644394081301,321.71792579031927,None,None,None,,,,,,,19_JM,32,M,19,2021_Nov_04_1653,Partial repeat,2021.2.3,120.12486563748429,
2,5,0,1,1,2,3,3,3,0,1,0,1,0,0,0,0,41,41,41,,,,,,,,,,,,,,,,,,,,,,,,,,,,,,,,19_JM,32,M,19,2021_Nov_04_1653,Partial repeat,2021.2.3,120.12486563748429,
3,8,0,1,1,3,2,3,2,0,1,0,0,0,0,0,0,42,42,42,0,0,0,0,,,,,,,322.70043384288834,None,0.9339710021494906,323.6413241525118,None,"[87. 87. 93. 93. 87. 93. 93. 93. 87. 87. 93. 87. 87. 87. 87. 93. 87. 93.
 87. 93. 87. 87. 93. 87. 93. 87. 93. 93. 93. 87. 87. 87. 87. 93.]",324.665490679931,None,s,1,0.7205428824807427,324.665490679931,None,None,None,,,,,,,19_JM,32,M,19,2021_Nov_04_1653,Partial repeat,2021.2.3,120.12486563748429,
3,8,0,1,1,3,2,3,2,0,1,0,0,0,0,0,0,42,42,42,1,0,1,0,,,,,,,,,0.883286706332254,325.4481535778809,None,"[93. 87. 93. 93. 93. 93. 93. 93. 87. 87. 93. 93. 87. 87. 87. 87. 93. 87.
 93. 87. 93. 87. 93. 93. 87. 87. 93. 87. 93. 93. 93. 87. 93. 93.]",326.4140327503754,None,l,1,0.9401414070236456,326.4140327503754,None,None,None,,,,,,,19_JM,32,M,19,2021_Nov_04_1653,Partial repeat,2021.2.3,120.12486563748429,
3,8,0,1,1,3,2,3,2,0,1,0,0,0,0,0,0,42,42,42,,,,,,,,,,,,,,,,,,,,,,,,,,,,,,,,19_JM,32,M,19,2021_Nov_04_1653,Partial repeat,2021.2.3,120.12486563748429,
5,8,0,1,1,2,2,2,2,0,1,1,1,0,0,0,0,43,43,43,0,0,0,0,,,,,,,327.3632564227317,None,0.8862908539488447,328.72880024657235,None,"[87. 87. 87. 93. 93. 87. 87. 93. 87. 87. 93. 87. 87. 87. 87. 93. 87. 87.
 87. 93. 87. 87. 87. 93. 87. 87. 93. 87. 87. 87. 87. 93. 93. 93.]",329.70300348081383,None,s,1,0.8663345551476027,329.70300348081383,None,None,None,,,,,,,19_JM,32,M,19,2021_Nov_04_1653,Partial repeat,2021.2.3,120.12486563748429,
5,8,0,1,1,2,2,2,2,0,1,1,1,0,0,0,0,43,43,43,1,0,1,0,,,,,,,,,0.9489186444024515,330.6355626727698,None,"[93. 93. 87. 87. 93. 93. 87. 93. 87. 93. 87. 93. 87. 93. 93. 87. 93. 87.
 87. 93. 87. 93. 87. 87. 87. 87. 93. 87. 93. 93. 93. 93. 93. 93.]",331.66803369779296,None,l,1,0.7253053080368659,331.66803369779296,None,None,None,,,,,,,19_JM,32,M,19,2021_Nov_04_1653,Partial repeat,2021.2.3,120.12486563748429,
5,8,0,1,1,2,2,2,2,0,1,1,1,0,0,0,0,43,43,43,,,,,,,,,,,,,,,,,,,,,,,,,,,,,,,,19_JM,32,M,19,2021_Nov_04_1653,Partial repeat,2021.2.3,120.12486563748429,
7,1,0,1,1,3,2,2,3,0,1,0,0,0,0,0,0,44,44,44,0,0,0,0,,,,,,,332.4091073972025,None,0.8950098580245218,333.15849361230727,None,"[93. 93. 87. 93. 93. 93. 93. 93. 93. 87. 87. 93. 93. 87. 93. 87. 93. 93.
 93. 93. 93. 87. 93. 93. 87. 93. 87. 87. 87. 87. 87. 93. 87. 87.]",334.1410218704668,None,s,1,0.7167416657193257,334.1410218704668,None,None,None,,,,,,,19_JM,32,M,19,2021_Nov_04_1653,Partial repeat,2021.2.3,120.12486563748429,
7,1,0,1,1,3,2,2,3,0,1,0,0,0,0,0,0,44,44,44,1,0,1,0,,,,,,,,,0.7752091540593258,334.9320213383863,None,"[93. 87. 87. 93. 93. 93. 93. 93. 93. 93. 87. 93. 87. 93. 87. 87. 87. 87.
 87. 87. 93. 93. 93. 93. 93. 87. 93. 87. 87. 87. 93. 93. 87. 87.]",335.78963895817407,None,l,1,0.6519006436244013,335.78963895817407,None,None,None,,,,,,,19_JM,32,M,19,2021_Nov_04_1653,Partial repeat,2021.2.3,120.12486563748429,
7,1,0,1,1,3,2,2,3,0,1,0,0,0,0,0,0,44,44,44,,,,,,,,,,,,,,,,,,,,,,,,,,,,,,,,19_JM,32,M,19,2021_Nov_04_1653,Partial repeat,2021.2.3,120.12486563748429,
1,4,0,1,1,3,3,3,2,1,0,1,0,0,0,0,0,45,45,45,0,0,0,0,,,,,,,336.4724143980546,None,0.8661272505393416,337.22178746348965,None,"[87. 87. 93. 87. 87. 93. 87. 87. 93. 87. 87. 93. 93. 87. 93. 93. 93. 93.
 93. 93. 93. 93. 93. 93. 93. 87. 93. 87. 87. 87. 87. 93. 87. 93.]",338.17103326577825,None,l,1,0.590623182062302,338.17103326577825,None,None,None,,,,,,,19_JM,32,M,19,2021_Nov_04_1653,Partial repeat,2021.2.3,120.12486563748429,
1,4,0,1,1,3,3,3,2,1,0,1,0,0,0,0,0,45,45,45,1,0,1,0,,,,,,,,,0.7918361638937697,338.8204884043966,None,"[87. 93. 93. 93. 93. 87. 93. 87. 93. 93. 87. 87. 93. 87. 93. 93. 87. 87.
 87. 87. 93. 93. 93. 87. 93. 93. 93. 87. 93. 87. 87. 87. 93. 93.]",339.6947624864935,None,s,1,0.8109625782487342,339.6947624864935,None,None,None,,,,,,,19_JM,32,M,19,2021_Nov_04_1653,Partial repeat,2021.2.3,120.12486563748429,
1,4,0,1,1,3,3,3,2,1,0,1,0,0,0,0,0,45,45,45,,,,,,,,,,,,,,,,,,,,,,,,,,,,,,,,19_JM,32,M,19,2021_Nov_04_1653,Partial repeat,2021.2.3,120.12486563748429,
3,6,0,1,1,2,3,2,3,1,0,0,0,0,0,0,0,46,46,46,0,0,0,0,,,,,,,340.5274438420898,None,0.9840329826395541,341.1602251993217,None,"[87. 87. 93. 93. 87. 93. 87. 87. 93. 87. 93. 93. 87. 87. 87. 87. 87. 93.
 93. 93. 87. 87. 93. 87. 87. 87. 87. 87. 93. 93. 87. 87. 87. 93.]",342.23432936202613,None,l,1,0.8947272581712582,342.23432936202613,None,None,None,,,,,,,19_JM,32,M,19,2021_Nov_04_1653,Partial repeat,2021.2.3,120.12486563748429,
3,6,0,1,1,2,3,2,3,1,0,0,0,0,0,0,0,46,46,46,1,0,1,0,,,,,,,,,0.9302605814952494,343.200208213797,None,"[87. 87. 87. 87. 93. 87. 87. 87. 87. 87. 87. 87. 93. 87. 87. 93. 93. 87.
 87. 87. 87. 87. 93. 87. 87. 93. 93. 87. 87. 87. 87. 93. 87. 87.]",344.21604651006163,None,s,1,0.8810002857289305,344.21604651006163,None,None,None,,,,,,,19_JM,32,M,19,2021_Nov_04_1653,Partial repeat,2021.2.3,120.12486563748429,
3,6,0,1,1,2,3,2,3,1,0,0,0,0,0,0,0,46,46,46,,,,,,,,,,,,,,,,,,,,,,,,,,,,,,,,19_JM,32,M,19,2021_Nov_04_1653,Partial repeat,2021.2.3,120.12486563748429,
3,3,0,1,1,3,3,3,2,0,1,1,0,0,0,0,0,47,47,47,0,0,0,0,,,,,,,345.1236610990109,None,0.9738198404295535,345.8979726737031,None,"[93. 93. 93. 93. 87. 93. 87. 93. 93. 87. 93. 87. 93. 87. 93. 87. 93. 93.
 87. 87. 93. 87. 93. 87. 93. 87. 87. 87. 93. 87. 93. 93. 93. 93.]",346.95545661587147,None,s,1,0.8775925968923843,346.95545661587147,None,None,None,,,,,,,19_JM,32,M,19,2021_Nov_04_1653,Partial repeat,2021.2.3,120.12486563748429,
3,3,0,1,1,3,3,3,2,0,1,1,0,0,0,0,0,47,47,47,1,0,1,0,,,,,,,,,0.8307556866188204,347.9046668178344,None,"[93. 87. 87. 93. 87. 87. 87. 87. 87. 93. 87. 87. 93. 93. 93. 93. 87. 93.
 93. 87. 93. 93. 93. 93. 93. 93. 93. 93. 87. 93. 93. 93. 93. 87.]",348.8205855836641,None,l,1,0.7084711648228108,348.8205855836641,None,None,None,,,,,,,19_JM,32,M,19,2021_Nov_04_1653,Partial repeat,2021.2.3,120.12486563748429,
3,3,0,1,1,3,3,3,2,0,1,1,0,0,0,0,0,47,47,47,,,,,,,,,,,,,,,,,,,,,,,,,,,,,,,,19_JM,32,M,19,2021_Nov_04_1653,Partial repeat,2021.2.3,120.12486563748429,
2,8,0,1,1,3,2,2,3,0,0,0,0,1,0,0,0,48,48,48,0,0,0,0,,,,,,,349.54498806747637,None,0.883739904640306,350.294364340148,None,"[93. 87. 87. 87. 87. 87. 87. 93. 93. 93. 87. 93. 87. 87. 93. 87. 93. 87.
 87. 87. 87. 87. 87. 87. 93. 87. 87. 93. 87. 93. 87. 93. 93. 87.]",351.268570781626,None,s,1,0.6766970723023746,351.268570781626,None,None,None,,,,,,,19_JM,32,M,19,2021_Nov_04_1653,Partial repeat,2021.2.3,120.12486563748429,
2,8,0,1,1,3,2,2,3,0,0,0,0,1,0,0,0,48,48,48,1,0,1,0,,,,,,,,,0.9423793652673821,352.009617860972,None,"[93. 93. 87. 93. 87. 93. 93. 87. 87. 87. 93. 93. 87. 87. 93. 87. 87. 93.
 93. 87. 93. 93. 93. 87. 93. 93. 93. 93. 87. 87. 87. 87. 87. 93.]",353.04209369685003,None,s,1,0.6632613169388719,353.04209369685003,None,None,None,,,,,,,19_JM,32,M,19,2021_Nov_04_1653,Partial repeat,2021.2.3,120.12486563748429,
2,8,0,1,1,3,2,2,3,0,0,0,0,1,0,0,0,48,48,48,,,,,,,,,,,,,,,,,,,,,,,,,,,,,,,,19_JM,32,M,19,2021_Nov_04_1653,Partial repeat,2021.2.3,120.12486563748429,
6,7,0,1,1,3,3,3,2,1,1,1,0,1,0,0,0,49,49,49,0,0,0,0,,,,,,,353.7332015372926,None,0.783660008432085,354.4576037003813,None,"[93. 87. 93. 87. 87. 87. 87. 87. 93. 87. 87. 93. 87. 93. 87. 87. 93. 93.
 87. 93. 93. 87. 93. 87. 87. 93. 87. 87. 93. 93. 87. 87. 87. 87.]",355.3235562865204,None,l,1,1.0218829621292684,355.3235562865204,None,None,None,,,,,,,19_JM,32,M,19,2021_Nov_04_1653,Partial repeat,2021.2.3,120.12486563748429,
6,7,0,1,1,3,3,3,2,1,1,1,0,1,0,0,0,49,49,49,1,0,1,0,,,,,,,,,0.9856878785869331,356.41433006120366,None,"[87. 93. 93. 87. 87. 87. 87. 93. 87. 87. 87. 93. 93. 93. 87. 87. 93. 93.
 93. 87. 87. 93. 93. 93. 87. 87. 93. 87. 87. 87. 93. 93. 87. 93.]",357.4884335824608,None,l,1,0.7131146019027597,357.4884335824608,None,None,None,,,,,,,19_JM,32,M,19,2021_Nov_04_1653,Partial repeat,2021.2.3,120.12486563748429,
6,7,0,1,1,3,3,3,2,1,1,1,0,1,0,0,0,49,49,49,,,,,,,,,,,,,,,,,,,,,,,,,,,,,,,,19_JM,32,M,19,2021_Nov_04_1653,Partial repeat,2021.2.3,120.12486563748429,
2,1,0,1,1,3,3,3,2,0,0,1,0,1,0,0,0,50,50,50,0,0,0,0,,,,,,,358.2211659010458,None,0.7672225043278468,358.9122824010271,None,"[87. 93. 93. 93. 93. 93. 93. 93. 93. 93. 87. 93. 87. 93. 93. 93. 87. 87.
 93. 93. 87. 87. 87. 87. 93. 87. 93. 93. 93. 87. 93. 93. 93. 93.]",359.7698936063419,None,s,1,0.7671716118152858,359.7698936063419,None,None,None,,,,,,,19_JM,32,M,19,2021_Nov_04_1653,Partial repeat,2021.2.3,120.12486563748429,
2,1,0,1,1,3,3,3,2,0,0,1,0,1,0,0,0,50,50,50,1,0,1,0,,,,,,,,,0.7657724168492311,360.6108903641464,None,"[87. 87. 93. 93. 87. 87. 93. 87. 87. 87. 87. 93. 93. 87. 87. 87. 87. 93.
 93. 93. 87. 87. 93. 87. 87. 87. 87. 87. 93. 87. 93. 93. 93. 93.]",361.4601698103465,None,s,1,0.7406782342777092,361.4601698103465,None,None,None,,,,,,,19_JM,32,M,19,2021_Nov_04_1653,Partial repeat,2021.2.3,120.12486563748429,
2,1,0,1,1,3,3,3,2,0,0,1,0,1,0,0,0,50,50,50,,,,,,,,,,,,,,,,,,,,,,,,,,,,,,,,19_JM,32,M,19,2021_Nov_04_1653,Partial repeat,2021.2.3,120.12486563748429,
7,6,0,1,1,2,3,3,2,1,1,0,0,1,0,0,0,51,51,51,0,0,0,0,,,,,,,362.21785988160804,None,0.9305257593677994,363.17541852031576,None,"[93. 93. 93. 87. 87. 87. 87. 87. 93. 93. 93. 87. 87. 93. 93. 87. 87. 87.
 93. 93. 93. 93. 93. 87. 87. 87. 87. 87. 93. 93. 93. 93. 87. 87.]",364.19124879848897,None,l,1,0.6179735332066798,364.19124879848897,None,None,None,,,,,,,19_JM,32,M,19,2021_Nov_04_1653,Partial repeat,2021.2.3,120.12486563748429,
7,6,0,1,1,2,3,3,2,1,1,0,0,1,0,0,0,51,51,51,1,0,1,0,,,,,,,,,0.8196878496070764,364.88236529847023,None,"[87. 93. 87. 87. 87. 87. 93. 87. 93. 87. 93. 93. 93. 87. 87. 93. 87. 87.
 93. 87. 93. 93. 87. 87. 93. 93. 87. 93. 93. 87. 87. 93. 93. 93.]",365.7899237607799,None,l,1,0.667029178440032,365.7899237607799,None,None,None,,,,,,,19_JM,32,M,19,2021_Nov_04_1653,Partial repeat,2021.2.3,120.12486563748429,
7,6,0,1,1,2,3,3,2,1,1,0,0,1,0,0,0,51,51,51,,,,,,,,,,,,,,,,,,,,,,,,,,,,,,,,19_JM,32,M,19,2021_Nov_04_1653,Partial repeat,2021.2.3,120.12486563748429,
4,1,0,1,1,3,2,2,2,0,1,0,1,0,0,0,0,52,52,52,0,0,0,0,,,,,,,366.4810325633934,None,0.862157650280016,367.2220822085288,None,"[93. 87. 87. 93. 87. 87. 93. 93. 93. 87. 87. 87. 87. 87. 87. 87. 93. 87.
 93. 87. 87. 87. 93. 87. 87. 93. 87. 93. 93. 93. 87. 87. 87. 93.]",368.17129465555723,None,s,1,0.6697691206264267,368.17129465555723,None,None,None,,,,,,,19_JM,32,M,19,2021_Nov_04_1653,Partial repeat,2021.2.3,120.12486563748429,
4,1,0,1,1,3,2,2,2,0,1,0,1,0,0,0,0,52,52,52,1,0,1,0,,,,,,,,,0.9948740708532706,368.9040173524326,None,"[87. 87. 93. 87. 93. 87. 87. 93. 87. 93. 87. 93. 87. 93. 93. 93. 93. 93.
 87. 87. 93. 93. 87. 93. 93. 93. 93. 93. 93. 87. 87. 93. 93. 87.]",369.98646225451415,None,l,1,0.8866921684377189,369.98646225451415,None,None,None,,,,,,,19_JM,32,M,19,2021_Nov_04_1653,Partial repeat,2021.2.3,120.12486563748429,
4,1,0,1,1,3,2,2,2,0,1,0,1,0,0,0,0,52,52,52,,,,,,,,,,,,,,,,,,,,,,,,,,,,,,,,19_JM,32,M,19,2021_Nov_04_1653,Partial repeat,2021.2.3,120.12486563748429,
8,3,0,1,1,2,3,3,3,1,0,0,1,0,0,0,0,53,53,53,0,0,0,0,,,,,,,370.8940665803065,None,0.8164364351365268,371.59348116341863,None,"[87. 93. 87. 93. 87. 87. 87. 93. 93. 87. 93. 93. 93. 93. 93. 87. 87. 87.
 87. 93. 93. 87. 93. 93. 87. 93. 87. 93. 93. 87. 87. 87. 93. 93.]",372.4927338452297,None,l,1,1.2285877542860248,372.4927338452297,None,None,None,,,,,,,19_JM,32,M,19,2021_Nov_04_1653,Partial repeat,2021.2.3,120.12486563748429,
8,3,0,1,1,2,3,3,3,1,0,0,1,0,0,0,0,53,53,53,1,0,1,0,,,,,,,,,0.740588479520652,373.783352133085,None,"[93. 87. 87. 87. 87. 87. 93. 87. 93. 87. 93. 87. 93. 93. 87. 87. 93. 93.
 87. 93. 87. 87. 93. 93. 87. 87. 93. 87. 87. 93. 93. 93. 93. 87.]",374.60768344831814,None,s,1,1.353711032440799,374.60768344831814,None,None,None,,,,,,,19_JM,32,M,19,2021_Nov_04_1653,Partial repeat,2021.2.3,120.12486563748429,
8,3,0,1,1,2,3,3,3,1,0,0,1,0,0,0,0,53,53,53,,,,,,,,,,,,,,,,,,,,,,,,,,,,,,,,19_JM,32,M,19,2021_Nov_04_1653,Partial repeat,2021.2.3,120.12486563748429,
6,5,0,1,1,2,3,3,2,0,1,0,0,0,0,0,0,54,54,54,0,0,0,0,,,,,,,375.98153112831545,None,0.8953876768798317,376.6976079467624,None,"[87. 87. 93. 87. 93. 87. 87. 93. 93. 87. 87. 87. 93. 87. 93. 87. 93. 87.
 87. 93. 87. 93. 93. 87. 93. 87. 87. 87. 87. 87. 93. 87. 93. 87.]",377.68016667366913,None,s,1,0.8243566395370294,377.68016667366913,None,None,None,,,,,,,19_JM,32,M,19,2021_Nov_04_1653,Partial repeat,2021.2.3,120.12486563748429,
6,5,0,1,1,2,3,3,2,0,1,0,0,0,0,0,0,54,54,54,1,0,1,0,,,,,,,,,0.9892905608343856,378.5627381974496,None,"[87. 87. 87. 93. 87. 87. 87. 93. 93. 93. 87. 87. 93. 93. 87. 93. 87. 87.
 93. 87. 93. 87. 87. 87. 87. 87. 93. 87. 93. 93. 87. 87. 93. 93.]",379.6368577548895,None,l,1,0.9318067613959897,379.6368577548895,None,None,None,,,,,,,19_JM,32,M,19,2021_Nov_04_1653,Partial repeat,2021.2.3,120.12486563748429,
6,5,0,1,1,2,3,3,2,0,1,0,0,0,0,0,0,54,54,54,,,,,,,,,,,,,,,,,,,,,,,,,,,,,,,,19_JM,32,M,19,2021_Nov_04_1653,Partial repeat,2021.2.3,120.12486563748429,
4,4,0,1,1,3,3,2,2,1,1,1,1,1,0,0,0,55,55,55,0,0,0,0,,,,,,,380.58607020191795,None,0.8240949453946651,381.3021479825359,None,"[87. 87. 93. 87. 87. 93. 93. 93. 87. 87. 87. 87. 87. 93. 93. 93. 87. 87.
 87. 87. 93. 93. 87. 87. 87. 93. 93. 87. 93. 93. 87. 93. 93. 93.]",382.20972408464667,None,l,1,1.1110159145925422,382.20972408464667,None,None,None,,,,,,,19_JM,32,M,19,2021_Nov_04_1653,Partial repeat,2021.2.3,120.12486563748429,
4,4,0,1,1,3,3,2,2,1,1,1,1,1,0,0,0,55,55,55,1,0,1,0,,,,,,,,,0.946403081966308,383.39208242341357,None,"[93. 93. 87. 87. 93. 87. 93. 93. 87. 93. 93. 87. 87. 87. 87. 93. 93. 87.
 87. 87. 93. 93. 87. 87. 93. 87. 87. 87. 87. 87. 87. 93. 87. 93.]",384.4245842379077,None,l,1,0.624234379679649,384.4245842379077,None,None,None,,,,,,,19_JM,32,M,19,2021_Nov_04_1653,Partial repeat,2021.2.3,120.12486563748429,
4,4,0,1,1,3,3,2,2,1,1,1,1,1,0,0,0,55,55,55,,,,,,,,,,,,,,,,,,,,,,,,,,,,,,,,19_JM,32,M,19,2021_Nov_04_1653,Partial repeat,2021.2.3,120.12486563748429,
1,2,0,1,1,2,2,3,3,1,0,1,1,0,0,0,0,56,56,56,0,0,0,0,,,,,,,385.05738740434816,None,0.8429341569697864,385.73181697327317,None,"[87. 87. 87. 87. 93. 93. 93. 93. 87. 87. 87. 87. 93. 87. 93. 87. 93. 93.
 87. 93. 93. 93. 87. 87. 87. 93. 93. 87. 93. 93. 87. 93. 93. 87.]",386.66440695470004,None,l,1,0.6244078911772135,386.66440695470004,None,None,None,,,,,,,19_JM,32,M,19,2021_Nov_04_1653,Partial repeat,2021.2.3,120.12486563748429,
1,2,0,1,1,2,2,3,3,1,0,1,1,0,0,0,0,56,56,56,1,0,1,0,,,,,,,,,0.8501647144790807,387.3471682827397,None,"[93. 93. 93. 87. 87. 93. 93. 93. 87. 93. 87. 87. 93. 87. 87. 93. 93. 87.
 87. 93. 93. 93. 93. 93. 87. 93. 93. 87. 93. 87. 87. 87. 93. 87.]",388.2797406243656,None,s,1,0.9452707404412308,388.2797406243656,None,None,None,,,,,,,19_JM,32,M,19,2021_Nov_04_1653,Partial repeat,2021.2.3,120.12486563748429,
1,2,0,1,1,2,2,3,3,1,0,1,1,0,0,0,0,56,56,56,,,,,,,,,,,,,,,,,,,,,,,,,,,,,,,,19_JM,32,M,19,2021_Nov_04_1653,Partial repeat,2021.2.3,120.12486563748429,
1,8,0,1,1,3,3,3,3,0,0,1,1,1,0,0,0,57,57,57,0,0,0,0,,,,,,,389.24558644159987,None,0.9836827311335332,390.11988393652365,None,"[93. 87. 93. 87. 87. 87. 93. 87. 87. 87. 87. 93. 87. 93. 93. 87. 87. 87.
 87. 93. 87. 93. 87. 87. 87. 93. 93. 87. 87. 93. 87. 87. 87. 93.]",391.19398938212265,None,s,1,0.7670054769619696,391.19398938212265,None,None,None,,,,,,,19_JM,32,M,19,2021_Nov_04_1653,Partial repeat,2021.2.3,120.12486563748429,
1,8,0,1,1,3,3,3,3,0,0,1,1,1,0,0,0,57,57,57,1,0,1,0,,,,,,,,,0.78845927610224,392.0183306397892,None,"[87. 93. 93. 93. 87. 87. 87. 87. 87. 87. 93. 87. 87. 87. 87. 93. 87. 93.
 87. 93. 87. 93. 93. 87. 93. 87. 87. 87. 87. 93. 93. 93. 87. 93.]",392.89260760839903,None,s,1,0.6516928146958776,392.89260760839903,None,None,None,,,,,,,19_JM,32,M,19,2021_Nov_04_1653,Partial repeat,2021.2.3,120.12486563748429,
1,8,0,1,1,3,3,3,3,0,0,1,1,1,0,0,0,57,57,57,,,,,,,,,,,,,,,,,,,,,,,,,,,,,,,,19_JM,32,M,19,2021_Nov_04_1653,Partial repeat,2021.2.3,120.12486563748429,
4,5,0,1,1,2,2,3,2,0,1,1,0,0,0,0,0,58,58,58,0,0,0,0,,,,,,,393.5670432710734,None,0.9439057757860774,394.3080970856162,None,"[93. 93. 87. 93. 93. 93. 87. 93. 93. 93. 87. 87. 87. 93. 93. 93. 93. 93.
 87. 93. 87. 87. 87. 93. 93. 93. 93. 93. 93. 93. 93. 93. 87. 93.]",395.3405799774146,None,s,1,0.7317662860706946,395.3405799774146,None,None,None,,,,,,,19_JM,32,M,19,2021_Nov_04_1653,Partial repeat,2021.2.3,120.12486563748429,
4,5,0,1,1,2,2,3,2,0,1,1,0,0,0,0,0,58,58,58,1,0,1,0,,,,,,,,,0.961058135579423,396.1399227505004,None,"[93. 93. 93. 87. 87. 93. 93. 93. 93. 87. 93. 93. 87. 93. 93. 93. 87. 87.
 87. 93. 87. 87. 87. 87. 93. 93. 87. 87. 93. 93. 87. 87. 87. 87.]",397.1890823101981,None,l,1,0.8833447756483679,397.1890823101981,None,None,None,,,,,,,19_JM,32,M,19,2021_Nov_04_1653,Partial repeat,2021.2.3,120.12486563748429,
4,5,0,1,1,2,2,3,2,0,1,1,0,0,0,0,0,58,58,58,,,,,,,,,,,,,,,,,,,,,,,,,,,,,,,,19_JM,32,M,19,2021_Nov_04_1653,Partial repeat,2021.2.3,120.12486563748429,
1,5,0,1,1,2,2,2,2,1,1,1,1,1,0,0,0,59,59,59,0,0,0,0,,,,,,,398.10497477668815,None,0.9895494460894139,398.90432011556317,None,"[93. 87. 93. 87. 87. 93. 93. 87. 87. 93. 87. 87. 93. 87. 93. 93. 93. 87.
 93. 87. 93. 93. 93. 87. 93. 93. 87. 93. 93. 87. 93. 93. 87. 93.]",399.978429409846,None,l,1,0.830147625855318,399.978429409846,None,None,None,,,,,,,19_JM,32,M,19,2021_Nov_04_1653,Partial repeat,2021.2.3,120.12486563748429,
1,5,0,1,1,2,2,2,2,1,1,1,1,1,0,0,0,59,59,59,1,0,1,0,,,,,,,,,0.942000455727973,400.8693689345143,None,"[87. 87. 93. 93. 93. 93. 87. 87. 87. 93. 87. 93. 87. 93. 93. 93. 93. 93.
 87. 87. 87. 93. 93. 87. 93. 87. 87. 93. 93. 87. 87. 93. 93. 87.]",401.9018175088816,None,l,1,0.6348243540507497,401.9018175088816,None,None,None,,,,,,,19_JM,32,M,19,2021_Nov_04_1653,Partial repeat,2021.2.3,120.12486563748429,
1,5,0,1,1,2,2,2,2,1,1,1,1,1,0,0,0,59,59,59,,,,,,,,,,,,,,,,,,,,,,,,,,,,,,,,19_JM,32,M,19,2021_Nov_04_1653,Partial repeat,2021.2.3,120.12486563748429,
7,7,0,1,1,2,3,2,3,1,1,0,0,1,0,0,0,60,60,60,0,0,0,0,,,,,,,402.55961819773194,None,0.7709661936142695,403.36729144703776,None,"[87. 87. 93. 93. 87. 87. 93. 87. 93. 87. 87. 93. 87. 93. 93. 87. 93. 93.
 87. 87. 93. 93. 93. 93. 93. 87. 93. 93. 87. 93. 87. 87. 87. 87.]",404.224929272416,None,l,1,0.7594851486949779,404.224929272416,None,None,None,,,,,,,19_JM,32,M,19,2021_Nov_04_1653,Partial repeat,2021.2.3,120.12486563748429,
7,7,0,1,1,2,3,2,3,1,1,0,0,1,0,0,0,60,60,60,1,0,1,0,,,,,,,,,0.944073225029733,405.057580159265,None,"[87. 93. 93. 93. 93. 93. 87. 93. 87. 93. 87. 87. 87. 93. 93. 93. 93. 93.
 93. 87. 93. 93. 87. 93. 93. 87. 93. 93. 87. 93. 87. 93. 87. 93.]",406.0900665790236,None,l,1,0.6707781172456748,406.0900665790236,None,None,None,,,,,,,19_JM,32,M,19,2021_Nov_04_1653,Partial repeat,2021.2.3,120.12486563748429,
7,7,0,1,1,2,3,2,3,1,1,0,0,1,0,0,0,60,60,60,,,,,,,,,,,,,,,,,,,,,,,,,,,,,,,,19_JM,32,M,19,2021_Nov_04_1653,Partial repeat,2021.2.3,120.12486563748429,
4,8,0,1,1,2,2,2,2,1,0,1,1,0,0,0,0,61,61,61,0,0,0,0,,,,,,,406.7811654392038,None,0.8572969761855493,407.5138810801588,None,"[93. 87. 87. 87. 87. 87. 87. 87. 93. 93. 93. 93. 93. 93. 93. 87. 93. 93.
 93. 87. 93. 87. 93. 93. 87. 87. 93. 87. 87. 87. 87. 87. 93. 87.]",408.45478069076825,None,l,1,1.457174238542109,408.45478069076825,None,None,None,,,,,,,19_JM,32,M,19,2021_Nov_04_1653,Partial repeat,2021.2.3,120.12486563748429,
4,8,0,1,1,2,2,2,2,1,0,1,1,0,0,0,0,61,61,61,1,0,1,0,,,,,,,,,0.9460115249464773,409.978512156549,None,"[93. 87. 87. 87. 87. 87. 87. 93. 87. 87. 93. 87. 93. 93. 87. 93. 93. 87.
 87. 87. 93. 87. 87. 87. 87. 87. 87. 93. 93. 87. 87. 87. 87. 93.]",411.01099023749265,None,s,1,0.7251016485157038,411.01099023749265,None,None,None,,,,,,,19_JM,32,M,19,2021_Nov_04_1653,Partial repeat,2021.2.3,120.12486563748429,
4,8,0,1,1,2,2,2,2,1,0,1,1,0,0,0,0,61,61,61,,,,,,,,,,,,,,,,,,,,,,,,,,,,,,,,19_JM,32,M,19,2021_Nov_04_1653,Partial repeat,2021.2.3,120.12486563748429,
6,1,0,1,1,3,3,2,3,1,1,1,0,1,0,0,0,62,62,62,0,0,0,0,,,,,,,411.75204725927205,None,0.9228281501019702,412.50144951055967,None,"[87. 87. 87. 87. 93. 93. 87. 93. 87. 87. 87. 87. 87. 87. 87. 93. 93. 93.
 93. 87. 93. 93. 93. 93. 93. 93. 93. 87. 93. 93. 87. 87. 93. 87.]",413.50894386021065,None,l,1,0.67576440791305,413.50894386021065,None,None,None,,,,,,,19_JM,32,M,19,2021_Nov_04_1653,Partial repeat,2021.2.3,120.12486563748429,
6,1,0,1,1,3,3,2,3,1,1,1,0,1,0,0,0,62,62,62,1,0,1,0,,,,,,,,,0.8089415088664891,414.2583419420908,None,"[93. 87. 93. 93. 93. 93. 93. 87. 87. 87. 93. 93. 87. 93. 93. 87. 87. 93.
 87. 93. 87. 93. 87. 93. 87. 87. 87. 87. 87. 87. 87. 87. 87. 93.]",415.1575978311384,None,l,1,0.6586804209716206,415.1575978311384,None,None,None,,,,,,,19_JM,32,M,19,2021_Nov_04_1653,Partial repeat,2021.2.3,120.12486563748429,
6,1,0,1,1,3,3,2,3,1,1,1,0,1,0,0,0,62,62,62,,,,,,,,,,,,,,,,,,,,,,,,,,,,,,,,19_JM,32,M,19,2021_Nov_04_1653,Partial repeat,2021.2.3,120.12486563748429,
2,7,0,1,1,3,2,2,3,1,0,0,0,0,0,0,0,63,63,63,0,0,0,0,,,,,,,415.8320354181547,None,0.8616563051761963,416.56476420877954,None,"[93. 93. 93. 87. 87. 87. 93. 87. 93. 93. 93. 93. 87. 87. 93. 87. 93. 93.
 93. 93. 93. 93. 87. 93. 93. 87. 93. 93. 93. 87. 87. 93. 87. 87.]",417.51397473146613,None,l,1,0.9904366491844598,417.51397473146613,None,None,None,,,,,,,19_JM,32,M,19,2021_Nov_04_1653,Partial repeat,2021.2.3,120.12486563748429,
2,7,0,1,1,3,2,2,3,1,0,0,0,0,0,0,0,63,63,63,1,0,1,0,,,,,,,,,0.9977571138741241,418.5631391020186,None,"[93. 87. 87. 87. 93. 93. 93. 93. 87. 87. 87. 87. 93. 93. 87. 87. 93. 87.
 93. 87. 87. 93. 87. 87. 93. 87. 87. 93. 93. 93. 93. 93. 93. 93.]",419.64554583798514,None,s,1,0.8588398847729763,419.64554583798514,None,None,None,,,,,,,19_JM,32,M,19,2021_Nov_04_1653,Partial repeat,2021.2.3,120.12486563748429,
2,7,0,1,1,3,2,2,3,1,0,0,0,0,0,0,0,63,63,63,,,,,,,,,,,,,,,,,,,,,,,,,,,,,,,,19_JM,32,M,19,2021_Nov_04_1653,Partial repeat,2021.2.3,120.12486563748429,
2,2,0,1,1,3,3,2,2,0,0,1,1,1,1,0,0,64,64,64,0,0,0,0,,,,,,,425.6655814447253,None,0.7160593998977258,429.3958454740601,None,"[87. 87. 87. 93. 87. 93. 93. 93. 93. 93. 87. 87. 93. 93. 87. 87. 87. 87.
 93. 93. 87. 87. 93. 87. 87. 87. 87. 93. 93. 93. 93. 93. 93. 87.]",430.19522224385327,None,s,1,4.004911549190808,430.19522224385327,None,None,None,,,,,,,19_JM,32,M,19,2021_Nov_04_1653,Partial repeat,2021.2.3,120.12486563748429,
2,2,0,1,1,3,3,2,2,0,0,1,1,1,1,0,0,64,64,64,1,0,1,0,,,,,,,,,0.8231633777246741,434.25849749306354,None,"[87. 93. 87. 87. 87. 93. 87. 87. 93. 87. 93. 93. 93. 93. 87. 87. 87. 93.
 87. 87. 87. 87. 93. 87. 93. 87. 87. 93. 87. 87. 93. 87. 93. 93.]",435.1660925178699,None,s,1,0.6340821995125339,435.1660925178699,None,None,None,,,,,,,19_JM,32,M,19,2021_Nov_04_1653,Partial repeat,2021.2.3,120.12486563748429,
2,2,0,1,1,3,3,2,2,0,0,1,1,1,1,0,0,64,64,64,,,,,,,,,,,,,,,,,,,,,,,,,,,,,,,,19_JM,32,M,19,2021_Nov_04_1653,Partial repeat,2021.2.3,120.12486563748429,
2,2,0,1,1,3,2,2,3,0,1,0,0,0,1,0,0,65,65,65,0,0,0,0,,,,,,,435.82389545178575,None,0.7627764965830196,436.70650866964144,None,"[93. 87. 93. 93. 93. 87. 87. 87. 87. 93. 87. 93. 93. 87. 93. 93. 93. 93.
 87. 93. 87. 93. 87. 93. 93. 93. 93. 93. 87. 93. 93. 87. 87. 93.]",437.555802548406,None,s,1,0.7396304300962697,437.555802548406,None,None,None,,,,,,,19_JM,32,M,19,2021_Nov_04_1653,Partial repeat,2021.2.3,120.12486563748429,
2,2,0,1,1,3,2,2,3,0,1,0,0,0,1,0,0,65,65,65,1,0,1,0,,,,,,,,,0.7033673659085355,438.3551440385972,None,"[93. 87. 93. 87. 93. 87. 87. 87. 87. 87. 87. 93. 93. 87. 93. 93. 87. 93.
 93. 93. 87. 87. 87. 93. 93. 87. 93. 93. 87. 87. 93. 93. 87. 87.]",439.14614190289836,None,l,1,0.8773626380316841,439.14614190289836,None,None,None,,,,,,,19_JM,32,M,19,2021_Nov_04_1653,Partial repeat,2021.2.3,120.12486563748429,
2,2,0,1,1,3,2,2,3,0,1,0,0,0,1,0,0,65,65,65,,,,,,,,,,,,,,,,,,,,,,,,,,,,,,,,19_JM,32,M,19,2021_Nov_04_1653,Partial repeat,2021.2.3,120.12486563748429,
2,2,0,1,1,2,3,3,3,0,1,0,1,0,1,0,0,66,66,66,0,0,0,0,,,,,,,440.045395867604,None,0.9350483503594873,440.8697310315211,None,"[87. 93. 87. 93. 87. 87. 93. 93. 93. 93. 87. 87. 87. 93. 93. 87. 93. 87.
 93. 93. 87. 87. 93. 87. 93. 93. 87. 87. 93. 87. 93. 93. 87. 87.]",441.89389371025635,None,s,1,0.626528836709042,441.89389371025635,None,None,None,,,,,,,19_JM,32,M,19,2021_Nov_04_1653,Partial repeat,2021.2.3,120.12486563748429,
2,2,0,1,1,2,3,3,3,0,1,0,1,0,1,0,0,66,66,66,1,0,1,0,,,,,,,,,0.7372044471034895,442.58501405892144,None,"[93. 87. 87. 87. 93. 93. 87. 93. 93. 87. 87. 87. 87. 87. 87. 87. 87. 87.
 93. 87. 87. 93. 93. 93. 87. 93. 93. 87. 93. 87. 87. 87. 93. 87.]",443.4009908436604,None,l,1,0.6866016602221521,443.4009908436604,None,None,None,,,,,,,19_JM,32,M,19,2021_Nov_04_1653,Partial repeat,2021.2.3,120.12486563748429,
2,2,0,1,1,2,3,3,3,0,1,0,1,0,1,0,0,66,66,66,,,,,,,,,,,,,,,,,,,,,,,,,,,,,,,,19_JM,32,M,19,2021_Nov_04_1653,Partial repeat,2021.2.3,120.12486563748429,
2,2,0,1,1,2,3,2,2,1,0,0,1,0,1,0,0,67,67,67,0,0,0,0,,,,,,,444.1004038231543,None,0.7968173436375734,444.84146341072284,None,"[87. 87. 93. 87. 87. 93. 87. 87. 93. 87. 87. 87. 87. 87. 87. 93. 93. 87.
 93. 87. 87. 87. 87. 93. 93. 93. 93. 93. 87. 87. 87. 93. 93. 87.]",445.72407310061834,None,l,1,0.6036416759505414,445.72407310061834,None,None,None,,,,,,,19_JM,32,M,19,2021_Nov_04_1653,Partial repeat,2021.2.3,120.12486563748429,
2,2,0,1,1,2,3,2,2,1,0,0,1,0,1,0,0,67,67,67,1,0,1,0,,,,,,,,,0.7280363525333379,446.3985087632928,None,"[93. 87. 93. 87. 93. 87. 93. 93. 87. 93. 87. 93. 93. 93. 93. 93. 93. 87.
 93. 93. 93. 93. 87. 93. 93. 93. 93. 93. 93. 87. 87. 87. 93. 93.]",447.20618650272985,None,s,1,0.6418517300597273,447.20618650272985,None,None,None,,,,,,,19_JM,32,M,19,2021_Nov_04_1653,Partial repeat,2021.2.3,120.12486563748429,
2,2,0,1,1,2,3,2,2,1,0,0,1,0,1,0,0,67,67,67,,,,,,,,,,,,,,,,,,,,,,,,,,,,,,,,19_JM,32,M,19,2021_Nov_04_1653,Partial repeat,2021.2.3,120.12486563748429,
2,2,0,1,1,3,2,3,3,1,1,0,1,1,1,0,0,68,68,68,0,0,0,0,,,,,,,447.8639512705308,None,0.7422668293560617,448.42184108848477,None,"[93. 93. 93. 93. 93. 87. 93. 87. 87. 87. 87. 93. 93. 93. 87. 93. 93. 93.
 87. 93. 93. 93. 87. 93. 93. 87. 87. 87. 93. 87. 87. 93. 87. 87.]",449.25452180263375,None,l,1,0.5933554268809189,449.25452180263375,None,None,None,,,,,,,19_JM,32,M,19,2021_Nov_04_1653,Partial repeat,2021.2.3,120.12486563748429,
2,2,0,1,1,3,2,3,3,1,1,0,1,1,1,0,0,68,68,68,1,0,1,0,,,,,,,,,0.8569678639992411,449.920619612444,None,"[93. 87. 93. 93. 93. 93. 93. 87. 93. 93. 93. 87. 87. 87. 93. 93. 87. 93.
 87. 93. 93. 93. 87. 87. 87. 93. 87. 93. 87. 93. 93. 87. 93. 87.]",450.8531823323602,None,l,1,0.5790245317957101,450.8531823323602,None,None,None,,,,,,,19_JM,32,M,19,2021_Nov_04_1653,Partial repeat,2021.2.3,120.12486563748429,
2,2,0,1,1,3,2,3,3,1,1,0,1,1,1,0,0,68,68,68,,,,,,,,,,,,,,,,,,,,,,,,,,,,,,,,19_JM,32,M,19,2021_Nov_04_1653,Partial repeat,2021.2.3,120.12486563748429,
2,2,0,1,1,2,3,3,3,1,0,0,1,0,1,0,0,69,69,69,0,0,0,0,,,,,,,451.4526854031288,None,0.9916786566455106,452.00224153762616,None,"[93. 93. 93. 93. 87. 93. 93. 93. 87. 87. 87. 93. 87. 93. 87. 87. 87. 93.
 93. 87. 87. 93. 87. 87. 87. 87. 87. 93. 93. 93. 87. 93. 93. 93.]",453.0763556427639,None,l,1,0.7396958577218697,453.0763556427639,None,None,None,,,,,,,19_JM,32,M,19,2021_Nov_04_1653,Partial repeat,2021.2.3,120.12486563748429,
2,2,0,1,1,2,3,3,3,1,0,0,1,0,1,0,0,69,69,69,1,0,1,0,,,,,,,,,0.8512648148334192,453.87568077604857,None,"[93. 87. 93. 87. 93. 93. 93. 93. 87. 93. 93. 93. 87. 93. 93. 87. 93. 93.
 87. 93. 93. 93. 87. 93. 87. 93. 93. 87. 87. 87. 87. 93. 93. 93.]",454.8165794244871,None,s,1,0.5986980415293033,454.8165794244871,None,None,None,,,,,,,19_JM,32,M,19,2021_Nov_04_1653,Partial repeat,2021.2.3,120.12486563748429,
2,2,0,1,1,2,3,3,3,1,0,0,1,0,1,0,0,69,69,69,,,,,,,,,,,,,,,,,,,,,,,,,,,,,,,,19_JM,32,M,19,2021_Nov_04_1653,Partial repeat,2021.2.3,120.12486563748429,
2,2,0,1,1,3,2,3,2,1,1,0,0,1,1,0,0,70,70,70,0,0,0,0,,,,,,,455.432730298026,None,0.805602622677077,456.1154999648807,None,"[93. 87. 87. 87. 87. 87. 87. 87. 87. 93. 87. 87. 87. 93. 87. 87. 93. 93.
 93. 93. 87. 93. 93. 87. 87. 87. 87. 93. 87. 87. 93. 93. 87. 93.]",457.0064372444835,None,l,1,0.616962932969102,457.0064372444835,None,None,None,,,,,,,19_JM,32,M,19,2021_Nov_04_1653,Partial repeat,2021.2.3,120.12486563748429,
2,2,0,1,1,3,2,3,2,1,1,0,0,1,1,0,0,70,70,70,1,0,1,0,,,,,,,,,0.7322212860188273,457.6975168612443,None,"[87. 93. 93. 87. 87. 93. 93. 93. 87. 87. 87. 87. 93. 93. 87. 93. 87. 93.
 93. 87. 93. 93. 87. 93. 87. 87. 87. 87. 93. 87. 93. 87. 93. 93.]",458.51353020847995,None,l,1,0.741785051611771,458.51353020847995,None,None,None,,,,,,,19_JM,32,M,19,2021_Nov_04_1653,Partial repeat,2021.2.3,120.12486563748429,
2,2,0,1,1,3,2,3,2,1,1,0,0,1,1,0,0,70,70,70,,,,,,,,,,,,,,,,,,,,,,,,,,,,,,,,19_JM,32,M,19,2021_Nov_04_1653,Partial repeat,2021.2.3,120.12486563748429,
2,2,0,1,1,3,2,3,2,0,1,0,0,0,1,0,0,71,71,71,0,0,0,0,,,,,,,459.2795424171466,None,0.7295404762350477,459.7958058326163,None,"[93. 93. 93. 93. 87. 87. 87. 93. 93. 93. 93. 93. 93. 93. 87. 93. 93. 93.
 93. 93. 87. 87. 93. 87. 93. 93. 87. 93. 87. 87. 93. 87. 93. 87.]",460.6118008986036,None,s,1,0.6436173137817036,460.6118008986036,None,None,None,,,,,,,19_JM,32,M,19,2021_Nov_04_1653,Partial repeat,2021.2.3,120.12486563748429,
2,2,0,1,1,3,2,3,2,0,1,0,0,0,1,0,0,71,71,71,1,0,1,0,,,,,,,,,0.7143075048856758,461.3278725854721,None,"[87. 93. 93. 93. 93. 93. 87. 93. 87. 93. 87. 93. 87. 93. 87. 93. 93. 87.
 93. 93. 93. 93. 87. 93. 93. 93. 93. 87. 93. 87. 87. 93. 93. 87.]",462.11889546621836,None,s,0,0.6565921892525353,462.11889546621836,None,462.78500289773825,None,,,,,,,19_JM,32,M,19,2021_Nov_04_1653,Partial repeat,2021.2.3,120.12486563748429,
2,2,0,1,1,3,2,3,2,0,1,0,0,0,1,0,0,71,71,71,,,,,,,,,,,,,,,,,,,,,,,,,,,,,,,,19_JM,32,M,19,2021_Nov_04_1653,Partial repeat,2021.2.3,120.12486563748429,
2,2,0,1,1,3,2,2,2,1,1,0,1,1,1,0,0,72,72,72,0,0,0,0,,,,,,,463.2845918903741,None,0.9615354961988039,464.500274379087,None,"[87. 93. 93. 93. 93. 87. 87. 93. 93. 87. 87. 93. 93. 87. 93. 93. 93. 87.
 87. 93. 87. 93. 87. 87. 87. 93. 87. 87. 87. 87. 87. 93. 87. 87.]",465.54940988451057,None,l,1,1.019313965651179,465.54940988451057,None,None,None,,,,,,,19_JM,32,M,19,2021_Nov_04_1653,Partial repeat,2021.2.3,120.12486563748429,
2,2,0,1,1,3,2,2,2,1,1,0,1,1,1,0,0,72,72,72,1,0,1,0,,,,,,,,,0.9324861854330895,466.63181950699,None,"[87. 87. 87. 87. 93. 87. 87. 93. 93. 87. 87. 93. 93. 93. 87. 93. 87. 93.
 93. 93. 87. 93. 93. 87. 87. 87. 87. 87. 93. 87. 87. 93. 93. 87.]",467.6476568410837,None,l,1,0.7280923966004025,467.6476568410837,None,None,None,,,,,,,19_JM,32,M,19,2021_Nov_04_1653,Partial repeat,2021.2.3,120.12486563748429,
2,2,0,1,1,3,2,2,2,1,1,0,1,1,1,0,0,72,72,72,,,,,,,,,,,,,,,,,,,,,,,,,,,,,,,,19_JM,32,M,19,2021_Nov_04_1653,Partial repeat,2021.2.3,120.12486563748429,
2,2,0,1,1,2,2,3,2,0,1,1,0,0,1,0,0,73,73,73,0,0,0,0,,,,,,,468.39704369763587,None,0.765938352370062,469.3462644834794,None,"[93. 93. 87. 93. 93. 87. 93. 93. 87. 87. 93. 93. 87. 93. 93. 93. 93. 87.
 93. 87. 87. 87. 87. 93. 93. 93. 87. 87. 93. 93. 87. 87. 87. 93.]",470.19557568132126,None,s,1,0.9966994199995156,470.19557568132126,None,None,None,,,,,,,19_JM,32,M,19,2021_Nov_04_1653,Partial repeat,2021.2.3,120.12486563748429,
2,2,0,1,1,2,2,3,2,0,1,1,0,0,1,0,0,73,73,73,1,0,1,0,,,,,,,,,0.763532593044455,471.25302466461125,None,"[87. 87. 93. 93. 93. 93. 87. 87. 93. 87. 93. 93. 87. 93. 87. 87. 87. 87.
 87. 87. 87. 87. 87. 93. 87. 93. 87. 87. 93. 93. 93. 87. 87. 87.]",472.09401115925886,None,l,1,0.7769315533666372,472.09401115925886,None,None,None,,,,,,,19_JM,32,M,19,2021_Nov_04_1653,Partial repeat,2021.2.3,120.12486563748429,
2,2,0,1,1,2,2,3,2,0,1,1,0,0,1,0,0,73,73,73,,,,,,,,,,,,,,,,,,,,,,,,,,,,,,,,19_JM,32,M,19,2021_Nov_04_1653,Partial repeat,2021.2.3,120.12486563748429,
2,2,0,1,1,3,2,3,3,0,1,0,1,0,1,0,0,74,74,74,0,0,0,0,,,,,,,472.88501992816435,None,0.7109504804212955,474.4337726499054,None,"[93. 93. 93. 93. 93. 93. 93. 87. 93. 93. 93. 87. 87. 93. 87. 87. 87. 87.
 93. 93. 87. 93. 87. 87. 93. 93. 93. 87. 87. 93. 87. 87. 93. 93.]",475.2330669937193,None,s,1,0.870045969285627,475.2330669937193,None,None,None,,,,,,,19_JM,32,M,19,2021_Nov_04_1653,Partial repeat,2021.2.3,120.12486563748429,
2,2,0,1,1,3,2,3,3,0,1,0,1,0,1,0,0,74,74,74,1,0,1,0,,,,,,,,,0.7333123682434881,476.16562939291185,None,"[87. 93. 87. 87. 87. 93. 93. 87. 93. 93. 93. 93. 87. 93. 93. 87. 93. 93.
 87. 93. 87. 93. 87. 87. 87. 87. 93. 87. 93. 93. 93. 93. 93. 87.]",476.98164819244954,None,l,1,0.7855625476517503,476.98164819244954,None,None,None,,,,,,,19_JM,32,M,19,2021_Nov_04_1653,Partial repeat,2021.2.3,120.12486563748429,
2,2,0,1,1,3,2,3,3,0,1,0,1,0,1,0,0,74,74,74,,,,,,,,,,,,,,,,,,,,,,,,,,,,,,,,19_JM,32,M,19,2021_Nov_04_1653,Partial repeat,2021.2.3,120.12486563748429,
2,2,0,1,1,2,2,3,3,0,0,1,1,1,1,0,0,75,75,75,0,0,0,0,,,,,,,477.7893063677437,None,0.9970199882418251,478.64695894640994,None,"[87. 93. 93. 87. 93. 87. 87. 87. 87. 87. 87. 93. 87. 93. 93. 93. 93. 87.
 87. 93. 93. 87. 93. 93. 87. 87. 87. 93. 93. 87. 87. 93. 87. 93.]",479.7293846050721,None,s,1,1.0459439714658743,479.7293846050721,None,None,None,,,,,,,19_JM,32,M,19,2021_Nov_04_1653,Partial repeat,2021.2.3,120.12486563748429,
2,2,0,1,1,2,2,3,3,0,0,1,1,1,1,0,0,75,75,75,1,0,1,0,,,,,,,,,0.8552725254926503,480.84512799920714,None,"[87. 93. 87. 93. 87. 87. 87. 93. 87. 87. 93. 87. 93. 87. 87. 93. 93. 87.
 87. 87. 93. 87. 93. 87. 93. 93. 87. 87. 87. 93. 93. 93. 87. 87.]",481.77769809576745,None,s,1,0.6951303436611056,481.77769809576745,None,None,None,,,,,,,19_JM,32,M,19,2021_Nov_04_1653,Partial repeat,2021.2.3,120.12486563748429,
2,2,0,1,1,2,2,3,3,0,0,1,1,1,1,0,0,75,75,75,,,,,,,,,,,,,,,,,,,,,,,,,,,,,,,,19_JM,32,M,19,2021_Nov_04_1653,Partial repeat,2021.2.3,120.12486563748429,
2,2,0,1,1,2,3,3,2,1,0,0,0,0,1,0,0,76,76,76,0,0,0,0,,,,,,,482.4937662546758,None,0.7673560755883199,483.2847859281855,None,"[93. 87. 87. 93. 87. 87. 87. 93. 87. 87. 93. 93. 93. 93. 87. 87. 93. 87.
 87. 93. 87. 93. 87. 93. 93. 93. 93. 93. 93. 93. 93. 87. 87. 93.]",484.14239905784217,None,l,1,0.9363757905879879,484.14239905784217,None,None,None,,,,,,,19_JM,32,M,19,2021_Nov_04_1653,Partial repeat,2021.2.3,120.12486563748429,
2,2,0,1,1,2,3,3,2,1,0,0,0,0,1,0,0,76,76,76,1,0,1,0,,,,,,,,,0.8807193264215223,485.1498892380857,None,"[87. 87. 87. 93. 93. 87. 87. 87. 93. 93. 87. 93. 93. 87. 93. 87. 87. 93.
 87. 93. 93. 93. 93. 93. 87. 87. 87. 93. 87. 93. 93. 93. 87. 87.]",486.1157700141984,None,s,1,0.9148693451650729,486.1157700141984,None,None,None,,,,,,,19_JM,32,M,19,2021_Nov_04_1653,Partial repeat,2021.2.3,120.12486563748429,
2,2,0,1,1,2,3,3,2,1,0,0,0,0,1,0,0,76,76,76,,,,,,,,,,,,,,,,,,,,,,,,,,,,,,,,19_JM,32,M,19,2021_Nov_04_1653,Partial repeat,2021.2.3,120.12486563748429,
2,2,0,1,1,3,3,3,3,0,0,1,1,1,1,0,0,77,77,77,0,0,0,0,,,,,,,487.04835486404687,None,0.7518765529731638,487.8144148605381,None,"[93. 93. 93. 87. 93. 87. 93. 93. 87. 93. 93. 87. 93. 93. 87. 93. 87. 93.
 93. 87. 93. 93. 87. 87. 87. 87. 93. 93. 87. 93. 93. 87. 93. 87.]",488.6553670377546,None,s,1,0.6798286180716673,488.6553670377546,None,None,None,,,,,,,19_JM,32,M,19,2021_Nov_04_1653,Partial repeat,2021.2.3,120.12486563748429,
2,2,0,1,1,3,3,3,3,0,0,1,1,1,1,0,0,77,77,77,1,0,1,0,,,,,,,,,0.9820872561618945,489.40472567062517,None,"[87. 87. 93. 93. 93. 93. 93. 87. 87. 93. 87. 93. 93. 93. 87. 93. 87. 87.
 87. 87. 93. 87. 93. 93. 93. 93. 93. 87. 87. 87. 87. 93. 93. 93.]",490.47053110875135,None,s,1,0.6568580691628654,490.47053110875135,None,None,None,,,,,,,19_JM,32,M,19,2021_Nov_04_1653,Partial repeat,2021.2.3,120.12486563748429,
2,2,0,1,1,3,3,3,3,0,0,1,1,1,1,0,0,77,77,77,,,,,,,,,,,,,,,,,,,,,,,,,,,,,,,,19_JM,32,M,19,2021_Nov_04_1653,Partial repeat,2021.2.3,120.12486563748429,
2,2,0,1,1,3,2,3,2,0,0,0,0,1,1,0,0,78,78,78,0,0,0,0,,,,,,,491.1366398231658,None,0.8524730928497201,492.2107500796197,None,"[87. 87. 87. 93. 87. 93. 87. 87. 87. 93. 93. 87. 93. 93. 87. 93. 93. 93.
 87. 87. 87. 87. 93. 87. 87. 93. 93. 87. 87. 93. 93. 87. 93. 93.]",493.1516554632548,None,s,1,0.6792930095676297,493.1516554632548,None,None,None,,,,,,,19_JM,32,M,19,2021_Nov_04_1653,Partial repeat,2021.2.3,120.12486563748429,
2,2,0,1,1,3,2,3,2,0,0,0,0,1,1,0,0,78,78,78,1,0,1,0,,,,,,,,,0.834234898466033,493.90103622605756,None,"[87. 93. 93. 93. 87. 93. 93. 87. 87. 93. 93. 93. 93. 87. 93. 87. 93. 87.
 93. 93. 87. 87. 93. 87. 93. 87. 93. 87. 87. 93. 87. 93. 87. 87.]",494.8252745635031,None,s,1,0.6697072209610155,494.8252745635031,None,None,None,,,,,,,19_JM,32,M,19,2021_Nov_04_1653,Partial repeat,2021.2.3,120.12486563748429,
2,2,0,1,1,3,2,3,2,0,0,0,0,1,1,0,0,78,78,78,,,,,,,,,,,,,,,,,,,,,,,,,,,,,,,,19_JM,32,M,19,2021_Nov_04_1653,Partial repeat,2021.2.3,120.12486563748429,
2,2,0,1,1,3,2,3,3,0,0,0,1,1,1,0,0,79,79,79,0,0,0,0,,,,,,,495.52471159727116,None,0.9396834609376377,496.3073793060759,None,"[87. 87. 93. 87. 87. 93. 93. 93. 87. 87. 93. 93. 87. 87. 93. 93. 93. 93.
 87. 87. 87. 93. 87. 87. 87. 93. 87. 93. 93. 93. 93. 93. 87. 87.]",497.33154679566604,None,s,1,0.6275910734551076,497.33154679566604,None,None,None,,,,,,,19_JM,32,M,19,2021_Nov_04_1653,Partial repeat,2021.2.3,120.12486563748429,
2,2,0,1,1,3,2,3,3,0,0,0,1,1,1,0,0,79,79,79,1,0,1,0,,,,,,,,,0.9221066481175215,498.0226325061763,None,"[87. 93. 87. 93. 93. 93. 87. 87. 87. 87. 93. 87. 93. 87. 93. 87. 93. 87.
 87. 87. 87. 93. 93. 93. 87. 93. 87. 87. 87. 93. 87. 87. 87. 93.]",499.02179734177815,None,s,1,0.7934263709535685,499.02179734177815,None,None,None,,,,,,,19_JM,32,M,19,2021_Nov_04_1653,Partial repeat,2021.2.3,120.12486563748429,
2,2,0,1,1,3,2,3,3,0,0,0,1,1,1,0,0,79,79,79,,,,,,,,,,,,,,,,,,,,,,,,,,,,,,,,19_JM,32,M,19,2021_Nov_04_1653,Partial repeat,2021.2.3,120.12486563748429,
2,2,0,1,1,3,3,2,2,1,0,1,1,0,1,0,0,80,80,80,0,0,0,0,,,,,,,499.83780106730416,None,0.9907183987367562,500.64547175082083,None,"[87. 87. 87. 87. 93. 87. 87. 87. 93. 93. 87. 87. 93. 93. 87. 87. 93. 87.
 93. 87. 87. 93. 93. 93. 87. 93. 93. 87. 87. 93. 87. 87. 93. 87.]",501.71958874247144,None,l,1,0.6868521453968128,501.71958874247144,None,None,None,,,,,,,19_JM,32,M,19,2021_Nov_04_1653,Partial repeat,2021.2.3,120.12486563748429,
2,2,0,1,1,3,3,2,2,1,0,1,1,0,1,0,0,80,80,80,1,0,1,0,,,,,,,,,0.8581657363272432,502.47728298314047,None,"[87. 87. 87. 87. 93. 87. 93. 87. 93. 87. 93. 93. 87. 93. 87. 93. 87. 87.
 93. 93. 93. 93. 93. 87. 87. 87. 87. 93. 87. 93. 93. 93. 93. 87.]",503.41820279934024,None,s,1,0.8282466967510231,503.41820279934024,None,None,None,,,,,,,19_JM,32,M,19,2021_Nov_04_1653,Partial repeat,2021.2.3,120.12486563748429,
2,2,0,1,1,3,3,2,2,1,0,1,1,0,1,0,0,80,80,80,,,,,,,,,,,,,,,,,,,,,,,,,,,,,,,,19_JM,32,M,19,2021_Nov_04_1653,Partial repeat,2021.2.3,120.12486563748429,
2,2,0,1,1,3,3,3,3,0,1,1,1,0,1,0,0,81,81,81,0,0,0,0,,,,,,,504.26747134093597,None,0.7614908994590973,505.2833202210813,None,"[93. 93. 93. 87. 93. 87. 87. 87. 93. 93. 93. 93. 93. 87. 93. 87. 87. 87.
 87. 93. 93. 93. 93. 87. 87. 93. 87. 87. 93. 87. 87. 87. 87. 87.]",506.1326243630028,None,s,1,0.9779454249854211,506.1326243630028,None,None,None,,,,,,,19_JM,32,M,19,2021_Nov_04_1653,Partial repeat,2021.2.3,120.12486563748429,
2,2,0,1,1,3,3,3,3,0,1,1,1,0,1,0,0,81,81,81,1,0,1,0,,,,,,,,,0.7233780710104296,507.1734245813514,None,"[87. 87. 93. 93. 93. 93. 93. 93. 93. 93. 87. 93. 93. 87. 93. 93. 93. 93.
 87. 87. 87. 93. 93. 87. 93. 93. 87. 93. 87. 93. 87. 87. 93. 93.]",507.9810930198025,None,l,1,0.8104635322411582,507.9810930198025,None,None,None,,,,,,,19_JM,32,M,19,2021_Nov_04_1653,Partial repeat,2021.2.3,120.12486563748429,
2,2,0,1,1,3,3,3,3,0,1,1,1,0,1,0,0,81,81,81,,,,,,,,,,,,,,,,,,,,,,,,,,,,,,,,19_JM,32,M,19,2021_Nov_04_1653,Partial repeat,2021.2.3,120.12486563748429,
2,2,0,1,1,2,2,3,2,1,1,1,0,1,1,0,0,82,82,82,0,0,0,0,,,,,,,508.8137374921784,None,0.8088236247850686,509.84622070470044,None,"[93. 93. 93. 93. 87. 93. 93. 93. 93. 87. 87. 93. 93. 87. 93. 87. 93. 87.
 87. 87. 93. 93. 87. 87. 93. 93. 87. 87. 87. 87. 93. 87. 87. 87.]",510.73715605996125,None,l,1,0.901616723008658,510.73715605996125,None,None,None,,,,,,,19_JM,32,M,19,2021_Nov_04_1653,Partial repeat,2021.2.3,120.12486563748429,
2,2,0,1,1,2,2,3,2,1,1,1,0,1,1,0,0,82,82,82,1,0,1,0,,,,,,,,,0.8066170258868322,511.70303234594274,None,"[87. 87. 87. 93. 87. 93. 93. 87. 93. 93. 93. 93. 93. 93. 93. 93. 93. 93.
 93. 93. 87. 93. 93. 93. 87. 93. 87. 93. 93. 93. 87. 93. 93. 93.]",512.5856436394565,None,l,1,0.6052125804135926,512.5856436394565,None,None,None,,,,,,,19_JM,32,M,19,2021_Nov_04_1653,Partial repeat,2021.2.3,120.12486563748429,
2,2,0,1,1,2,2,3,2,1,1,1,0,1,1,0,0,82,82,82,,,,,,,,,,,,,,,,,,,,,,,,,,,,,,,,19_JM,32,M,19,2021_Nov_04_1653,Partial repeat,2021.2.3,120.12486563748429,
2,2,0,1,1,2,3,2,3,1,0,0,0,0,1,0,0,83,83,83,0,0,0,0,,,,,,,513.2101134431641,None,0.9607883028966486,514.0011186841093,None,"[87. 87. 87. 93. 87. 87. 93. 93. 87. 93. 93. 87. 93. 93. 87. 93. 87. 93.
 87. 93. 93. 93. 93. 93. 93. 87. 87. 87. 93. 87. 87. 87. 93. 87.]",515.0419304485097,None,l,1,0.8690507637836049,515.0419304485097,None,None,None,,,,,,,19_JM,32,M,19,2021_Nov_04_1653,Partial repeat,2021.2.3,120.12486563748429,
2,2,0,1,1,2,3,2,3,1,0,0,0,0,1,0,0,83,83,83,1,0,1,0,,,,,,,,,0.7554914984741954,515.9828348699739,None,"[87. 93. 93. 87. 93. 87. 93. 93. 93. 87. 93. 87. 93. 93. 87. 87. 87. 87.
 87. 87. 87. 87. 87. 93. 93. 93. 93. 93. 93. 87. 93. 87. 87. 93.]",516.8154815874152,None,s,1,0.8231940162870046,516.8154815874152,None,None,None,,,,,,,19_JM,32,M,19,2021_Nov_04_1653,Partial repeat,2021.2.3,120.12486563748429,
2,2,0,1,1,2,3,2,3,1,0,0,0,0,1,0,0,83,83,83,,,,,,,,,,,,,,,,,,,,,,,,,,,,,,,,19_JM,32,M,19,2021_Nov_04_1653,Partial repeat,2021.2.3,120.12486563748429,
2,2,0,1,1,2,2,3,2,1,0,1,0,0,1,0,0,84,84,84,0,0,0,0,,,,,,,517.6647947095992,None,0.7448732556735741,518.5806984014171,None,"[93. 87. 93. 87. 87. 87. 87. 87. 87. 87. 93. 87. 93. 93. 87. 87. 87. 87.
 93. 87. 93. 87. 87. 87. 93. 87. 93. 87. 87. 93. 87. 87. 87. 87.]",519.4050223400061,None,l,1,0.6171669132137936,519.4050223400061,None,None,None,,,,,,,19_JM,32,M,19,2021_Nov_04_1653,Partial repeat,2021.2.3,120.12486563748429,
2,2,0,1,1,2,2,3,2,1,0,1,0,0,1,0,0,84,84,84,1,0,1,0,,,,,,,,,0.7121761370940564,520.0960929765047,None,"[93. 93. 87. 93. 87. 87. 93. 93. 93. 87. 87. 93. 87. 87. 93. 93. 87. 87.
 93. 87. 87. 87. 87. 87. 87. 87. 93. 93. 87. 93. 93. 93. 93. 87.]",520.8954479370893,None,s,1,1.750846457042087,520.8954479370893,None,None,None,,,,,,,19_JM,32,M,19,2021_Nov_04_1653,Partial repeat,2021.2.3,120.12486563748429,
2,2,0,1,1,2,2,3,2,1,0,1,0,0,1,0,0,84,84,84,,,,,,,,,,,,,,,,,,,,,,,,,,,,,,,,19_JM,32,M,19,2021_Nov_04_1653,Partial repeat,2021.2.3,120.12486563748429,
2,2,0,1,1,3,3,2,2,1,1,1,1,1,1,0,0,85,85,85,0,0,0,0,,,,,,,522.6690221680983,None,0.8131650352054874,523.6515103358008,None,"[93. 93. 87. 93. 87. 87. 87. 93. 87. 87. 87. 93. 87. 87. 93. 93. 93. 93.
 87. 93. 93. 87. 87. 87. 93. 87. 93. 87. 87. 87. 87. 93. 93. 87.]",524.5507614139935,None,l,1,0.7836548833506072,524.5507614139935,None,None,None,,,,,,,19_JM,32,M,19,2021_Nov_04_1653,Partial repeat,2021.2.3,120.12486563748429,
2,2,0,1,1,3,3,2,2,1,1,1,1,1,1,0,0,85,85,85,1,0,1,0,,,,,,,,,0.8096024983202268,525.4000809506506,None,"[87. 87. 93. 93. 87. 93. 93. 93. 93. 87. 87. 87. 87. 93. 93. 87. 87. 87.
 93. 87. 93. 93. 93. 87. 93. 93. 93. 87. 87. 93. 87. 93. 87. 93.]",526.2993487064734,None,l,1,0.7951948411882199,526.2993487064734,None,None,None,,,,,,,19_JM,32,M,19,2021_Nov_04_1653,Partial repeat,2021.2.3,120.12486563748429,
2,2,0,1,1,3,3,2,2,1,1,1,1,1,1,0,0,85,85,85,,,,,,,,,,,,,,,,,,,,,,,,,,,,,,,,19_JM,32,M,19,2021_Nov_04_1653,Partial repeat,2021.2.3,120.12486563748429,
2,2,0,1,1,3,3,3,2,1,1,1,0,1,1,0,0,86,86,86,0,0,0,0,,,,,,,527.1153286984488,None,0.885279672902976,528.0645241471236,None,"[93. 87. 93. 93. 93. 93. 87. 87. 87. 87. 87. 93. 93. 93. 87. 87. 87. 87.
 93. 93. 93. 87. 87. 87. 87. 93. 87. 87. 93. 87. 87. 93. 93. 93.]",529.038745021166,None,l,1,0.7919196112214308,529.038745021166,None,None,None,,,,,,,19_JM,32,M,19,2021_Nov_04_1653,Partial repeat,2021.2.3,120.12486563748429,
2,2,0,1,1,3,3,3,2,1,1,1,0,1,1,0,0,86,86,86,1,0,1,0,,,,,,,,,0.713622081252999,529.8963703383217,None,"[87. 93. 93. 87. 93. 93. 87. 87. 87. 87. 87. 93. 87. 93. 87. 87. 93. 87.
 87. 87. 93. 87. 87. 93. 93. 87. 93. 93. 87. 93. 93. 87. 87. 93.]",530.6956983581194,None,l,1,1.1021293035543636,530.6956983581194,None,None,None,,,,,,,19_JM,32,M,19,2021_Nov_04_1653,Partial repeat,2021.2.3,120.12486563748429,
2,2,0,1,1,3,3,3,2,1,1,1,0,1,1,0,0,86,86,86,,,,,,,,,,,,,,,,,,,,,,,,,,,,,,,,19_JM,32,M,19,2021_Nov_04_1653,Partial repeat,2021.2.3,120.12486563748429,
2,2,0,1,1,2,3,2,3,1,1,0,0,1,1,0,0,87,87,87,0,0,0,0,,,,,,,531.8114593920554,None,0.8407004443044906,532.544178240247,None,"[87. 93. 87. 93. 93. 87. 93. 93. 87. 93. 93. 93. 87. 87. 87. 87. 87. 87.
 93. 93. 93. 93. 87. 93. 93. 87. 93. 93. 93. 93. 93. 93. 87. 93.]",533.4684242750602,None,l,1,0.7945642984821575,533.4684242750602,None,None,None,,,,,,,19_JM,32,M,19,2021_Nov_04_1653,Partial repeat,2021.2.3,120.12486563748429,
2,2,0,1,1,2,3,2,3,1,1,0,0,1,1,0,0,87,87,87,1,0,1,0,,,,,,,,,0.7011236760890129,534.3260454228084,None,"[93. 93. 93. 87. 87. 87. 87. 93. 93. 93. 87. 87. 93. 87. 87. 87. 87. 93.
 87. 87. 93. 93. 93. 87. 93. 87. 93. 93. 93. 93. 87. 87. 87. 87.]",535.1170650963181,None,l,1,1.0814368547683557,535.1170650963181,None,None,None,,,,,,,19_JM,32,M,19,2021_Nov_04_1653,Partial repeat,2021.2.3,120.12486563748429,
2,2,0,1,1,2,3,2,3,1,1,0,0,1,1,0,0,87,87,87,,,,,,,,,,,,,,,,,,,,,,,,,,,,,,,,19_JM,32,M,19,2021_Nov_04_1653,Partial repeat,2021.2.3,120.12486563748429,
2,2,0,1,1,2,3,3,2,0,0,0,0,1,1,0,0,88,88,88,0,0,0,0,,,,,,,536.2078135338327,None,0.8444672527833985,537.0154813308363,None,"[87. 87. 87. 87. 87. 93. 93. 93. 87. 93. 93. 87. 87. 93. 93. 87. 87. 87.
 87. 93. 93. 87. 87. 87. 93. 93. 93. 87. 87. 93. 87. 87. 93. 93.]",537.9397472505163,None,s,1,0.7063162225835526,537.9397472505163,None,None,None,,,,,,,19_JM,32,M,19,2021_Nov_04_1653,Partial repeat,2021.2.3,120.12486563748429,
2,2,0,1,1,2,3,3,2,0,0,0,0,1,1,0,0,88,88,88,1,0,1,0,,,,,,,,,0.9235448213926041,538.7057889657592,None,"[87. 93. 87. 87. 87. 93. 87. 93. 93. 87. 87. 87. 93. 93. 87. 93. 93. 87.
 93. 93. 87. 93. 87. 87. 93. 93. 87. 93. 93. 87. 93. 93. 93. 93.]",539.7132878055413,None,s,1,0.7739927625140695,539.7132878055413,None,None,None,,,,,,,19_JM,32,M,19,2021_Nov_04_1653,Partial repeat,2021.2.3,120.12486563748429,
2,2,0,1,1,2,3,3,2,0,0,0,0,1,1,0,0,88,88,88,,,,,,,,,,,,,,,,,,,,,,,,,,,,,,,,19_JM,32,M,19,2021_Nov_04_1653,Partial repeat,2021.2.3,120.12486563748429,
2,2,0,1,1,2,2,2,2,1,0,1,1,0,1,0,0,89,89,89,0,0,0,0,,,,,,,540.5042911221447,None,0.8250504294411778,541.3369423297174,None,"[87. 87. 87. 87. 93. 87. 87. 87. 93. 93. 93. 87. 87. 93. 87. 87. 93. 87.
 87. 93. 87. 87. 93. 87. 93. 93. 93. 87. 93. 93. 93. 93. 93. 87.]",542.2445226012355,None,l,1,0.9457470150692302,542.2445226012355,None,None,None,,,,,,,19_JM,32,M,19,2021_Nov_04_1653,Partial repeat,2021.2.3,120.12486563748429,
2,2,0,1,1,2,2,2,2,1,0,1,1,0,1,0,0,89,89,89,1,0,1,0,,,,,,,,,0.9327569924460862,543.260356407369,None,"[87. 93. 93. 93. 93. 93. 87. 93. 87. 87. 93. 87. 93. 87. 87. 87. 93. 87.
 93. 93. 87. 93. 87. 87. 93. 93. 87. 93. 87. 93. 87. 87. 93. 87.]",544.2761956658046,None,s,1,0.802151657993079,544.2761956658046,None,None,None,,,,,,,19_JM,32,M,19,2021_Nov_04_1653,Partial repeat,2021.2.3,120.12486563748429,
2,2,0,1,1,2,2,2,2,1,0,1,1,0,1,0,0,89,89,89,,,,,,,,,,,,,,,,,,,,,,,,,,,,,,,,19_JM,32,M,19,2021_Nov_04_1653,Partial repeat,2021.2.3,120.12486563748429,
2,2,0,1,1,2,2,2,3,0,1,1,0,0,1,0,0,90,90,90,0,0,0,0,,,,,,,545.1088250641687,None,0.7181191177190559,545.9414730645049,None,"[87. 93. 87. 93. 93. 87. 93. 87. 93. 93. 93. 93. 87. 87. 93. 93. 93. 93.
 93. 93. 87. 93. 93. 93. 87. 87. 93. 93. 87. 93. 87. 93. 93. 87.]",546.7408158375906,None,s,1,0.9927782525911084,546.7408158375906,None,None,None,,,,,,,19_JM,32,M,19,2021_Nov_04_1653,Partial repeat,2021.2.3,120.12486563748429,
2,2,0,1,1,2,2,2,3,0,1,1,0,0,1,0,0,90,90,90,1,0,1,0,,,,,,,,,0.8845225482368477,547.8065875997331,None,"[87. 87. 93. 93. 87. 87. 93. 93. 87. 93. 87. 93. 93. 87. 87. 87. 87. 93.
 93. 87. 87. 93. 93. 93. 93. 87. 93. 87. 93. 93. 87. 93. 87. 87.]",548.7724651686092,None,s,0,0.625641715078757,548.7724651686092,None,549.4219379470287,None,,,,,,,19_JM,32,M,19,2021_Nov_04_1653,Partial repeat,2021.2.3,120.12486563748429,
2,2,0,1,1,2,2,2,3,0,1,1,0,0,1,0,0,90,90,90,,,,,,,,,,,,,,,,,,,,,,,,,,,,,,,,19_JM,32,M,19,2021_Nov_04_1653,Partial repeat,2021.2.3,120.12486563748429,
2,2,0,1,1,3,2,2,2,1,0,0,1,0,1,0,0,91,91,91,0,0,0,0,,,,,,,549.9215192422969,None,0.913989544190386,551.1871602133326,None,"[87. 93. 87. 93. 93. 93. 93. 93. 93. 93. 87. 87. 93. 87. 87. 93. 93. 93.
 93. 87. 87. 87. 87. 87. 87. 93. 93. 87. 87. 93. 87. 87. 93. 87.]",552.186328256171,None,l,1,1.77145680057248,552.186328256171,None,None,None,,,,,,,19_JM,32,M,19,2021_Nov_04_1653,Partial repeat,2021.2.3,120.12486563748429,
2,2,0,1,1,3,2,2,2,1,0,0,1,0,1,0,0,91,91,91,1,0,1,0,,,,,,,,,0.919799703233987,554.0265017163526,None,"[93. 93. 93. 87. 87. 93. 93. 93. 87. 93. 87. 87. 93. 93. 93. 93. 87. 93.
 87. 93. 87. 93. 87. 93. 93. 93. 87. 93. 87. 93. 93. 93. 87. 87.]",555.0339768225842,None,s,1,0.7318775771790911,555.0339768225842,None,None,None,,,,,,,19_JM,32,M,19,2021_Nov_04_1653,Partial repeat,2021.2.3,120.12486563748429,
2,2,0,1,1,3,2,2,2,1,0,0,1,0,1,0,0,91,91,91,,,,,,,,,,,,,,,,,,,,,,,,,,,,,,,,19_JM,32,M,19,2021_Nov_04_1653,Partial repeat,2021.2.3,120.12486563748429,
2,2,0,1,1,2,2,3,3,0,1,1,1,0,1,0,0,92,92,92,0,0,0,0,,,,,,,555.7916540648996,None,0.7093698968600614,556.4827907704712,None,"[87. 87. 87. 93. 93. 93. 93. 93. 87. 87. 93. 93. 87. 93. 93. 87. 87. 93.
 87. 93. 93. 93. 87. 87. 93. 87. 93. 93. 93. 93. 93. 87. 93. 87.]",557.2821319399388,None,s,1,0.9318516627078566,557.2821319399388,None,None,None,,,,,,,19_JM,32,M,19,2021_Nov_04_1653,Partial repeat,2021.2.3,120.12486563748429,
2,2,0,1,1,2,2,3,3,0,1,1,1,0,1,0,0,92,92,92,1,0,1,0,,,,,,,,,0.7057889140445225,558.2729653371496,None,"[93. 93. 87. 93. 93. 87. 87. 93. 87. 87. 87. 87. 93. 87. 87. 93. 87. 87.
 93. 87. 93. 87. 93. 93. 93. 87. 87. 87. 93. 87. 93. 87. 93. 87.]",559.0556949456197,None,l,1,0.7587186191589694,559.0556949456197,None,None,None,,,,,,,19_JM,32,M,19,2021_Nov_04_1653,Partial repeat,2021.2.3,120.12486563748429,
2,2,0,1,1,2,2,3,3,0,1,1,1,0,1,0,0,92,92,92,,,,,,,,,,,,,,,,,,,,,,,,,,,,,,,,19_JM,32,M,19,2021_Nov_04_1653,Partial repeat,2021.2.3,120.12486563748429,
2,2,0,1,1,3,3,2,2,0,1,1,1,0,1,0,0,93,93,93,0,0,0,0,,,,,,,559.8383572021223,None,0.7944240368150124,560.6293521799105,None,"[93. 93. 93. 87. 93. 93. 87. 93. 87. 93. 87. 87. 87. 87. 93. 93. 93. 87.
 87. 87. 87. 87. 93. 87. 87. 87. 93. 87. 87. 93. 87. 87. 87. 87.]",561.511983358291,None,s,1,0.9101899870357215,561.511983358291,None,None,None,,,,,,,19_JM,32,M,19,2021_Nov_04_1653,Partial repeat,2021.2.3,120.12486563748429,
2,2,0,1,1,3,3,2,2,0,1,1,1,0,1,0,0,93,93,93,1,0,1,0,,,,,,,,,0.789358789431349,562.5028443377362,None,"[87. 87. 87. 93. 93. 93. 93. 93. 87. 93. 93. 87. 87. 93. 93. 87. 93. 93.
 87. 87. 93. 87. 87. 87. 87. 87. 93. 93. 93. 93. 87. 93. 93. 93.]",563.3770921204932,None,l,1,0.853134852394362,563.3770921204932,None,None,None,,,,,,,19_JM,32,M,19,2021_Nov_04_1653,Partial repeat,2021.2.3,120.12486563748429,
2,2,0,1,1,3,3,2,2,0,1,1,1,0,1,0,0,93,93,93,,,,,,,,,,,,,,,,,,,,,,,,,,,,,,,,19_JM,32,M,19,2021_Nov_04_1653,Partial repeat,2021.2.3,120.12486563748429,
2,2,0,1,1,2,2,2,2,1,1,1,1,1,1,0,0,94,94,94,0,0,0,0,,,,,,,564.2596982824286,None,0.8069179827128155,565.0757026494018,None,"[93. 87. 93. 93. 93. 93. 93. 87. 87. 93. 87. 93. 93. 87. 87. 93. 93. 87.
 93. 93. 93. 93. 93. 87. 87. 93. 87. 93. 87. 93. 93. 93. 93. 87.]",565.966635759597,None,l,1,0.8227639258654449,565.966635759597,None,None,None,,,,,,,19_JM,32,M,19,2021_Nov_04_1653,Partial repeat,2021.2.3,120.12486563748429,
2,2,0,1,1,2,2,2,2,1,1,1,1,1,1,0,0,94,94,94,1,0,1,0,,,,,,,,,0.8034573849344057,566.8575666247268,None,"[87. 93. 87. 93. 87. 93. 93. 87. 87. 87. 93. 93. 87. 93. 87. 93. 87. 87.
 93. 87. 93. 93. 93. 87. 93. 87. 87. 87. 87. 93. 87. 87. 87. 93.]",567.748509035908,None,l,1,0.9769588790221064,567.748509035908,None,None,None,,,,,,,19_JM,32,M,19,2021_Nov_04_1653,Partial repeat,2021.2.3,120.12486563748429,
2,2,0,1,1,2,2,2,2,1,1,1,1,1,1,0,0,94,94,94,,,,,,,,,,,,,,,,,,,,,,,,,,,,,,,,19_JM,32,M,19,2021_Nov_04_1653,Partial repeat,2021.2.3,120.12486563748429,
2,2,0,1,1,3,2,2,2,0,0,0,1,1,1,0,0,95,95,95,0,0,0,0,,,,,,,568.7476818896012,None,0.7318385257608507,569.4387813912288,None,"[93. 93. 87. 93. 87. 93. 87. 93. 87. 87. 93. 93. 87. 87. 87. 93. 93. 87.
 93. 93. 87. 93. 87. 87. 87. 87. 93. 87. 87. 93. 93. 87. 93. 87.]",570.254777419387,None,s,1,0.8227988847438041,570.254777419387,None,None,None,,,,,,,19_JM,32,M,19,2021_Nov_04_1653,Partial repeat,2021.2.3,120.12486563748429,
2,2,0,1,1,3,2,2,2,0,0,0,1,1,1,0,0,95,95,95,1,0,1,0,,,,,,,,,0.7545595107027026,571.1373797326382,None,"[93. 93. 93. 87. 87. 87. 87. 87. 87. 93. 93. 87. 93. 93. 93. 87. 87. 93.
 87. 93. 87. 87. 87. 87. 93. 87. 93. 87. 93. 87. 87. 93. 87. 93.]",571.9783550019581,None,s,1,0.9073150201905378,571.9783550019581,None,None,None,,,,,,,19_JM,32,M,19,2021_Nov_04_1653,Partial repeat,2021.2.3,120.12486563748429,
2,2,0,1,1,3,2,2,2,0,0,0,1,1,1,0,0,95,95,95,,,,,,,,,,,,,,,,,,,,,,,,,,,,,,,,19_JM,32,M,19,2021_Nov_04_1653,Partial repeat,2021.2.3,120.12486563748429,
2,2,0,1,1,2,3,3,2,0,1,0,0,0,1,0,0,96,96,96,0,0,0,0,,,,,,,572.9025680022348,None,0.9820093870059392,573.8934482250993,None,"[93. 87. 93. 87. 87. 87. 87. 87. 93. 93. 87. 93. 93. 87. 93. 93. 93. 87.
 87. 93. 93. 87. 93. 87. 87. 93. 87. 93. 93. 93. 93. 93. 87. 93.]",574.9592264017147,None,s,1,0.9345858318683327,574.9592264017147,None,None,None,,,,,,,19_JM,32,M,19,2021_Nov_04_1653,Partial repeat,2021.2.3,120.12486563748429,
2,2,0,1,1,2,3,3,2,0,1,0,0,0,1,0,0,96,96,96,1,0,1,0,,,,,,,,,0.9086532164560026,575.9583989346843,None,"[87. 93. 87. 93. 93. 87. 87. 93. 93. 93. 87. 93. 93. 87. 87. 87. 87. 93.
 87. 87. 93. 87. 93. 93. 87. 87. 93. 87. 93. 87. 87. 87. 93. 93.]",576.9575958426517,None,l,1,1.0643092494098596,576.9575958426517,None,None,None,,,,,,,19_JM,32,M,19,2021_Nov_04_1653,Partial repeat,2021.2.3,120.12486563748429,
2,2,0,1,1,2,3,3,2,0,1,0,0,0,1,0,0,96,96,96,,,,,,,,,,,,,,,,,,,,,,,,,,,,,,,,19_JM,32,M,19,2021_Nov_04_1653,Partial repeat,2021.2.3,120.12486563748429,
2,2,0,1,1,3,3,3,2,0,0,1,0,1,1,0,0,97,97,97,0,0,0,0,,,,,,,578.0400093138148,None,0.9752095015742062,578.8976705520199,None,"[93. 93. 87. 93. 87. 93. 87. 93. 93. 87. 87. 93. 87. 87. 87. 93. 87. 87.
 93. 87. 93. 87. 93. 87. 87. 93. 93. 87. 87. 87. 93. 87. 93. 93.]",579.9634346167945,None,s,1,0.9216411044208712,579.9634346167945,None,None,None,,,,,,,19_JM,32,M,19,2021_Nov_04_1653,Partial repeat,2021.2.3,120.12486563748429,
2,2,0,1,1,3,3,3,2,0,0,1,0,1,1,0,0,97,97,97,1,0,1,0,,,,,,,,,0.9062025756592502,580.9626068290404,None,"[87. 87. 87. 93. 93. 93. 87. 93. 87. 87. 87. 87. 87. 87. 93. 87. 87. 93.
 87. 87. 87. 93. 93. 93. 93. 93. 93. 87. 87. 93. 93. 87. 93. 93.]",581.9534732607879,None,s,1,1.0276745898948434,581.9534732607879,None,None,None,,,,,,,19_JM,32,M,19,2021_Nov_04_1653,Partial repeat,2021.2.3,120.12486563748429,
2,2,0,1,1,3,3,3,2,0,0,1,0,1,1,0,0,97,97,97,,,,,,,,,,,,,,,,,,,,,,,,,,,,,,,,19_JM,32,M,19,2021_Nov_04_1653,Partial repeat,2021.2.3,120.12486563748429,
2,2,0,1,1,3,3,2,3,1,0,1,0,0,1,0,0,98,98,98,0,0,0,0,,,,,,,583.0026013895674,None,0.7147473764573693,584.3847872431525,None,"[93. 87. 87. 87. 87. 93. 87. 87. 87. 93. 87. 93. 93. 87. 93. 93. 87. 87.
 93. 87. 93. 87. 87. 93. 87. 87. 93. 87. 93. 87. 93. 87. 93. 93.]",585.1841466938683,None,l,1,0.9331461033801247,585.1841466938683,None,None,None,,,,,,,19_JM,32,M,19,2021_Nov_04_1653,Partial repeat,2021.2.3,120.12486563748429,
2,2,0,1,1,3,3,2,3,1,0,1,0,0,1,0,0,98,98,98,1,0,1,0,,,,,,,,,0.7927734094692013,586.18329132388,None,"[87. 93. 93. 87. 87. 87. 87. 87. 93. 87. 93. 93. 87. 87. 87. 93. 93. 87.
 87. 87. 87. 93. 93. 93. 93. 87. 87. 93. 93. 87. 93. 93. 87. 87.]",587.074234697232,None,s,1,1.2351571369153476,587.074234697232,None,None,None,,,,,,,19_JM,32,M,19,2021_Nov_04_1653,Partial repeat,2021.2.3,120.12486563748429,
2,2,0,1,1,3,3,2,3,1,0,1,0,0,1,0,0,98,98,98,,,,,,,,,,,,,,,,,,,,,,,,,,,,,,,,19_JM,32,M,19,2021_Nov_04_1653,Partial repeat,2021.2.3,120.12486563748429,
2,2,0,1,1,3,3,2,3,0,0,1,0,1,1,0,0,99,99,99,0,0,0,0,,,,,,,588.3398596320851,None,0.7056810832993317,589.364017179242,None,"[93. 87. 93. 87. 87. 87. 87. 93. 87. 87. 93. 93. 87. 87. 87. 93. 87. 87.
 93. 87. 87. 93. 93. 87. 93. 87. 93. 93. 93. 93. 87. 87. 93. 93.]",590.1550400599881,None,s,1,0.7625057240795172,590.1550400599881,None,None,None,,,,,,,19_JM,32,M,19,2021_Nov_04_1653,Partial repeat,2021.2.3,120.12486563748429,
2,2,0,1,1,3,3,2,3,0,0,1,0,1,1,0,0,99,99,99,1,0,1,0,,,,,,,,,0.7902320299961582,590.979352131802,None,"[93. 93. 93. 87. 87. 87. 87. 93. 87. 93. 87. 93. 87. 87. 93. 93. 87. 93.
 87. 93. 87. 87. 93. 93. 87. 87. 93. 93. 93. 87. 93. 93. 93. 87.]",591.853641929358,None,s,1,1.0159697800983736,591.853641929358,None,None,None,,,,,,,19_JM,32,M,19,2021_Nov_04_1653,Partial repeat,2021.2.3,120.12486563748429,
2,2,0,1,1,3,3,2,3,0,0,1,0,1,1,0,0,99,99,99,,,,,,,,,,,,,,,,,,,,,,,,,,,,,,,,19_JM,32,M,19,2021_Nov_04_1653,Partial repeat,2021.2.3,120.12486563748429,
2,2,0,1,1,3,2,2,2,0,1,0,1,0,1,0,0,100,100,100,0,0,0,0,,,,,,,592.8861139165522,None,0.9246144923600178,593.652149217322,None,"[93. 93. 87. 87. 87. 87. 87. 87. 87. 93. 87. 93. 93. 87. 87. 87. 93. 93.
 87. 93. 87. 93. 93. 87. 93. 93. 87. 87. 93. 93. 87. 87. 93. 87.]",594.6596249650011,None,s,1,0.6902777947579466,594.6596249650011,None,None,None,,,,,,,19_JM,32,M,19,2021_Nov_04_1653,Partial repeat,2021.2.3,120.12486563748429,
2,2,0,1,1,3,2,2,2,0,1,0,1,0,1,0,0,100,100,100,1,0,1,0,,,,,,,,,0.7766100554024027,595.409038120893,None,"[87. 93. 87. 93. 87. 87. 93. 93. 87. 87. 93. 87. 93. 93. 93. 93. 87. 93.
 87. 93. 93. 93. 93. 93. 93. 87. 93. 87. 93. 87. 93. 93. 93. 93.]",596.2749894241374,None,l,1,0.8498083066426148,596.2749894241374,None,None,None,,,,,,,19_JM,32,M,19,2021_Nov_04_1653,Partial repeat,2021.2.3,120.12486563748429,
2,2,0,1,1,3,2,2,2,0,1,0,1,0,1,0,0,100,100,100,,,,,,,,,,,,,,,,,,,,,,,,,,,,,,,,19_JM,32,M,19,2021_Nov_04_1653,Partial repeat,2021.2.3,120.12486563748429,
2,2,0,1,1,2,2,2,3,0,0,1,0,1,1,0,0,101,101,101,0,0,0,0,,,,,,,597.1492429799205,None,0.7088930002886031,598.1650867284873,None,"[93. 93. 87. 87. 87. 93. 87. 87. 93. 87. 87. 87. 93. 87. 93. 87. 93. 87.
