prime_tar_pos,probe_tar_pos,dimension,tar_color,tar_shape,prime_dist_color,probe_dist_color,prime_dist_shape,probe_dist_shape,prime_tar_ori,probe_tar_ori,col_rep,shape_rep,resp_rep,pos_fixed,sparse,MainLoop.thisRepN,MainLoop.thisTrialN,MainLoop.thisN,MainLoop.thisIndex,PrimeProbe.thisRepN,PrimeProbe.thisTrialN,PrimeProbe.thisN,PrimeProbe.thisIndex,Instruction.started,Instruction.stopped,instruction_key.keys,instruction_key.rt,instruction_key.started,instruction_key.stopped,PairStartText.started,PairStartText.stopped,fixdur,FixCross.started,FixCross.stopped,dist_ori,SearchFixCross.started,SearchFixCross.stopped,key_resp.keys,key_resp.corr,key_resp.rt,key_resp.started,key_resp.stopped,feedback_text.started,feedback_text.stopped,text_finish.started,text_finish.stopped,finish_key.keys,finish_key.rt,finish_key.started,finish_key.stopped,participant,age,gender,group,date,expName,psychopyVersion,frameRate,
,,,,,,,,,,,,,,,,,,,,,,,,47.69424793604708,None,space,2.3122699845930583,47.69424793604708,None,,,,,,,,,,,,,,,,,,,,,,20_YC,24,F,20,2021_Nov_05_0950,Partial repeat,2021.2.3,120.10407839379704,
2,2,0,1,1,2,2,3,3,1,0,1,1,0,1,0,0,0,0,0,0,0,0,0,,,,,,,91.36622134503455,None,0.9345831558391748,95.81138187185184,None,"[93. 93. 87. 93. 87. 87. 93. 87. 93. 93. 93. 93. 87. 87. 93. 93. 87. 93.
 93. 93. 93. 87. 87. 93. 87. 93. 93. 93. 93. 93. 87. 87. 93. 87.]",96.83552904607564,None,l,1,12.624982497493875,96.83552904607564,None,None,None,,,,,,,20_YC,24,F,20,2021_Nov_05_0950,Partial repeat,2021.2.3,120.10407839379704,
2,2,0,1,1,2,2,3,3,1,0,1,1,0,1,0,0,0,0,0,1,0,1,0,,,,,,,,,0.8097261843377098,109.5329870053231,None,"[93. 87. 87. 87. 87. 93. 93. 87. 93. 87. 93. 87. 87. 87. 93. 93. 87. 87.
 87. 87. 87. 93. 87. 87. 87. 93. 87. 87. 93. 93. 93. 87. 93. 93.]",110.42389945497916,None,s,1,0.5397060134391722,110.42389945497916,None,None,None,,,,,,,20_YC,24,F,20,2021_Nov_05_0950,Partial repeat,2021.2.3,120.10407839379704,
2,2,0,1,1,2,2,3,3,1,0,1,1,0,1,0,0,0,0,0,,,,,,,,,,,,,,,,,,,,,,,,,,,,,,,,20_YC,24,F,20,2021_Nov_05_0950,Partial repeat,2021.2.3,120.10407839379704,
2,2,0,1,1,3,3,3,3,1,0,1,1,0,1,0,0,1,1,1,0,0,0,0,,,,,,,110.98174626031823,None,0.9503095200419954,111.14829223173751,None,"[93. 87. 93. 87. 87. 93. 93. 93. 93. 87. 93. 93. 87. 87. 87. 93. 93. 93.
 93. 87. 93. 87. 87. 87. 87. 93. 87. 87. 87. 87. 93. 87. 93. 93.]",112.18906616515596,None,s,0,0.550486803716467,112.18906616515596,None,112.76356025536506,None,,,,,,,20_YC,24,F,20,2021_Nov_05_0950,Partial repeat,2021.2.3,120.10407839379704,
2,2,0,1,1,3,3,3,3,1,0,1,1,0,1,0,0,1,1,1,1,0,1,0,,,,,,,,,0.7966597459878583,113.31310185930533,None,"[93. 87. 93. 93. 93. 93. 93. 87. 93. 87. 87. 93. 87. 93. 93. 87. 87. 93.
 93. 93. 93. 93. 93. 93. 87. 93. 87. 87. 93. 93. 93. 87. 93. 93.]",114.18736509980931,None,s,1,0.6322283816145955,114.18736509980931,None,None,None,,,,,,,20_YC,24,F,20,2021_Nov_05_0950,Partial repeat,2021.2.3,120.10407839379704,
2,2,0,1,1,3,3,3,3,1,0,1,1,0,1,0,0,1,1,1,,,,,,,,,,,,,,,,,,,,,,,,,,,,,,,,20_YC,24,F,20,2021_Nov_05_0950,Partial repeat,2021.2.3,120.10407839379704,
2,2,0,1,1,3,3,3,3,0,1,1,1,0,1,0,0,2,2,2,0,0,0,0,,,,,,,114.83679522367538,None,0.7508182186813938,115.01164864148882,None,"[93. 93. 87. 93. 93. 87. 87. 93. 87. 93. 93. 93. 87. 93. 87. 87. 87. 93.
 87. 93. 93. 93. 93. 87. 93. 93. 93. 93. 87. 87. 87. 87. 87. 93.]",115.84427811520413,None,s,1,0.5911571466169789,115.84427811520413,None,None,None,,,,,,,20_YC,24,F,20,2021_Nov_05_0950,Partial repeat,2021.2.3,120.10407839379704,
2,2,0,1,1,3,3,3,3,0,1,1,1,0,1,0,0,2,2,2,1,0,1,0,,,,,,,,,0.76763683664496,116.50205032254166,None,"[93. 93. 87. 93. 87. 93. 93. 87. 87. 93. 93. 87. 93. 87. 87. 93. 93. 87.
 93. 87. 87. 93. 93. 93. 87. 93. 87. 93. 93. 87. 93. 87. 93. 93.]",117.3513187425715,None,l,1,0.5723222737510696,117.3513187425715,None,None,None,,,,,,,20_YC,24,F,20,2021_Nov_05_0950,Partial repeat,2021.2.3,120.10407839379704,
2,2,0,1,1,3,3,3,3,0,1,1,1,0,1,0,0,2,2,2,,,,,,,,,,,,,,,,,,,,,,,,,,,,,,,,20_YC,24,F,20,2021_Nov_05_0950,Partial repeat,2021.2.3,120.10407839379704,
2,2,0,1,1,2,3,3,2,0,1,0,0,0,1,0,0,3,3,3,0,0,0,0,,,,,,,117.95081246395966,None,0.7930916783537274,118.09236553918709,None,"[93. 93. 87. 93. 87. 93. 93. 93. 93. 93. 93. 87. 93. 87. 87. 93. 87. 87.
 93. 87. 93. 87. 93. 93. 93. 93. 87. 87. 87. 93. 87. 93. 87. 87.]",118.9665938219,None,s,1,0.5571294254095847,118.9665938219,None,None,None,,,,,,,20_YC,24,F,20,2021_Nov_05_0950,Partial repeat,2021.2.3,120.10407839379704,
2,2,0,1,1,2,3,3,2,0,1,0,0,0,1,0,0,3,3,3,1,0,1,0,,,,,,,,,0.8195256849906056,119.58273963886359,None,"[87. 93. 87. 87. 87. 93. 87. 93. 87. 93. 93. 87. 87. 87. 87. 87. 93. 87.
 93. 93. 87. 93. 87. 87. 93. 87. 87. 87. 87. 87. 93. 87. 87. 93.]",120.48198487129434,None,l,1,0.609708508591666,120.48198487129434,None,None,None,,,,,,,20_YC,24,F,20,2021_Nov_05_0950,Partial repeat,2021.2.3,120.10407839379704,
2,2,0,1,1,2,3,3,2,0,1,0,0,0,1,0,0,3,3,3,,,,,,,,,,,,,,,,,,,,,,,,,,,,,,,,20_YC,24,F,20,2021_Nov_05_0950,Partial repeat,2021.2.3,120.10407839379704,
2,2,0,1,1,3,2,3,2,1,0,0,0,0,1,0,0,4,4,4,0,0,0,0,,,,,,,121.1147680310039,None,0.8313572677739224,121.26461989335621,None,"[87. 87. 87. 87. 87. 93. 87. 87. 87. 87. 93. 93. 87. 87. 93. 93. 87. 93.
 93. 87. 87. 87. 87. 87. 93. 93. 93. 93. 87. 87. 93. 93. 93. 93.]",122.17222228280139,None,l,1,0.48749061956755213,122.17222228280139,None,None,None,,,,,,,20_YC,24,F,20,2021_Nov_05_0950,Partial repeat,2021.2.3,120.10407839379704,
2,2,0,1,1,3,2,3,2,1,0,0,0,0,1,0,0,4,4,4,1,0,1,0,,,,,,,,,0.8809117822874765,122.73002996107175,None,"[87. 93. 93. 87. 87. 93. 93. 93. 87. 87. 87. 87. 93. 93. 87. 93. 87. 93.
 93. 93. 87. 87. 93. 87. 87. 87. 87. 93. 93. 87. 87. 93. 93. 87.]",123.68756747013981,None,s,1,0.5561733779361475,123.68756747013981,None,None,None,,,,,,,20_YC,24,F,20,2021_Nov_05_0950,Partial repeat,2021.2.3,120.10407839379704,
2,2,0,1,1,3,2,3,2,1,0,0,0,0,1,0,0,4,4,4,,,,,,,,,,,,,,,,,,,,,,,,,,,,,,,,20_YC,24,F,20,2021_Nov_05_0950,Partial repeat,2021.2.3,120.10407839379704,
2,2,0,1,1,3,3,2,3,1,1,1,0,1,1,0,0,5,5,5,0,0,0,0,,,,,,,124.26207535103708,None,0.9826603257583855,124.3952972470579,None,"[93. 93. 87. 93. 87. 93. 87. 87. 87. 93. 87. 87. 93. 87. 93. 87. 93. 93.
 93. 87. 93. 93. 93. 87. 87. 87. 87. 87. 87. 87. 93. 93. 87. 87.]",125.45271814463285,None,l,1,0.5181399428938676,125.45271814463285,None,None,None,,,,,,,20_YC,24,F,20,2021_Nov_05_0950,Partial repeat,2021.2.3,120.10407839379704,
2,2,0,1,1,3,3,2,3,1,1,1,0,1,1,0,0,5,5,5,1,0,1,0,,,,,,,,,0.8081204661237678,126.0355697125699,None,"[93. 93. 87. 93. 87. 93. 93. 87. 87. 87. 87. 93. 93. 93. 87. 87. 93. 93.
 87. 93. 87. 87. 93. 87. 87. 87. 93. 87. 87. 87. 93. 93. 93. 93.]",126.91815066230583,None,l,1,0.4935553152133707,126.91815066230583,None,None,None,,,,,,,20_YC,24,F,20,2021_Nov_05_0950,Partial repeat,2021.2.3,120.10407839379704,
2,2,0,1,1,3,3,2,3,1,1,1,0,1,1,0,0,5,5,5,,,,,,,,,,,,,,,,,,,,,,,,,,,,,,,,20_YC,24,F,20,2021_Nov_05_0950,Partial repeat,2021.2.3,120.10407839379704,
2,2,0,1,1,3,2,3,2,1,1,0,0,1,1,0,0,6,6,6,0,0,0,0,,,,,,,127.43436658727933,None,0.7707383925921358,127.56759746328316,None,"[93. 93. 87. 93. 87. 87. 87. 87. 87. 87. 87. 93. 87. 87. 87. 87. 93. 93.
 87. 93. 87. 93. 87. 93. 87. 87. 93. 87. 87. 93. 87. 93. 87. 93.]",128.42519128967297,None,l,1,0.5377506221461772,128.42519128967297,None,None,None,,,,,,,20_YC,24,F,20,2021_Nov_05_0950,Partial repeat,2021.2.3,120.10407839379704,
2,2,0,1,1,3,2,3,2,1,1,0,0,1,1,0,0,6,6,6,1,0,1,0,,,,,,,,,0.8361605791618701,129.02465903325356,None,"[93. 93. 87. 87. 93. 93. 87. 87. 93. 87. 93. 87. 87. 87. 87. 93. 87. 93.
 93. 93. 93. 87. 87. 87. 93. 87. 87. 93. 93. 93. 93. 93. 93. 87.]",129.94057175551598,None,s,0,0.5902706940116786,129.94057175551598,None,130.5483709990167,None,,,,,,,20_YC,24,F,20,2021_Nov_05_0950,Partial repeat,2021.2.3,120.10407839379704,
2,2,0,1,1,3,2,3,2,1,1,0,0,1,1,0,0,6,6,6,,,,,,,,,,,,,,,,,,,,,,,,,,,,,,,,20_YC,24,F,20,2021_Nov_05_0950,Partial repeat,2021.2.3,120.10407839379704,
2,2,0,1,1,3,2,2,3,0,0,0,0,1,1,0,0,7,7,7,0,0,0,0,,,,,,,131.0479502226715,None,0.803202576150704,131.73901315118496,None,"[93. 87. 87. 87. 87. 87. 93. 93. 93. 93. 87. 93. 93. 87. 87. 93. 87. 93.
 87. 87. 93. 93. 87. 87. 93. 87. 87. 93. 93. 93. 93. 87. 87. 93.]",132.62161206088672,None,s,1,0.6932778337395575,132.62161206088672,None,None,None,,,,,,,20_YC,24,F,20,2021_Nov_05_0950,Partial repeat,2021.2.3,120.10407839379704,
2,2,0,1,1,3,2,2,3,0,0,0,0,1,1,0,0,7,7,7,1,0,1,0,,,,,,,,,0.9452330520198813,133.37928240956035,None,"[93. 87. 87. 93. 87. 93. 87. 87. 87. 87. 87. 87. 87. 93. 93. 93. 93. 93.
 93. 87. 87. 93. 87. 87. 93. 87. 93. 93. 93. 93. 93. 93. 87. 87.]",134.40341290667288,None,s,1,0.54338331646818,134.40341290667288,None,None,None,,,,,,,20_YC,24,F,20,2021_Nov_05_0950,Partial repeat,2021.2.3,120.10407839379704,
2,2,0,1,1,3,2,2,3,0,0,0,0,1,1,0,0,7,7,7,,,,,,,,,,,,,,,,,,,,,,,,,,,,,,,,20_YC,24,F,20,2021_Nov_05_0950,Partial repeat,2021.2.3,120.10407839379704,
2,2,0,1,1,2,2,3,2,1,1,1,0,1,1,0,0,8,8,8,0,0,0,0,,,,,,,134.96961751045365,None,0.7576318791500563,135.1694211695401,None,"[87. 93. 87. 93. 87. 93. 93. 87. 93. 87. 87. 93. 93. 93. 93. 87. 93. 87.
 87. 87. 93. 93. 93. 87. 87. 93. 93. 87. 93. 87. 93. 93. 87. 87.]",136.00205577467432,None,l,1,0.44891710269212126,136.00205577467432,None,None,None,,,,,,,20_YC,24,F,20,2021_Nov_05_0950,Partial repeat,2021.2.3,120.10407839379704,
2,2,0,1,1,2,2,3,2,1,1,1,0,1,1,0,0,8,8,8,1,0,1,0,,,,,,,,,0.7374250868534686,136.50993121974466,None,"[87. 93. 87. 87. 93. 93. 93. 87. 87. 93. 87. 93. 93. 93. 93. 87. 87. 93.
 87. 93. 87. 93. 87. 93. 87. 87. 87. 87. 87. 87. 93. 87. 87. 87.]",137.32590090075632,None,l,1,0.5810521000589688,137.32590090075632,None,None,None,,,,,,,20_YC,24,F,20,2021_Nov_05_0950,Partial repeat,2021.2.3,120.10407839379704,
2,2,0,1,1,2,2,3,2,1,1,1,0,1,1,0,0,8,8,8,,,,,,,,,,,,,,,,,,,,,,,,,,,,,,,,20_YC,24,F,20,2021_Nov_05_0950,Partial repeat,2021.2.3,120.10407839379704,
2,2,0,1,1,2,2,3,3,0,0,1,1,1,1,0,0,9,9,9,0,0,0,0,,,,,,,137.92540520569605,None,0.7171809992759751,138.1168908348368,None,"[93. 87. 87. 87. 87. 93. 93. 93. 93. 93. 93. 87. 93. 93. 87. 87. 87. 93.
 93. 93. 93. 93. 87. 93. 87. 87. 93. 87. 93. 87. 93. 87. 87. 93.]",138.9162231731027,None,s,1,0.5588410743075656,138.9162231731027,None,None,None,,,,,,,20_YC,24,F,20,2021_Nov_05_0950,Partial repeat,2021.2.3,120.10407839379704,
2,2,0,1,1,2,2,3,3,0,0,1,1,1,1,0,0,9,9,9,1,0,1,0,,,,,,,,,0.8344561054718925,139.5323609722243,None,"[87. 87. 87. 93. 87. 93. 87. 87. 93. 87. 93. 87. 93. 93. 87. 87. 87. 93.
 93. 93. 93. 93. 93. 93. 87. 87. 87. 93. 93. 93. 93. 87. 87. 87.]",140.44825669666193,None,s,1,0.5618237115104421,140.44825669666193,None,None,None,,,,,,,20_YC,24,F,20,2021_Nov_05_0950,Partial repeat,2021.2.3,120.10407839379704,
2,2,0,1,1,2,2,3,3,0,0,1,1,1,1,0,0,9,9,9,,,,,,,,,,,,,,,,,,,,,,,,,,,,,,,,20_YC,24,F,20,2021_Nov_05_0950,Partial repeat,2021.2.3,120.10407839379704,
2,2,0,1,1,3,2,2,3,1,0,0,0,0,1,0,0,10,10,10,0,0,0,0,,,,,,,141.03109351176977,None,0.9546780421900025,141.17262638203533,None,"[87. 93. 93. 87. 87. 93. 93. 87. 87. 93. 93. 87. 87. 93. 87. 93. 87. 87.
 87. 93. 87. 87. 87. 93. 87. 93. 87. 93. 93. 93. 87. 93. 87. 87.]",142.20507971979873,None,l,1,0.5969720063078512,142.20507971979873,None,None,None,,,,,,,20_YC,24,F,20,2021_Nov_05_0950,Partial repeat,2021.2.3,120.10407839379704,
2,2,0,1,1,3,2,2,3,1,0,0,0,0,1,0,0,10,10,10,1,0,1,0,,,,,,,,,0.9822082798979475,142.87116033567168,None,"[87. 87. 87. 87. 93. 87. 93. 87. 93. 93. 87. 87. 93. 93. 93. 87. 93. 93.
 87. 93. 93. 93. 87. 87. 93. 93. 87. 87. 87. 93. 87. 93. 87. 87.]",143.92861170104607,None,s,1,0.6016319760453825,143.92861170104607,None,None,None,,,,,,,20_YC,24,F,20,2021_Nov_05_0950,Partial repeat,2021.2.3,120.10407839379704,
2,2,0,1,1,3,2,2,3,1,0,0,0,0,1,0,0,10,10,10,,,,,,,,,,,,,,,,,,,,,,,,,,,,,,,,20_YC,24,F,20,2021_Nov_05_0950,Partial repeat,2021.2.3,120.10407839379704,
2,2,0,1,1,3,3,2,3,1,0,1,0,0,1,0,0,11,11,11,0,0,0,0,,,,,,,144.55305406013895,None,0.7921259686285205,144.68628397400153,None,"[93. 87. 93. 93. 93. 93. 87. 87. 87. 87. 93. 87. 87. 93. 93. 87. 87. 87.
 87. 87. 87. 87. 87. 93. 93. 87. 93. 87. 93. 87. 93. 93. 87. 93.]",145.56054464879594,None,l,1,0.4255434898589101,145.56054464879594,None,None,None,,,,,,,20_YC,24,F,20,2021_Nov_05_0950,Partial repeat,2021.2.3,120.10407839379704,
2,2,0,1,1,3,3,2,3,1,0,1,0,0,1,0,0,11,11,11,1,0,1,0,,,,,,,,,0.8634237498394346,146.0518173881976,None,"[87. 93. 87. 93. 93. 87. 93. 93. 87. 87. 87. 93. 87. 87. 93. 87. 93. 93.
 93. 93. 93. 87. 87. 87. 87. 93. 87. 93. 87. 87. 87. 93. 87. 87.]",147.00096887602035,None,s,1,0.5051462282403918,147.00096887602035,None,None,None,,,,,,,20_YC,24,F,20,2021_Nov_05_0950,Partial repeat,2021.2.3,120.10407839379704,
2,2,0,1,1,3,3,2,3,1,0,1,0,0,1,0,0,11,11,11,,,,,,,,,,,,,,,,,,,,,,,,,,,,,,,,20_YC,24,F,20,2021_Nov_05_0950,Partial repeat,2021.2.3,120.10407839379704,
2,2,0,1,1,3,3,3,2,0,0,1,0,1,1,0,0,12,12,12,0,0,0,0,,,,,,,147.5338625536633,None,0.9873322764371133,147.6337828242431,None,"[93. 93. 87. 87. 87. 93. 87. 87. 93. 93. 87. 93. 93. 87. 87. 93. 93. 93.
 87. 87. 93. 93. 93. 87. 87. 87. 87. 93. 87. 87. 93. 87. 93. 93.]",148.70784940311978,None,s,1,0.6543595496602848,148.70784940311978,None,None,None,,,,,,,20_YC,24,F,20,2021_Nov_05_0950,Partial repeat,2021.2.3,120.10407839379704,
2,2,0,1,1,3,3,3,2,0,0,1,0,1,1,0,0,12,12,12,1,0,1,0,,,,,,,,,0.9493775538691761,149.42391292495358,None,"[93. 93. 87. 87. 87. 87. 93. 87. 93. 87. 93. 87. 87. 87. 93. 93. 93. 93.
 87. 93. 87. 93. 87. 87. 93. 93. 87. 87. 93. 93. 93. 93. 93. 93.]",150.4480447049209,None,s,1,0.5457043213539237,150.4480447049209,None,None,None,,,,,,,20_YC,24,F,20,2021_Nov_05_0950,Partial repeat,2021.2.3,120.10407839379704,
2,2,0,1,1,3,3,3,2,0,0,1,0,1,1,0,0,12,12,12,,,,,,,,,,,,,,,,,,,,,,,,,,,,,,,,20_YC,24,F,20,2021_Nov_05_0950,Partial repeat,2021.2.3,120.10407839379704,
2,2,0,1,1,2,3,3,2,1,0,0,0,0,1,0,0,13,13,13,0,0,0,0,,,,,,,151.0142098609192,None,0.877442174689571,151.13909159775062,None,"[87. 87. 93. 87. 87. 93. 93. 87. 87. 87. 93. 93. 93. 87. 93. 93. 87. 87.
 93. 93. 93. 93. 87. 93. 87. 87. 93. 93. 87. 87. 93. 93. 93. 93.]",152.0966335968103,None,l,1,0.5615735548419707,152.0966335968103,None,None,None,,,,,,,20_YC,24,F,20,2021_Nov_05_0950,Partial repeat,2021.2.3,120.10407839379704,
2,2,0,1,1,2,3,3,2,1,0,0,0,0,1,0,0,13,13,13,1,0,1,0,,,,,,,,,0.8384454519290347,152.72938885443,None,"[93. 93. 93. 93. 87. 93. 93. 93. 93. 93. 87. 87. 93. 93. 87. 87. 93. 93.
 87. 93. 87. 93. 87. 93. 87. 87. 87. 87. 93. 87. 93. 93. 93. 87.]",153.64530093526514,None,s,1,0.6769098904828752,153.64530093526514,None,None,None,,,,,,,20_YC,24,F,20,2021_Nov_05_0950,Partial repeat,2021.2.3,120.10407839379704,
2,2,0,1,1,2,3,3,2,1,0,0,0,0,1,0,0,13,13,13,,,,,,,,,,,,,,,,,,,,,,,,,,,,,,,,20_YC,24,F,20,2021_Nov_05_0950,Partial repeat,2021.2.3,120.10407839379704,
2,2,0,1,1,3,3,3,2,1,1,1,0,1,1,0,0,14,14,14,0,0,0,0,,,,,,,154.33638086160363,None,0.8099113937912068,154.41964679161242,None,"[87. 93. 87. 87. 87. 93. 93. 87. 93. 87. 93. 93. 87. 87. 93. 93. 87. 93.
 87. 93. 87. 93. 93. 93. 93. 87. 87. 87. 87. 93. 93. 93. 87. 87.]",155.3105489784307,None,l,1,0.5477087818399013,155.3105489784307,None,None,None,,,,,,,20_YC,24,F,20,2021_Nov_05_0950,Partial repeat,2021.2.3,120.10407839379704,
2,2,0,1,1,3,3,3,2,1,1,1,0,1,1,0,0,14,14,14,1,0,1,0,,,,,,,,,0.925766823855366,155.92667491114616,None,"[87. 87. 93. 93. 87. 87. 93. 93. 87. 93. 87. 93. 93. 93. 93. 93. 87. 93.
 87. 87. 93. 93. 93. 93. 93. 93. 93. 87. 93. 93. 93. 87. 93. 87.]",156.93416646194441,None,l,1,0.5871947291284414,156.93416646194441,None,None,None,,,,,,,20_YC,24,F,20,2021_Nov_05_0950,Partial repeat,2021.2.3,120.10407839379704,
2,2,0,1,1,3,3,3,2,1,1,1,0,1,1,0,0,14,14,14,,,,,,,,,,,,,,,,,,,,,,,,,,,,,,,,20_YC,24,F,20,2021_Nov_05_0950,Partial repeat,2021.2.3,120.10407839379704,
2,2,0,1,1,3,3,3,2,1,0,1,0,0,1,0,0,15,15,15,0,0,0,0,,,,,,,157.5502866218137,None,0.8411495644793987,157.72516056530276,None,"[93. 93. 93. 93. 93. 93. 87. 87. 93. 87. 87. 93. 93. 93. 93. 87. 93. 93.
 87. 93. 93. 93. 87. 93. 93. 93. 87. 87. 93. 87. 87. 87. 87. 93.]",158.6410238976589,None,l,1,0.465501206967474,158.6410238976589,None,None,None,,,,,,,20_YC,24,F,20,2021_Nov_05_0950,Partial repeat,2021.2.3,120.10407839379704,
2,2,0,1,1,3,3,3,2,1,0,1,0,0,1,0,0,15,15,15,1,0,1,0,,,,,,,,,0.9783247171441783,159.17390057747707,None,"[93. 93. 93. 93. 87. 87. 87. 93. 93. 87. 87. 93. 87. 87. 93. 87. 93. 93.
 93. 93. 93. 87. 87. 93. 87. 87. 87. 87. 87. 87. 93. 93. 93. 93.]",160.23132788932548,None,s,1,0.55399380778249,160.23132788932548,None,None,None,,,,,,,20_YC,24,F,20,2021_Nov_05_0950,Partial repeat,2021.2.3,120.10407839379704,
2,2,0,1,1,3,3,3,2,1,0,1,0,0,1,0,0,15,15,15,,,,,,,,,,,,,,,,,,,,,,,,,,,,,,,,20_YC,24,F,20,2021_Nov_05_0950,Partial repeat,2021.2.3,120.10407839379704,
2,2,0,1,1,2,3,2,3,0,1,0,0,0,1,0,0,16,16,16,0,0,0,0,,,,,,,160.8141756086984,None,0.9548659845260873,160.9140833714448,None,"[87. 87. 87. 93. 87. 87. 93. 93. 87. 87. 93. 93. 87. 87. 87. 87. 93. 87.
 87. 87. 87. 93. 93. 93. 87. 93. 93. 87. 87. 93. 87. 93. 93. 87.]",161.94654665133226,None,s,1,0.5827948581836608,161.94654665133226,None,None,None,,,,,,,20_YC,24,F,20,2021_Nov_05_0950,Partial repeat,2021.2.3,120.10407839379704,
2,2,0,1,1,2,3,2,3,0,1,0,0,0,1,0,0,16,16,16,1,0,1,0,,,,,,,,,0.8017258592047679,162.59598671732238,None,"[87. 93. 93. 93. 93. 93. 87. 93. 87. 93. 93. 93. 87. 87. 87. 87. 93. 93.
 93. 93. 87. 87. 87. 87. 87. 93. 87. 93. 93. 93. 93. 93. 87. 93.]",163.47857376061802,None,l,1,0.5068014315313576,163.47857376061802,None,None,None,,,,,,,20_YC,24,F,20,2021_Nov_05_0950,Partial repeat,2021.2.3,120.10407839379704,
2,2,0,1,1,2,3,2,3,0,1,0,0,0,1,0,0,16,16,16,,,,,,,,,,,,,,,,,,,,,,,,,,,,,,,,20_YC,24,F,20,2021_Nov_05_0950,Partial repeat,2021.2.3,120.10407839379704,
2,2,0,1,1,3,2,3,2,0,1,0,0,0,1,0,0,17,17,17,0,0,0,0,,,,,,,164.00311926122959,None,0.8765157597681082,164.17796241620545,None,"[87. 87. 87. 87. 93. 93. 87. 93. 87. 93. 87. 93. 93. 87. 93. 87. 93. 87.
 87. 87. 93. 93. 87. 87. 87. 87. 87. 87. 87. 87. 93. 87. 93. 87.]",165.13548645529931,None,s,1,0.5778802417860334,165.13548645529931,None,None,None,,,,,,,20_YC,24,F,20,2021_Nov_05_0950,Partial repeat,2021.2.3,120.10407839379704,
2,2,0,1,1,3,2,3,2,0,1,0,0,0,1,0,0,17,17,17,1,0,1,0,,,,,,,,,0.8570830180027026,165.78491850344722,None,"[87. 87. 87. 93. 93. 87. 87. 93. 87. 93. 87. 87. 87. 93. 87. 93. 93. 87.
 87. 87. 87. 93. 93. 93. 87. 93. 93. 87. 87. 87. 93. 93. 87. 93.]",166.71745253277209,None,l,1,0.5640013573822671,166.71745253277209,None,None,None,,,,,,,20_YC,24,F,20,2021_Nov_05_0950,Partial repeat,2021.2.3,120.10407839379704,
2,2,0,1,1,3,2,3,2,0,1,0,0,0,1,0,0,17,17,17,,,,,,,,,,,,,,,,,,,,,,,,,,,,,,,,20_YC,24,F,20,2021_Nov_05_0950,Partial repeat,2021.2.3,120.10407839379704,
2,2,0,1,1,2,2,3,3,0,1,1,1,0,1,0,0,18,18,18,0,0,0,0,,,,,,,167.30028934787993,None,0.7302549768634437,167.45017360231373,None,"[93. 93. 93. 87. 93. 87. 87. 93. 93. 93. 93. 87. 87. 93. 93. 87. 87. 87.
 87. 93. 87. 87. 93. 87. 93. 87. 87. 87. 87. 87. 93. 93. 93. 93.]",168.25781017983695,None,s,1,0.6236650057057886,168.25781017983695,None,None,None,,,,,,,20_YC,24,F,20,2021_Nov_05_0950,Partial repeat,2021.2.3,120.10407839379704,
2,2,0,1,1,2,2,3,3,0,1,1,1,0,1,0,0,18,18,18,1,0,1,0,,,,,,,,,0.9542900018845885,168.94055796482803,None,"[87. 87. 87. 87. 87. 87. 93. 87. 93. 87. 87. 93. 93. 93. 87. 93. 87. 87.
 87. 87. 87. 87. 87. 87. 93. 93. 93. 93. 93. 87. 93. 93. 93. 87.]",169.98134408536635,None,l,1,0.46812753127437645,169.98134408536635,None,None,None,,,,,,,20_YC,24,F,20,2021_Nov_05_0950,Partial repeat,2021.2.3,120.10407839379704,
2,2,0,1,1,2,2,3,3,0,1,1,1,0,1,0,0,18,18,18,,,,,,,,,,,,,,,,,,,,,,,,,,,,,,,,20_YC,24,F,20,2021_Nov_05_0950,Partial repeat,2021.2.3,120.10407839379704,
2,2,0,1,1,2,3,2,3,0,0,0,0,1,1,0,0,19,19,19,0,0,0,0,,,,,,,170.46426704416808,None,0.7179923037298364,170.5974543031116,None,"[87. 87. 93. 87. 87. 87. 93. 87. 87. 87. 87. 93. 93. 93. 93. 87. 93. 93.
 93. 93. 93. 87. 93. 87. 93. 87. 93. 93. 93. 87. 87. 93. 93. 93.]",171.40513032841727,None,s,1,0.5954752355739856,171.40513032841727,None,None,None,,,,,,,20_YC,24,F,20,2021_Nov_05_0950,Partial repeat,2021.2.3,120.10407839379704,
2,2,0,1,1,2,3,2,3,0,0,0,0,1,1,0,0,19,19,19,1,0,1,0,,,,,,,,,0.855430599953922,172.0712308285381,None,"[93. 93. 93. 93. 87. 87. 87. 93. 93. 93. 87. 93. 93. 87. 93. 87. 93. 93.
 93. 93. 87. 93. 93. 93. 87. 87. 93. 93. 93. 87. 87. 93. 87. 93.]",173.00374497361486,None,s,1,0.5173445729731156,173.00374497361486,None,None,None,,,,,,,20_YC,24,F,20,2021_Nov_05_0950,Partial repeat,2021.2.3,120.10407839379704,
2,2,0,1,1,2,3,2,3,0,0,0,0,1,1,0,0,19,19,19,,,,,,,,,,,,,,,,,,,,,,,,,,,,,,,,20_YC,24,F,20,2021_Nov_05_0950,Partial repeat,2021.2.3,120.10407839379704,
2,2,0,1,1,3,2,2,2,0,0,0,1,1,1,0,0,20,20,20,0,0,0,0,,,,,,,173.54496469904552,None,0.9118755112909629,173.67818146364743,None,"[87. 87. 93. 87. 87. 93. 93. 93. 87. 93. 93. 93. 87. 87. 93. 87. 93. 93.
 87. 87. 93. 93. 87. 87. 93. 87. 87. 87. 93. 87. 87. 93. 87. 87.]",174.66900456247276,None,s,1,0.46747519965401807,174.66900456247276,None,None,None,,,,,,,20_YC,24,F,20,2021_Nov_05_0950,Partial repeat,2021.2.3,120.10407839379704,
2,2,0,1,1,3,2,2,2,0,0,0,1,1,1,0,0,20,20,20,1,0,1,0,,,,,,,,,0.8636511144857972,175.21020889364672,None,"[87. 87. 93. 93. 87. 93. 93. 93. 87. 93. 93. 87. 87. 87. 87. 87. 87. 87.
 87. 93. 93. 93. 93. 93. 93. 87. 87. 93. 87. 87. 87. 93. 93. 87.]",176.1510721778959,None,s,1,0.32950225121112453,176.1510721778959,None,None,None,,,,,,,20_YC,24,F,20,2021_Nov_05_0950,Partial repeat,2021.2.3,120.10407839379704,
2,2,0,1,1,3,2,2,2,0,0,0,1,1,1,0,0,20,20,20,,,,,,,,,,,,,,,,,,,,,,,,,,,,,,,,20_YC,24,F,20,2021_Nov_05_0950,Partial repeat,2021.2.3,120.10407839379704,
2,2,0,1,1,2,2,2,2,1,1,1,1,1,1,0,0,21,21,21,0,0,0,0,,,,,,,176.50076810925816,None,0.8098598698619749,176.74223119222734,None,"[93. 93. 93. 93. 87. 87. 87. 87. 87. 87. 87. 93. 93. 87. 87. 87. 93. 87.
 87. 93. 93. 93. 93. 87. 93. 93. 87. 87. 93. 93. 93. 93. 87. 93.]",177.6331385104645,None,l,1,0.5754681542159688,177.6331385104645,None,None,None,,,,,,,20_YC,24,F,20,2021_Nov_05_0950,Partial repeat,2021.2.3,120.10407839379704,
2,2,0,1,1,2,2,2,2,1,1,1,1,1,1,0,0,21,21,21,1,0,1,0,,,,,,,,,0.9373521801365383,178.27426696078237,None,"[87. 93. 87. 87. 87. 93. 93. 93. 87. 87. 87. 87. 87. 93. 87. 87. 87. 87.
 93. 87. 87. 87. 87. 87. 93. 87. 93. 93. 93. 93. 87. 87. 93. 87.]",179.29003613160285,None,l,1,0.5671837992065321,179.29003613160285,None,None,None,,,,,,,20_YC,24,F,20,2021_Nov_05_0950,Partial repeat,2021.2.3,120.10407839379704,
2,2,0,1,1,2,2,2,2,1,1,1,1,1,1,0,0,21,21,21,,,,,,,,,,,,,,,,,,,,,,,,,,,,,,,,20_YC,24,F,20,2021_Nov_05_0950,Partial repeat,2021.2.3,120.10407839379704,
2,2,0,1,1,3,3,2,2,0,0,1,1,1,1,0,0,22,22,22,0,0,0,0,,,,,,,179.88120476734457,None,0.7786270418587311,180.01443211549804,None,"[93. 93. 93. 87. 93. 87. 87. 93. 87. 93. 93. 93. 93. 93. 93. 93. 93. 87.
 93. 93. 93. 93. 87. 87. 93. 87. 87. 87. 93. 87. 93. 87. 93. 93.]",180.87202946973844,None,s,1,0.6326202937289054,180.87202946973844,None,None,None,,,,,,,20_YC,24,F,20,2021_Nov_05_0950,Partial repeat,2021.2.3,120.10407839379704,
2,2,0,1,1,3,3,2,2,0,0,1,1,1,1,0,0,22,22,22,1,0,1,0,,,,,,,,,0.7906106785891812,181.57143287815506,None,"[87. 87. 93. 93. 93. 87. 93. 87. 87. 87. 93. 93. 87. 87. 93. 87. 93. 87.
 87. 93. 93. 93. 87. 87. 87. 93. 93. 87. 87. 87. 93. 87. 93. 93.]",182.43736109088832,None,s,1,0.4272711744406479,182.43736109088832,None,None,None,,,,,,,20_YC,24,F,20,2021_Nov_05_0950,Partial repeat,2021.2.3,120.10407839379704,
2,2,0,1,1,3,3,2,2,0,0,1,1,1,1,0,0,22,22,22,,,,,,,,,,,,,,,,,,,,,,,,,,,,,,,,20_YC,24,F,20,2021_Nov_05_0950,Partial repeat,2021.2.3,120.10407839379704,
2,2,0,1,1,3,2,3,3,0,0,0,1,1,1,0,0,23,23,23,0,0,0,0,,,,,,,182.88697568926182,None,0.7829670532365778,183.02018283245343,None,"[93. 93. 93. 93. 87. 87. 93. 93. 87. 93. 87. 87. 93. 93. 93. 93. 93. 87.
 93. 87. 87. 93. 93. 93. 93. 93. 87. 93. 93. 93. 93. 93. 93. 87.]",183.87779205309994,None,s,1,0.4909033338124118,183.87779205309994,None,None,None,,,,,,,20_YC,24,F,20,2021_Nov_05_0950,Partial repeat,2021.2.3,120.10407839379704,
2,2,0,1,1,3,2,3,3,0,0,0,1,1,1,0,0,23,23,23,1,0,1,0,,,,,,,,,0.9187951156419971,184.42731409350586,None,"[93. 93. 93. 93. 93. 87. 93. 93. 87. 93. 93. 87. 93. 93. 87. 93. 93. 93.
 93. 87. 93. 87. 93. 87. 87. 93. 93. 87. 87. 93. 87. 93. 93. 87.]",185.4264767100933,None,s,1,0.4302448316607297,185.4264767100933,None,None,None,,,,,,,20_YC,24,F,20,2021_Nov_05_0950,Partial repeat,2021.2.3,120.10407839379704,
2,2,0,1,1,3,2,3,3,0,0,0,1,1,1,0,0,23,23,23,,,,,,,,,,,,,,,,,,,,,,,,,,,,,,,,20_YC,24,F,20,2021_Nov_05_0950,Partial repeat,2021.2.3,120.10407839379704,
2,2,0,1,1,2,3,3,3,1,1,0,1,1,1,0,0,24,24,24,0,0,0,0,,,,,,,185.87608778061644,None,0.8269841085682526,185.98431902544098,None,"[93. 87. 93. 93. 87. 93. 87. 93. 87. 93. 93. 93. 87. 87. 87. 93. 93. 93.
 87. 93. 93. 93. 87. 93. 93. 93. 87. 93. 87. 87. 93. 87. 87. 93.]",186.8918819671037,None,l,1,0.5319703995323835,186.8918819671037,None,None,None,,,,,,,20_YC,24,F,20,2021_Nov_05_0950,Partial repeat,2021.2.3,120.10407839379704,
2,2,0,1,1,2,3,3,3,1,1,0,1,1,1,0,0,24,24,24,1,0,1,0,,,,,,,,,0.7201805617854582,187.4913692742184,None,"[87. 93. 93. 93. 87. 93. 87. 93. 93. 87. 87. 93. 93. 93. 87. 93. 93. 93.
 93. 87. 93. 87. 87. 87. 93. 93. 93. 93. 93. 93. 93. 87. 93. 87.]",188.29067242753945,None,l,1,0.47719603122618537,188.29067242753945,None,None,None,,,,,,,20_YC,24,F,20,2021_Nov_05_0950,Partial repeat,2021.2.3,120.10407839379704,
2,2,0,1,1,2,3,3,3,1,1,0,1,1,1,0,0,24,24,24,,,,,,,,,,,,,,,,,,,,,,,,,,,,,,,,20_YC,24,F,20,2021_Nov_05_0950,Partial repeat,2021.2.3,120.10407839379704,
2,2,0,1,1,2,2,3,2,0,1,1,0,0,1,0,0,25,25,25,0,0,0,0,,,,,,,188.79024427477975,None,0.7624792126286772,188.92347932006123,None,"[93. 93. 93. 93. 87. 93. 87. 93. 87. 87. 93. 93. 87. 87. 87. 93. 87. 93.
 93. 87. 87. 87. 87. 87. 93. 93. 87. 93. 87. 93. 87. 87. 93. 93.]",189.76444093512418,None,s,1,0.4753612282756876,189.76444093512418,None,None,None,,,,,,,20_YC,24,F,20,2021_Nov_05_0950,Partial repeat,2021.2.3,120.10407839379704,
2,2,0,1,1,2,2,3,2,0,1,1,0,0,1,0,0,25,25,25,1,0,1,0,,,,,,,,,0.9707849127196448,190.30562313705445,None,"[93. 93. 93. 87. 93. 93. 93. 93. 93. 87. 87. 87. 93. 87. 87. 87. 87. 87.
 87. 87. 93. 87. 93. 87. 93. 87. 93. 87. 87. 93. 87. 93. 87. 93.]",191.35472728753848,None,l,1,0.613091717178122,191.35472728753848,None,None,None,,,,,,,20_YC,24,F,20,2021_Nov_05_0950,Partial repeat,2021.2.3,120.10407839379704,
2,2,0,1,1,2,2,3,2,0,1,1,0,0,1,0,0,25,25,25,,,,,,,,,,,,,,,,,,,,,,,,,,,,,,,,20_YC,24,F,20,2021_Nov_05_0950,Partial repeat,2021.2.3,120.10407839379704,
2,2,0,1,1,2,3,2,2,1,1,0,1,1,1,0,0,26,26,26,0,0,0,0,,,,,,,191.9875463671799,None,0.9521423841936653,192.14571080734527,None,"[87. 93. 93. 93. 87. 87. 93. 87. 87. 93. 93. 87. 93. 93. 93. 87. 93. 87.
 93. 93. 87. 93. 93. 87. 93. 87. 93. 93. 93. 87. 87. 87. 93. 93.]",193.17817793579684,None,l,1,0.40567239110009723,193.17817793579684,None,None,None,,,,,,,20_YC,24,F,20,2021_Nov_05_0950,Partial repeat,2021.2.3,120.10407839379704,
2,2,0,1,1,2,3,2,2,1,1,0,1,1,1,0,0,26,26,26,1,0,1,0,,,,,,,,,0.9092030887501136,193.6444244247839,None,"[87. 87. 93. 87. 93. 93. 87. 87. 87. 93. 93. 93. 87. 93. 93. 93. 87. 87.
 87. 93. 87. 87. 93. 87. 87. 87. 93. 87. 87. 87. 93. 87. 93. 93.]",194.63526997356666,None,l,1,0.4846128557373959,194.63526997356666,None,None,None,,,,,,,20_YC,24,F,20,2021_Nov_05_0950,Partial repeat,2021.2.3,120.10407839379704,
2,2,0,1,1,2,3,2,2,1,1,0,1,1,1,0,0,26,26,26,,,,,,,,,,,,,,,,,,,,,,,,,,,,,,,,20_YC,24,F,20,2021_Nov_05_0950,Partial repeat,2021.2.3,120.10407839379704,
2,2,0,1,1,3,2,2,2,0,1,0,1,0,1,0,0,27,27,27,0,0,0,0,,,,,,,195.13482161584534,None,0.72691646937565,195.2930303144983,None,"[93. 93. 87. 87. 87. 87. 93. 87. 93. 93. 87. 93. 93. 87. 93. 87. 93. 87.
 87. 93. 93. 93. 93. 93. 87. 93. 93. 93. 87. 87. 87. 93. 93. 93.]",196.10066657130778,None,s,1,0.5552413839886867,196.10066657130778,None,None,None,,,,,,,20_YC,24,F,20,2021_Nov_05_0950,Partial repeat,2021.2.3,120.10407839379704,
2,2,0,1,1,3,2,2,2,0,1,0,1,0,1,0,0,27,27,27,1,0,1,0,,,,,,,,,0.8152977639537795,196.7251166275289,None,"[87. 93. 93. 93. 87. 87. 93. 87. 87. 87. 93. 87. 93. 93. 93. 93. 87. 87.
 87. 93. 87. 93. 93. 93. 87. 87. 87. 93. 93. 93. 93. 87. 93. 87.]",197.61605409285175,None,l,1,0.47986244474259365,197.61605409285175,None,None,None,,,,,,,20_YC,24,F,20,2021_Nov_05_0950,Partial repeat,2021.2.3,120.10407839379704,
2,2,0,1,1,3,2,2,2,0,1,0,1,0,1,0,0,27,27,27,,,,,,,,,,,,,,,,,,,,,,,,,,,,,,,,20_YC,24,F,20,2021_Nov_05_0950,Partial repeat,2021.2.3,120.10407839379704,
2,2,0,1,1,2,3,2,3,1,0,0,0,0,1,0,0,28,28,28,0,0,0,0,,,,,,,198.1156352407886,None,0.8612044951210263,198.25716522463108,None,"[87. 93. 87. 93. 93. 93. 93. 87. 87. 93. 87. 93. 93. 93. 87. 87. 93. 87.
 93. 93. 87. 93. 87. 87. 93. 93. 87. 87. 93. 87. 93. 93. 93. 87.]",199.2063548773815,None,l,1,0.42629588414683894,199.2063548773815,None,None,None,,,,,,,20_YC,24,F,20,2021_Nov_05_0950,Partial repeat,2021.2.3,120.10407839379704,
2,2,0,1,1,2,3,2,3,1,0,0,0,0,1,0,0,28,28,28,1,0,1,0,,,,,,,,,0.8762484074624464,199.70590812322848,None,"[93. 87. 87. 87. 87. 93. 93. 87. 93. 93. 87. 93. 87. 87. 93. 87. 93. 87.
 93. 93. 87. 93. 87. 93. 93. 87. 87. 87. 87. 87. 87. 93. 93. 93.]",200.6634651958309,None,s,1,0.5197547362613477,200.6634651958309,None,None,None,,,,,,,20_YC,24,F,20,2021_Nov_05_0950,Partial repeat,2021.2.3,120.10407839379704,
2,2,0,1,1,2,3,2,3,1,0,0,0,0,1,0,0,28,28,28,,,,,,,,,,,,,,,,,,,,,,,,,,,,,,,,20_YC,24,F,20,2021_Nov_05_0950,Partial repeat,2021.2.3,120.10407839379704,
2,2,0,1,1,2,3,3,2,0,0,0,0,1,1,0,0,29,29,29,0,0,0,0,,,,,,,201.21296157914276,None,0.8970877919076146,201.32120725608274,None,"[93. 87. 93. 87. 93. 87. 87. 93. 87. 87. 87. 93. 93. 87. 93. 87. 93. 87.
 93. 87. 87. 93. 87. 93. 87. 87. 87. 87. 93. 93. 93. 87. 87. 93.]",202.29537922147392,None,s,1,0.6008651496420043,202.29537922147392,None,None,None,,,,,,,20_YC,24,F,20,2021_Nov_05_0950,Partial repeat,2021.2.3,120.10407839379704,
2,2,0,1,1,2,3,3,2,0,0,0,0,1,1,0,0,29,29,29,1,0,1,0,,,,,,,,,0.9722996210596302,202.9531562395166,None,"[87. 93. 93. 87. 87. 93. 93. 93. 87. 87. 87. 87. 93. 93. 87. 87. 87. 93.
 93. 93. 93. 87. 87. 87. 87. 87. 87. 93. 93. 87. 87. 93. 93. 93.]",204.00224275074834,None,s,1,0.5248056559719316,204.00224275074834,None,None,None,,,,,,,20_YC,24,F,20,2021_Nov_05_0950,Partial repeat,2021.2.3,120.10407839379704,
2,2,0,1,1,2,3,3,2,0,0,0,0,1,1,0,0,29,29,29,,,,,,,,,,,,,,,,,,,,,,,,,,,,,,,,20_YC,24,F,20,2021_Nov_05_0950,Partial repeat,2021.2.3,120.10407839379704,
2,2,0,1,1,3,2,2,2,1,0,0,1,0,1,0,0,30,30,30,0,0,0,0,,,,,,,204.54344066764884,None,0.9654752397520634,204.75161270872854,None,"[93. 93. 93. 87. 93. 93. 93. 93. 93. 87. 93. 87. 93. 87. 93. 93. 93. 93.
 87. 87. 93. 87. 87. 87. 93. 87. 87. 87. 93. 87. 93. 93. 87. 87.]",205.79239305642045,None,l,1,0.5586249132886678,205.79239305642045,None,None,None,,,,,,,20_YC,24,F,20,2021_Nov_05_0950,Partial repeat,2021.2.3,120.10407839379704,
2,2,0,1,1,3,2,2,2,1,0,0,1,0,1,0,0,30,30,30,1,0,1,0,,,,,,,,,0.782539762728555,206.41686075189386,None,"[87. 87. 87. 93. 93. 87. 87. 87. 87. 93. 93. 87. 87. 93. 93. 93. 93. 87.
 87. 93. 87. 93. 93. 87. 87. 87. 87. 87. 87. 87. 93. 87. 87. 87.]",207.27445265400183,None,s,1,0.5336628056097652,207.27445265400183,None,None,None,,,,,,,20_YC,24,F,20,2021_Nov_05_0950,Partial repeat,2021.2.3,120.10407839379704,
2,2,0,1,1,3,2,2,2,1,0,0,1,0,1,0,0,30,30,30,,,,,,,,,,,,,,,,,,,,,,,,,,,,,,,,20_YC,24,F,20,2021_Nov_05_0950,Partial repeat,2021.2.3,120.10407839379704,
2,2,0,1,1,3,2,3,3,1,1,0,1,1,1,0,0,31,31,31,0,0,0,0,,,,,,,207.8156605130264,None,0.9981329414124364,207.9405326284475,None,"[87. 93. 93. 87. 87. 93. 93. 93. 93. 93. 87. 87. 87. 87. 93. 93. 93. 93.
 93. 93. 93. 93. 93. 87. 93. 87. 87. 93. 93. 93. 93. 93. 87. 87.]",209.01463801367913,None,l,1,0.5844612864532337,209.01463801367913,None,None,None,,,,,,,20_YC,24,F,20,2021_Nov_05_0950,Partial repeat,2021.2.3,120.10407839379704,
2,2,0,1,1,3,2,3,3,1,1,0,1,1,1,0,0,31,31,31,1,0,1,0,,,,,,,,,0.7473181574509716,209.67240573102504,None,"[87. 87. 87. 87. 87. 87. 93. 87. 87. 93. 87. 93. 87. 87. 87. 87. 87. 87.
 87. 87. 93. 87. 93. 87. 93. 93. 87. 93. 93. 87. 93. 93. 87. 87.]",210.49670402553397,None,l,1,0.4304170549057744,210.49670402553397,None,None,None,,,,,,,20_YC,24,F,20,2021_Nov_05_0950,Partial repeat,2021.2.3,120.10407839379704,
2,2,0,1,1,3,2,3,3,1,1,0,1,1,1,0,0,31,31,31,,,,,,,,,,,,,,,,,,,,,,,,,,,,,,,,20_YC,24,F,20,2021_Nov_05_0950,Partial repeat,2021.2.3,120.10407839379704,
2,2,0,1,1,2,3,2,2,0,0,0,1,1,1,0,0,32,32,32,0,0,0,0,,,,,,,210.94631573748438,None,0.926564084271056,211.09617690053324,None,"[87. 93. 87. 93. 87. 93. 87. 87. 87. 87. 87. 93. 93. 93. 87. 93. 87. 93.
 87. 93. 93. 93. 93. 87. 87. 93. 93. 87. 93. 93. 87. 93. 87. 93.]",212.10366428205361,None,s,1,0.535498891414818,212.10366428205361,None,None,None,,,,,,,20_YC,24,F,20,2021_Nov_05_0950,Partial repeat,2021.2.3,120.10407839379704,
2,2,0,1,1,2,3,2,2,0,0,0,1,1,1,0,0,32,32,32,1,0,1,0,,,,,,,,,0.9981020348347556,212.71145101772072,None,"[87. 93. 93. 87. 93. 93. 87. 87. 93. 93. 93. 87. 87. 93. 87. 93. 93. 93.
 87. 87. 93. 87. 87. 87. 93. 93. 93. 87. 93. 93. 93. 93. 93. 87.]",213.7855596100892,None,s,1,0.5496388367525924,213.7855596100892,None,None,None,,,,,,,20_YC,24,F,20,2021_Nov_05_0950,Partial repeat,2021.2.3,120.10407839379704,
2,2,0,1,1,2,3,2,2,0,0,0,1,1,1,0,0,32,32,32,,,,,,,,,,,,,,,,,,,,,,,,,,,,,,,,20_YC,24,F,20,2021_Nov_05_0950,Partial repeat,2021.2.3,120.10407839379704,
2,2,0,1,1,2,3,3,3,0,1,0,1,0,1,0,0,33,33,33,0,0,0,0,,,,,,,214.3517417639123,None,0.979747374694378,214.476633122154,None,"[93. 87. 93. 93. 93. 87. 93. 87. 93. 87. 93. 93. 87. 93. 93. 87. 87. 87.
 93. 93. 93. 93. 93. 93. 87. 93. 93. 93. 93. 93. 87. 93. 87. 93.]",215.53408801537876,None,s,1,0.48113054662439936,215.53408801537876,None,None,None,,,,,,,20_YC,24,F,20,2021_Nov_05_0950,Partial repeat,2021.2.3,120.10407839379704,
2,2,0,1,1,2,3,3,3,0,1,0,1,0,1,0,0,33,33,33,1,0,1,0,,,,,,,,,0.7022418523896489,216.08359498224195,None,"[87. 93. 87. 87. 87. 93. 87. 87. 87. 87. 93. 93. 93. 93. 93. 87. 93. 93.
 93. 87. 87. 87. 93. 93. 87. 87. 87. 87. 93. 87. 87. 93. 87. 87.]",216.86625052997942,None,l,1,0.47698852947655723,216.86625052997942,None,None,None,,,,,,,20_YC,24,F,20,2021_Nov_05_0950,Partial repeat,2021.2.3,120.10407839379704,
2,2,0,1,1,2,3,3,3,0,1,0,1,0,1,0,0,33,33,33,,,,,,,,,,,,,,,,,,,,,,,,,,,,,,,,20_YC,24,F,20,2021_Nov_05_0950,Partial repeat,2021.2.3,120.10407839379704,
2,2,0,1,1,3,3,2,2,0,1,1,1,0,1,0,0,34,34,34,0,0,0,0,,,,,,,217.36582718792465,None,0.8600656075240355,217.49904299038553,None,"[93. 87. 87. 93. 93. 93. 87. 93. 93. 93. 87. 93. 93. 87. 93. 93. 93. 87.
 87. 87. 93. 93. 87. 93. 93. 87. 93. 87. 87. 93. 93. 93. 87. 87.]",218.4399059539212,None,s,1,0.45438174304695167,218.4399059539212,None,None,None,,,,,,,20_YC,24,F,20,2021_Nov_05_0950,Partial repeat,2021.2.3,120.10407839379704,
2,2,0,1,1,3,3,2,2,0,1,1,1,0,1,0,0,34,34,34,1,0,1,0,,,,,,,,,0.8986939636603355,218.96446909378506,None,"[93. 87. 87. 93. 87. 87. 93. 93. 93. 93. 93. 87. 93. 93. 93. 87. 87. 87.
 87. 87. 87. 87. 93. 87. 93. 93. 93. 93. 87. 87. 87. 87. 87. 87.]",219.93863079633843,None,l,1,0.5076705655978913,219.93863079633843,None,None,None,,,,,,,20_YC,24,F,20,2021_Nov_05_0950,Partial repeat,2021.2.3,120.10407839379704,
2,2,0,1,1,3,3,2,2,0,1,1,1,0,1,0,0,34,34,34,,,,,,,,,,,,,,,,,,,,,,,,,,,,,,,,20_YC,24,F,20,2021_Nov_05_0950,Partial repeat,2021.2.3,120.10407839379704,
2,2,0,1,1,2,2,2,3,1,0,1,0,0,1,0,0,35,35,35,0,0,0,0,,,,,,,220.4714927233274,None,0.9103921416027804,220.58808593587128,None,"[93. 87. 93. 93. 87. 93. 93. 87. 93. 93. 93. 93. 93. 87. 93. 87. 93. 93.
 87. 93. 93. 93. 87. 93. 93. 87. 93. 87. 87. 87. 93. 93. 93. 93.]",221.57889877185903,None,l,1,0.4193995779346551,221.57889877185903,None,None,None,,,,,,,20_YC,24,F,20,2021_Nov_05_0950,Partial repeat,2021.2.3,120.10407839379704,
2,2,0,1,1,2,2,2,3,1,0,1,0,0,1,0,0,35,35,35,1,0,1,0,,,,,,,,,0.8818184378134443,222.07014681630744,None,"[87. 87. 93. 87. 93. 93. 93. 93. 93. 93. 93. 87. 87. 87. 93. 87. 87. 87.
 93. 87. 87. 93. 87. 87. 93. 93. 87. 87. 93. 93. 87. 87. 87. 93.]",223.0276583475677,None,l,0,0.36266693191191735,223.0276583475677,None,223.41066263935818,None,,,,,,,20_YC,24,F,20,2021_Nov_05_0950,Partial repeat,2021.2.3,120.10407839379704,
2,2,0,1,1,2,2,2,3,1,0,1,0,0,1,0,0,35,35,35,,,,,,,,,,,,,,,,,,,,,,,,,,,,,,,,20_YC,24,F,20,2021_Nov_05_0950,Partial repeat,2021.2.3,120.10407839379704,
2,2,0,1,1,2,3,2,3,1,1,0,0,1,1,0,0,36,36,36,0,0,0,0,,,,,,,223.9102296758931,None,0.9020717161031024,224.54303688912864,None,"[93. 87. 87. 93. 93. 93. 87. 93. 93. 87. 93. 93. 87. 93. 93. 93. 93. 87.
 87. 87. 87. 87. 93. 93. 87. 93. 93. 93. 87. 87. 93. 87. 87. 87.]",225.52552945017487,None,l,1,0.4724619766291198,225.52552945017487,None,None,None,,,,,,,20_YC,24,F,20,2021_Nov_05_0950,Partial repeat,2021.2.3,120.10407839379704,
2,2,0,1,1,2,3,2,3,1,1,0,0,1,1,0,0,36,36,36,1,0,1,0,,,,,,,,,0.7595416328662223,226.0667203113744,None,"[87. 93. 93. 87. 93. 87. 87. 87. 93. 87. 93. 87. 93. 93. 87. 87. 93. 87.
 93. 87. 87. 93. 93. 87. 87. 93. 87. 87. 93. 93. 87. 93. 87. 93.]",226.90767583287743,None,l,1,0.38686766531986905,226.90767583287743,None,None,None,,,,,,,20_YC,24,F,20,2021_Nov_05_0950,Partial repeat,2021.2.3,120.10407839379704,
2,2,0,1,1,2,3,2,3,1,1,0,0,1,1,0,0,36,36,36,,,,,,,,,,,,,,,,,,,,,,,,,,,,,,,,20_YC,24,F,20,2021_Nov_05_0950,Partial repeat,2021.2.3,120.10407839379704,
2,2,0,1,1,3,2,3,3,1,0,0,1,0,1,0,0,37,37,37,0,0,0,0,,,,,,,227.31565698517602,None,0.9451334258849005,227.44887631548727,None,"[87. 93. 87. 87. 93. 93. 93. 87. 93. 87. 93. 93. 93. 93. 87. 93. 93. 87.
 87. 93. 87. 93. 87. 87. 87. 93. 93. 93. 87. 87. 93. 87. 87. 87.]",228.4730068125998,None,l,1,0.37340314298785415,228.4730068125998,None,None,None,,,,,,,20_YC,24,F,20,2021_Nov_05_0950,Partial repeat,2021.2.3,120.10407839379704,
2,2,0,1,1,3,2,3,3,1,0,0,1,0,1,0,0,37,37,37,1,0,1,0,,,,,,,,,0.8381461822800592,228.90596482540673,None,"[93. 87. 93. 93. 93. 87. 93. 93. 87. 93. 93. 93. 93. 87. 87. 93. 87. 87.
 93. 93. 93. 87. 87. 87. 87. 93. 87. 87. 87. 93. 93. 93. 87. 87.]",229.82185926698958,None,s,1,0.49658156947657517,229.82185926698958,None,None,None,,,,,,,20_YC,24,F,20,2021_Nov_05_0950,Partial repeat,2021.2.3,120.10407839379704,
2,2,0,1,1,3,2,3,3,1,0,0,1,0,1,0,0,37,37,37,,,,,,,,,,,,,,,,,,,,,,,,,,,,,,,,20_YC,24,F,20,2021_Nov_05_0950,Partial repeat,2021.2.3,120.10407839379704,
2,2,0,1,1,2,2,3,2,0,0,1,0,1,1,0,0,38,38,38,0,0,0,0,,,,,,,230.33808673765543,None,0.8240922398117704,230.4712736758854,None,"[93. 87. 87. 93. 93. 93. 87. 87. 87. 87. 93. 87. 87. 87. 93. 87. 87. 87.
 93. 93. 87. 87. 87. 87. 93. 93. 87. 93. 87. 93. 87. 93. 93. 93.]",231.3705346232864,None,s,1,0.4359262744617354,231.3705346232864,None,None,None,,,,,,,20_YC,24,F,20,2021_Nov_05_0950,Partial repeat,2021.2.3,120.10407839379704,
2,2,0,1,1,2,2,3,2,0,0,1,0,1,1,0,0,38,38,38,1,0,1,0,,,,,,,,,0.9649658619192782,231.87841327549359,None,"[87. 87. 87. 87. 93. 87. 87. 87. 93. 93. 93. 87. 93. 93. 87. 87. 87. 87.
 87. 93. 87. 87. 93. 87. 93. 93. 93. 93. 93. 87. 87. 87. 87. 93.]",232.91921863885273,None,s,1,0.4872609885744623,232.91921863885273,None,None,None,,,,,,,20_YC,24,F,20,2021_Nov_05_0950,Partial repeat,2021.2.3,120.10407839379704,
2,2,0,1,1,2,2,3,2,0,0,1,0,1,1,0,0,38,38,38,,,,,,,,,,,,,,,,,,,,,,,,,,,,,,,,20_YC,24,F,20,2021_Nov_05_0950,Partial repeat,2021.2.3,120.10407839379704,
2,2,0,1,1,2,2,2,3,1,1,1,0,1,1,0,0,39,39,39,0,0,0,0,,,,,,,233.4354175660012,None,0.8575907725984842,233.57695332268986,None,"[93. 87. 87. 93. 87. 93. 87. 87. 93. 87. 87. 93. 93. 93. 87. 93. 93. 93.
 87. 93. 87. 87. 87. 87. 87. 87. 93. 93. 87. 93. 87. 87. 87. 87.]",234.50950210484393,None,l,1,0.41607762566059137,234.50950210484393,None,None,None,,,,,,,20_YC,24,F,20,2021_Nov_05_0950,Partial repeat,2021.2.3,120.10407839379704,
2,2,0,1,1,2,2,2,3,1,1,1,0,1,1,0,0,39,39,39,1,0,1,0,,,,,,,,,0.9551431627586611,234.98410029871275,None,"[93. 87. 87. 87. 87. 87. 93. 87. 87. 87. 87. 87. 87. 87. 87. 93. 87. 87.
 93. 87. 93. 87. 93. 87. 87. 93. 93. 87. 93. 87. 87. 87. 93. 87.]",236.016540807929,None,l,1,0.3650203288791545,236.016540807929,None,None,None,,,,,,,20_YC,24,F,20,2021_Nov_05_0950,Partial repeat,2021.2.3,120.10407839379704,
2,2,0,1,1,2,2,2,3,1,1,1,0,1,1,0,0,39,39,39,,,,,,,,,,,,,,,,,,,,,,,,,,,,,,,,20_YC,24,F,20,2021_Nov_05_0950,Partial repeat,2021.2.3,120.10407839379704,
2,2,0,1,1,3,2,3,3,0,1,0,1,0,1,0,0,40,40,40,0,0,0,0,,,,,,,236.3995489482836,None,0.7375716583657727,236.54943191986263,None,"[87. 93. 87. 87. 87. 87. 87. 93. 87. 93. 87. 93. 87. 93. 93. 93. 87. 87.
 87. 87. 93. 93. 93. 87. 93. 87. 87. 93. 87. 93. 87. 87. 93. 87.]",237.36540993943004,None,s,1,0.45616651466343683,237.36540993943004,None,None,None,,,,,,,20_YC,24,F,20,2021_Nov_05_0950,Partial repeat,2021.2.3,120.10407839379704,
2,2,0,1,1,3,2,3,3,0,1,0,1,0,1,0,0,40,40,40,1,0,1,0,,,,,,,,,0.7278626029126628,237.8899503086227,None,"[93. 87. 93. 93. 87. 87. 87. 93. 87. 87. 87. 93. 93. 93. 93. 87. 87. 87.
 87. 87. 93. 87. 93. 93. 93. 87. 93. 93. 87. 87. 87. 87. 87. 93.]",238.69758464115012,None,l,1,0.6119926314045188,238.69758464115012,None,None,None,,,,,,,20_YC,24,F,20,2021_Nov_05_0950,Partial repeat,2021.2.3,120.10407839379704,
2,2,0,1,1,3,2,3,3,0,1,0,1,0,1,0,0,40,40,40,,,,,,,,,,,,,,,,,,,,,,,,,,,,,,,,20_YC,24,F,20,2021_Nov_05_0950,Partial repeat,2021.2.3,120.10407839379704,
2,2,0,1,1,2,2,3,2,1,0,1,0,0,1,0,0,41,41,41,0,0,0,0,,,,,,,239.33872078859645,None,0.7146949850707562,239.49690992371507,None,"[93. 93. 87. 93. 93. 93. 93. 87. 93. 93. 87. 87. 93. 93. 93. 93. 93. 93.
 87. 87. 93. 93. 87. 87. 93. 87. 87. 87. 93. 87. 87. 87. 87. 93.]",240.2879130070562,None,l,1,0.4296877520025646,240.2879130070562,None,None,None,,,,,,,20_YC,24,F,20,2021_Nov_05_0950,Partial repeat,2021.2.3,120.10407839379704,
2,2,0,1,1,2,2,3,2,1,0,1,0,0,1,0,0,41,41,41,1,0,1,0,,,,,,,,,0.9656087460320925,240.78747683645452,None,"[93. 93. 93. 93. 93. 93. 93. 93. 93. 87. 87. 87. 87. 93. 93. 93. 93. 93.
 87. 93. 87. 87. 87. 87. 93. 93. 87. 93. 93. 93. 87. 87. 87. 87.]",241.82826167413828,None,l,0,0.36135040226508863,241.82826167413828,None,242.21957020518607,None,,,,,,,20_YC,24,F,20,2021_Nov_05_0950,Partial repeat,2021.2.3,120.10407839379704,
2,2,0,1,1,2,2,3,2,1,0,1,0,0,1,0,0,41,41,41,,,,,,,,,,,,,,,,,,,,,,,,,,,,,,,,20_YC,24,F,20,2021_Nov_05_0950,Partial repeat,2021.2.3,120.10407839379704,
2,2,0,1,1,2,3,2,2,0,1,0,1,0,1,0,0,42,42,42,0,0,0,0,,,,,,,242.71915584311455,None,0.9025732050876696,243.33531288505674,None,"[87. 93. 93. 87. 87. 93. 93. 87. 87. 87. 93. 93. 93. 93. 87. 87. 93. 93.
 87. 93. 93. 87. 87. 93. 93. 93. 93. 87. 93. 87. 93. 93. 87. 93.]",244.3177894104192,None,s,1,0.6238676967500396,244.3177894104192,None,None,None,,,,,,,20_YC,24,F,20,2021_Nov_05_0950,Partial repeat,2021.2.3,120.10407839379704,
2,2,0,1,1,2,3,2,2,0,1,0,1,0,1,0,0,42,42,42,1,0,1,0,,,,,,,,,0.8926070184535885,245.00053559184175,None,"[87. 87. 87. 87. 87. 93. 93. 93. 93. 87. 87. 93. 93. 93. 87. 87. 87. 93.
 93. 93. 87. 87. 93. 93. 87. 87. 87. 93. 87. 93. 87. 87. 87. 87.]",245.9747146129339,None,l,1,0.6144804074026524,245.9747146129339,None,None,None,,,,,,,20_YC,24,F,20,2021_Nov_05_0950,Partial repeat,2021.2.3,120.10407839379704,
2,2,0,1,1,2,3,2,2,0,1,0,1,0,1,0,0,42,42,42,,,,,,,,,,,,,,,,,,,,,,,,,,,,,,,,20_YC,24,F,20,2021_Nov_05_0950,Partial repeat,2021.2.3,120.10407839379704,
2,2,0,1,1,2,3,3,2,1,1,0,0,1,1,0,0,43,43,43,0,0,0,0,,,,,,,246.59918070483877,None,0.7259514477656726,246.7740184076822,None,"[87. 93. 87. 93. 87. 87. 93. 87. 93. 87. 93. 93. 93. 93. 87. 87. 87. 87.
 93. 87. 93. 87. 93. 93. 87. 93. 87. 87. 87. 93. 87. 93. 93. 93.]",247.58165819234227,None,l,1,0.41688678626951514,247.58165819234227,None,None,None,,,,,,,20_YC,24,F,20,2021_Nov_05_0950,Partial repeat,2021.2.3,120.10407839379704,
2,2,0,1,1,2,3,3,2,1,1,0,0,1,1,0,0,43,43,43,1,0,1,0,,,,,,,,,0.9714386237825902,248.05625542407006,None,"[93. 87. 87. 93. 87. 93. 87. 87. 87. 93. 87. 93. 93. 93. 93. 93. 93. 93.
 87. 87. 93. 87. 87. 87. 93. 87. 87. 87. 93. 87. 87. 93. 87. 93.]",249.10537625166535,None,l,1,0.46027581901626036,249.10537625166535,None,None,None,,,,,,,20_YC,24,F,20,2021_Nov_05_0950,Partial repeat,2021.2.3,120.10407839379704,
2,2,0,1,1,2,3,3,2,1,1,0,0,1,1,0,0,43,43,43,,,,,,,,,,,,,,,,,,,,,,,,,,,,,,,,20_YC,24,F,20,2021_Nov_05_0950,Partial repeat,2021.2.3,120.10407839379704,
2,2,0,1,1,3,3,2,2,1,0,1,1,0,1,0,0,44,44,44,0,0,0,0,,,,,,,249.5799645034101,None,0.9967938325598491,249.70485842736116,None,"[87. 93. 87. 93. 93. 87. 93. 87. 93. 93. 87. 87. 93. 93. 87. 93. 93. 93.
 93. 93. 87. 93. 93. 93. 93. 87. 93. 93. 87. 87. 93. 87. 87. 87.]",250.77894136263535,None,l,1,0.4178181387896984,250.77894136263535,None,None,None,,,,,,,20_YC,24,F,20,2021_Nov_05_0950,Partial repeat,2021.2.3,120.10407839379704,
2,2,0,1,1,3,3,2,2,1,0,1,1,0,1,0,0,44,44,44,1,0,1,0,,,,,,,,,0.8616116083980978,251.27018170995552,None,"[87. 93. 93. 93. 93. 87. 93. 93. 87. 93. 93. 87. 87. 93. 93. 93. 93. 93.
 93. 93. 93. 93. 93. 93. 87. 87. 93. 87. 87. 93. 93. 87. 93. 93.]",252.21105333276023,None,s,1,0.5217595174608505,252.21105333276023,None,None,None,,,,,,,20_YC,24,F,20,2021_Nov_05_0950,Partial repeat,2021.2.3,120.10407839379704,
2,2,0,1,1,3,3,2,2,1,0,1,1,0,1,0,0,44,44,44,,,,,,,,,,,,,,,,,,,,,,,,,,,,,,,,20_YC,24,F,20,2021_Nov_05_0950,Partial repeat,2021.2.3,120.10407839379704,
2,2,0,1,1,3,3,3,2,0,1,1,0,0,1,0,0,45,45,45,0,0,0,0,,,,,,,252.75224451467352,None,0.9165320932559152,252.8604885880452,None,"[87. 93. 93. 87. 87. 87. 93. 87. 87. 93. 93. 87. 87. 87. 87. 93. 93. 93.
 87. 93. 93. 93. 93. 93. 87. 87. 93. 93. 87. 93. 87. 87. 87. 93.]",253.8513136111526,None,s,1,0.5619292263104398,253.8513136111526,None,None,None,,,,,,,20_YC,24,F,20,2021_Nov_05_0950,Partial repeat,2021.2.3,120.10407839379704,
2,2,0,1,1,3,3,3,2,0,1,1,0,0,1,0,0,45,45,45,1,0,1,0,,,,,,,,,0.8774901618514216,254.47575789452753,None,"[93. 93. 87. 93. 93. 93. 93. 93. 87. 87. 87. 93. 87. 87. 87. 93. 87. 93.
 87. 93. 93. 87. 93. 93. 93. 87. 87. 87. 87. 87. 87. 87. 93. 87.]",255.4332938000273,None,l,1,0.5955663182583066,255.4332938000273,None,None,None,,,,,,,20_YC,24,F,20,2021_Nov_05_0950,Partial repeat,2021.2.3,120.10407839379704,
2,2,0,1,1,3,3,3,2,0,1,1,0,0,1,0,0,45,45,45,,,,,,,,,,,,,,,,,,,,,,,,,,,,,,,,20_YC,24,F,20,2021_Nov_05_0950,Partial repeat,2021.2.3,120.10407839379704,
2,2,0,1,1,2,2,2,2,0,0,1,1,1,1,0,0,46,46,46,0,0,0,0,,,,,,,256.0577400076843,None,0.7887376161331857,256.17432039168125,None,"[93. 87. 87. 87. 87. 93. 93. 87. 87. 93. 93. 93. 93. 93. 93. 87. 87. 93.
 93. 87. 93. 93. 87. 93. 93. 93. 87. 93. 93. 87. 93. 93. 87. 87.]",257.0402421901408,None,s,1,0.5086282166396359,257.0402421901408,None,None,None,,,,,,,20_YC,24,F,20,2021_Nov_05_0950,Partial repeat,2021.2.3,120.10407839379704,
2,2,0,1,1,2,2,2,2,0,0,1,1,1,1,0,0,46,46,46,1,0,1,0,,,,,,,,,0.9545598583926496,257.6147433360509,None,"[87. 93. 87. 87. 87. 93. 87. 87. 93. 93. 87. 93. 87. 87. 87. 93. 87. 93.
 87. 87. 87. 87. 87. 93. 93. 93. 93. 87. 87. 87. 87. 93. 93. 87.]",258.64721431306657,None,s,1,0.4856696073054536,258.64721431306657,None,None,None,,,,,,,20_YC,24,F,20,2021_Nov_05_0950,Partial repeat,2021.2.3,120.10407839379704,
2,2,0,1,1,2,2,2,2,0,0,1,1,1,1,0,0,46,46,46,,,,,,,,,,,,,,,,,,,,,,,,,,,,,,,,20_YC,24,F,20,2021_Nov_05_0950,Partial repeat,2021.2.3,120.10407839379704,
2,2,0,1,1,3,2,2,3,0,1,0,0,0,1,0,0,47,47,47,0,0,0,0,,,,,,,259.1551064352482,None,0.8574620017163583,259.24669905447195,None,"[87. 87. 87. 87. 93. 93. 87. 93. 87. 93. 93. 87. 93. 93. 87. 93. 93. 87.
 93. 87. 87. 93. 93. 93. 93. 93. 87. 87. 93. 93. 93. 87. 93. 87.]",260.17924013949755,None,s,1,0.5698720212533317,260.17924013949755,None,None,None,,,,,,,20_YC,24,F,20,2021_Nov_05_0950,Partial repeat,2021.2.3,120.10407839379704,
2,2,0,1,1,3,2,2,3,0,1,0,0,0,1,0,0,47,47,47,1,0,1,0,,,,,,,,,0.7718987327459119,260.8203499884221,None,"[93. 87. 93. 93. 87. 93. 87. 87. 87. 87. 87. 93. 93. 87. 87. 87. 87. 87.
 87. 93. 87. 87. 87. 87. 93. 87. 87. 87. 93. 87. 87. 93. 93. 87.]",261.66963540627694,None,l,1,0.4393139730398161,261.66963540627694,None,None,None,,,,,,,20_YC,24,F,20,2021_Nov_05_0950,Partial repeat,2021.2.3,120.10407839379704,
2,2,0,1,1,3,2,2,3,0,1,0,0,0,1,0,0,47,47,47,,,,,,,,,,,,,,,,,,,,,,,,,,,,,,,,20_YC,24,F,20,2021_Nov_05_0950,Partial repeat,2021.2.3,120.10407839379704,
2,2,0,1,1,3,3,2,3,0,0,1,0,1,1,0,0,48,48,48,0,0,0,0,,,,,,,262.1192333275392,None,0.7127715322035205,262.24413110005435,None,"[93. 93. 93. 93. 93. 93. 93. 93. 87. 87. 93. 87. 87. 87. 87. 87. 93. 87.
 87. 93. 93. 93. 93. 87. 93. 93. 87. 87. 93. 87. 87. 87. 87. 87.]",263.0351306555451,None,s,1,0.4506268273078149,263.0351306555451,None,None,None,,,,,,,20_YC,24,F,20,2021_Nov_05_0950,Partial repeat,2021.2.3,120.10407839379704,
2,2,0,1,1,3,3,2,3,0,0,1,0,1,1,0,0,48,48,48,1,0,1,0,,,,,,,,,0.8392727795013608,263.5513491462282,None,"[87. 93. 93. 87. 93. 93. 93. 87. 87. 87. 87. 93. 87. 93. 87. 93. 87. 93.
 87. 87. 87. 93. 93. 93. 87. 93. 87. 87. 87. 87. 87. 87. 93. 93.]",264.46723556996903,None,s,1,0.5048431538150453,264.46723556996903,None,None,None,,,,,,,20_YC,24,F,20,2021_Nov_05_0950,Partial repeat,2021.2.3,120.10407839379704,
2,2,0,1,1,3,3,2,3,0,0,1,0,1,1,0,0,48,48,48,,,,,,,,,,,,,,,,,,,,,,,,,,,,,,,,20_YC,24,F,20,2021_Nov_05_0950,Partial repeat,2021.2.3,120.10407839379704,
2,2,0,1,1,3,3,2,3,0,1,1,0,0,1,0,0,49,49,49,0,0,0,0,,,,,,,265.0001093633641,None,0.8758149982623267,265.174944500498,None,"[93. 87. 87. 87. 87. 87. 87. 87. 87. 93. 93. 93. 87. 87. 93. 87. 93. 87.
 87. 93. 87. 93. 87. 87. 93. 87. 87. 93. 93. 93. 93. 87. 87. 87.]",266.1324768781474,None,s,1,0.4876285264492708,266.1324768781474,None,None,None,,,,,,,20_YC,24,F,20,2021_Nov_05_0950,Partial repeat,2021.2.3,120.10407839379704,
2,2,0,1,1,3,3,2,3,0,1,1,0,0,1,0,0,49,49,49,1,0,1,0,,,,,,,,,0.8850364904467327,266.6903317013282,None,"[87. 93. 93. 87. 93. 93. 87. 87. 93. 93. 93. 87. 93. 87. 87. 93. 93. 87.
 87. 87. 93. 87. 87. 87. 87. 93. 87. 87. 93. 87. 87. 93. 93. 87.]",267.656181467496,None,s,0,0.5158834014573586,267.656181467496,None,268.1890405080617,None,,,,,,,20_YC,24,F,20,2021_Nov_05_0950,Partial repeat,2021.2.3,120.10407839379704,
2,2,0,1,1,3,3,2,3,0,1,1,0,0,1,0,0,49,49,49,,,,,,,,,,,,,,,,,,,,,,,,,,,,,,,,20_YC,24,F,20,2021_Nov_05_0950,Partial repeat,2021.2.3,120.10407839379704,
2,2,0,1,1,2,2,2,2,1,0,1,1,0,1,0,0,50,50,50,0,0,0,0,,,,,,,268.6886235802806,None,0.7300964419937095,269.28809998313045,None,"[87. 93. 87. 93. 93. 87. 93. 93. 87. 87. 87. 93. 87. 93. 93. 87. 87. 87.
 87. 93. 93. 87. 93. 93. 87. 87. 87. 93. 87. 87. 93. 87. 93. 93.]",270.0957731220128,None,l,1,0.4602783847255978,270.0957731220128,None,None,None,,,,,,,20_YC,24,F,20,2021_Nov_05_0950,Partial repeat,2021.2.3,120.10407839379704,
2,2,0,1,1,2,2,2,2,1,0,1,1,0,1,0,0,50,50,50,1,0,1,0,,,,,,,,,0.7082171806794089,270.6203106047826,None,"[87. 87. 93. 87. 93. 87. 87. 87. 93. 93. 87. 87. 93. 93. 93. 93. 87. 93.
 87. 93. 93. 93. 93. 93. 87. 87. 87. 87. 93. 93. 93. 93. 93. 93.]",271.4029728875071,None,s,1,0.5931295357349882,271.4029728875071,None,None,None,,,,,,,20_YC,24,F,20,2021_Nov_05_0950,Partial repeat,2021.2.3,120.10407839379704,
2,2,0,1,1,2,2,2,2,1,0,1,1,0,1,0,0,50,50,50,,,,,,,,,,,,,,,,,,,,,,,,,,,,,,,,20_YC,24,F,20,2021_Nov_05_0950,Partial repeat,2021.2.3,120.10407839379704,
2,2,0,1,1,3,2,2,3,1,1,0,0,1,1,0,0,51,51,51,0,0,0,0,,,,,,,272.01909593379946,None,0.8224259889548817,272.0857181067886,None,"[93. 87. 93. 87. 93. 93. 93. 87. 87. 93. 87. 87. 87. 93. 93. 93. 93. 87.
 93. 87. 87. 93. 87. 93. 87. 87. 93. 87. 93. 93. 93. 93. 87. 87.]",272.98495051067243,None,l,1,0.7711798274881403,272.98495051067243,None,None,None,,,,,,,20_YC,24,F,20,2021_Nov_05_0950,Partial repeat,2021.2.3,120.10407839379704,
2,2,0,1,1,3,2,2,3,1,1,0,0,1,1,0,0,51,51,51,1,0,1,0,,,,,,,,,0.723540192024679,273.8259095600256,None,"[93. 87. 93. 93. 93. 93. 93. 93. 87. 87. 87. 87. 93. 87. 87. 93. 93. 93.
 87. 87. 87. 93. 87. 93. 87. 93. 93. 87. 93. 93. 93. 87. 87. 87.]",274.62521592048347,None,l,1,0.5389359798989517,274.62521592048347,None,None,None,,,,,,,20_YC,24,F,20,2021_Nov_05_0950,Partial repeat,2021.2.3,120.10407839379704,
2,2,0,1,1,3,2,2,3,1,1,0,0,1,1,0,0,51,51,51,,,,,,,,,,,,,,,,,,,,,,,,,,,,,,,,20_YC,24,F,20,2021_Nov_05_0950,Partial repeat,2021.2.3,120.10407839379704,
2,2,0,1,1,2,3,3,3,0,0,0,1,1,1,0,0,52,52,52,0,0,0,0,,,,,,,275.19138909432377,None,0.7944099480663424,275.307987117573,None,"[87. 93. 87. 93. 93. 93. 87. 93. 87. 87. 93. 93. 87. 93. 93. 87. 93. 87.
 93. 87. 87. 87. 93. 93. 87. 87. 87. 93. 93. 93. 87. 93. 93. 93.]",276.1822211731321,None,s,1,0.4859107839911303,276.1822211731321,None,None,None,,,,,,,20_YC,24,F,20,2021_Nov_05_0950,Partial repeat,2021.2.3,120.10407839379704,
2,2,0,1,1,2,3,3,3,0,0,0,1,1,1,0,0,52,52,52,1,0,1,0,,,,,,,,,0.9078683000481456,276.731750269239,None,"[93. 93. 93. 93. 93. 93. 93. 93. 87. 87. 93. 87. 93. 87. 93. 93. 87. 87.
 93. 87. 87. 87. 87. 87. 87. 93. 93. 87. 93. 87. 87. 93. 93. 87.]",277.714243150999,None,s,1,0.4899652463050188,277.714243150999,None,None,None,,,,,,,20_YC,24,F,20,2021_Nov_05_0950,Partial repeat,2021.2.3,120.10407839379704,
2,2,0,1,1,2,3,3,3,0,0,0,1,1,1,0,0,52,52,52,,,,,,,,,,,,,,,,,,,,,,,,,,,,,,,,20_YC,24,F,20,2021_Nov_05_0950,Partial repeat,2021.2.3,120.10407839379704,
2,2,0,1,1,2,2,2,3,0,1,1,0,0,1,0,0,53,53,53,0,0,0,0,,,,,,,278.23047286666065,None,0.7320781884143716,278.3470266314223,None,"[93. 87. 87. 93. 93. 93. 87. 87. 93. 93. 87. 87. 93. 93. 87. 87. 93. 87.
 93. 87. 87. 93. 93. 87. 93. 87. 87. 87. 93. 87. 87. 87. 93. 93.]",279.1546830931936,None,s,1,0.5535088887015718,279.1546830931936,None,None,None,,,,,,,20_YC,24,F,20,2021_Nov_05_0950,Partial repeat,2021.2.3,120.10407839379704,
2,2,0,1,1,2,2,2,3,0,1,1,0,0,1,0,0,53,53,53,1,0,1,0,,,,,,,,,0.7835042105469778,279.7791482229575,None,"[93. 93. 93. 87. 87. 93. 93. 93. 87. 87. 93. 93. 93. 93. 93. 93. 93. 87.
 87. 87. 93. 93. 87. 87. 87. 87. 93. 93. 93. 87. 87. 87. 93. 87.]",280.63675263289883,None,l,1,0.44659353209681285,280.63675263289883,None,None,None,,,,,,,20_YC,24,F,20,2021_Nov_05_0950,Partial repeat,2021.2.3,120.10407839379704,
2,2,0,1,1,2,2,2,3,0,1,1,0,0,1,0,0,53,53,53,,,,,,,,,,,,,,,,,,,,,,,,,,,,,,,,20_YC,24,F,20,2021_Nov_05_0950,Partial repeat,2021.2.3,120.10407839379704,
2,2,0,1,1,2,3,3,3,1,0,0,1,0,1,0,0,54,54,54,0,0,0,0,,,,,,,281.1030154782834,None,0.7257730478440392,281.25288016918284,None,"[93. 87. 87. 87. 87. 93. 87. 87. 87. 87. 87. 93. 87. 87. 93. 93. 93. 87.
 93. 87. 87. 87. 93. 87. 93. 87. 87. 87. 93. 93. 87. 87. 93. 93.]",282.06051353956923,None,l,1,0.46276680215123633,282.06051353956923,None,None,None,,,,,,,20_YC,24,F,20,2021_Nov_05_0950,Partial repeat,2021.2.3,120.10407839379704,
2,2,0,1,1,2,3,3,3,1,0,0,1,0,1,0,0,54,54,54,1,0,1,0,,,,,,,,,0.8503510073041108,282.58509014940773,None,"[87. 93. 93. 93. 93. 93. 87. 87. 87. 87. 93. 93. 93. 93. 87. 93. 93. 93.
 87. 93. 87. 93. 93. 87. 93. 87. 87. 93. 93. 87. 93. 93. 87. 93.]",283.525955357939,None,s,1,0.4852946930161579,283.525955357939,None,None,None,,,,,,,20_YC,24,F,20,2021_Nov_05_0950,Partial repeat,2021.2.3,120.10407839379704,
2,2,0,1,1,2,3,3,3,1,0,0,1,0,1,0,0,54,54,54,,,,,,,,,,,,,,,,,,,,,,,,,,,,,,,,20_YC,24,F,20,2021_Nov_05_0950,Partial repeat,2021.2.3,120.10407839379704,
2,2,0,1,1,2,2,2,3,0,0,1,0,1,1,0,0,55,55,55,0,0,0,0,,,,,,,284.0338381794238,None,0.7682794473978065,284.1504076591557,None,"[87. 93. 87. 87. 87. 93. 87. 93. 93. 87. 93. 93. 93. 87. 93. 87. 93. 93.
 87. 93. 93. 93. 87. 93. 87. 87. 93. 93. 93. 87. 93. 87. 87. 93.]",285.00804670617435,None,s,1,0.47531664907455706,285.00804670617435,None,None,None,,,,,,,20_YC,24,F,20,2021_Nov_05_0950,Partial repeat,2021.2.3,120.10407839379704,
2,2,0,1,1,2,2,2,3,0,0,1,0,1,1,0,0,55,55,55,1,0,1,0,,,,,,,,,0.9484155964715446,285.5575305816526,None,"[93. 93. 87. 87. 87. 93. 87. 87. 87. 87. 93. 93. 87. 87. 93. 87. 87. 87.
 93. 93. 87. 87. 87. 87. 93. 93. 93. 87. 93. 93. 87. 87. 87. 93.]",286.58166973803463,None,s,1,0.485670890160236,286.58166973803463,None,None,None,,,,,,,20_YC,24,F,20,2021_Nov_05_0950,Partial repeat,2021.2.3,120.10407839379704,
2,2,0,1,1,2,2,2,3,0,0,1,0,1,1,0,0,55,55,55,,,,,,,,,,,,,,,,,,,,,,,,,,,,,,,,20_YC,24,F,20,2021_Nov_05_0950,Partial repeat,2021.2.3,120.10407839379704,
2,2,0,1,1,3,3,3,3,1,1,1,1,1,1,0,0,56,56,56,0,0,0,0,,,,,,,287.0978856630081,None,0.8160257013721888,287.18113940589706,None,"[87. 93. 87. 93. 93. 93. 87. 93. 93. 87. 93. 93. 87. 87. 87. 93. 87. 93.
 87. 87. 93. 87. 87. 93. 87. 93. 93. 93. 87. 93. 93. 93. 87. 93.]",288.0803724512082,None,l,1,0.5069922561694966,288.0803724512082,None,None,None,,,,,,,20_YC,24,F,20,2021_Nov_05_0950,Partial repeat,2021.2.3,120.10407839379704,
2,2,0,1,1,3,3,3,3,1,1,1,1,1,1,0,0,56,56,56,1,0,1,0,,,,,,,,,0.9186862767668255,288.65488642566515,None,"[87. 87. 93. 87. 87. 93. 93. 87. 93. 93. 87. 93. 93. 93. 87. 93. 93. 87.
 93. 93. 87. 93. 87. 93. 93. 87. 93. 87. 87. 87. 93. 87. 93. 93.]",289.6540474386843,None,l,1,0.5493534015790829,289.6540474386843,None,None,None,,,,,,,20_YC,24,F,20,2021_Nov_05_0950,Partial repeat,2021.2.3,120.10407839379704,
2,2,0,1,1,3,3,3,3,1,1,1,1,1,1,0,0,56,56,56,,,,,,,,,,,,,,,,,,,,,,,,,,,,,,,,20_YC,24,F,20,2021_Nov_05_0950,Partial repeat,2021.2.3,120.10407839379704,
2,2,0,1,1,3,2,3,2,0,0,0,0,1,1,0,0,57,57,57,0,0,0,0,,,,,,,290.2202190089563,None,0.8364527884932405,290.3784206519083,None,"[87. 87. 87. 87. 87. 93. 93. 87. 87. 87. 93. 93. 93. 93. 87. 87. 87. 93.
 93. 87. 87. 87. 87. 93. 93. 93. 87. 93. 93. 87. 87. 87. 87. 87.]",291.3026318405821,None,s,1,0.5807817384286409,291.3026318405821,None,None,None,,,,,,,20_YC,24,F,20,2021_Nov_05_0950,Partial repeat,2021.2.3,120.10407839379704,
2,2,0,1,1,3,2,3,2,0,0,0,0,1,1,0,0,57,57,57,1,0,1,0,,,,,,,,,0.7697602139731837,291.95208409369206,None,"[87. 93. 87. 93. 93. 87. 87. 93. 87. 87. 87. 87. 93. 93. 87. 87. 93. 87.
 87. 93. 93. 93. 93. 87. 87. 93. 93. 87. 87. 87. 87. 87. 93. 93.]",292.80965258370134,None,s,1,0.6418016848949719,292.80965258370134,None,None,None,,,,,,,20_YC,24,F,20,2021_Nov_05_0950,Partial repeat,2021.2.3,120.10407839379704,
2,2,0,1,1,3,2,3,2,0,0,0,0,1,1,0,0,57,57,57,,,,,,,,,,,,,,,,,,,,,,,,,,,,,,,,20_YC,24,F,20,2021_Nov_05_0950,Partial repeat,2021.2.3,120.10407839379704,
2,2,0,1,1,3,2,2,2,1,1,0,1,1,1,0,0,58,58,58,0,0,0,0,,,,,,,293.45911991035405,None,0.7930761979587603,293.5840173621557,None,"[87. 93. 93. 93. 87. 87. 87. 87. 87. 93. 93. 93. 87. 93. 87. 93. 93. 93.
 93. 93. 93. 93. 93. 87. 93. 93. 93. 87. 93. 93. 87. 93. 87. 87.]",294.45825205914207,None,l,1,0.4812251571595425,294.45825205914207,None,None,None,,,,,,,20_YC,24,F,20,2021_Nov_05_0950,Partial repeat,2021.2.3,120.10407839379704,
2,2,0,1,1,3,2,2,2,1,1,0,1,1,1,0,0,58,58,58,1,0,1,0,,,,,,,,,0.8824065759993901,294.9994448446239,None,"[87. 93. 87. 93. 93. 93. 93. 93. 93. 93. 93. 93. 93. 93. 87. 93. 87. 87.
 87. 93. 87. 87. 93. 87. 87. 93. 87. 87. 87. 87. 93. 87. 87. 93.]",295.9569724115679,None,l,1,0.3736141725876223,295.9569724115679,None,None,None,,,,,,,20_YC,24,F,20,2021_Nov_05_0950,Partial repeat,2021.2.3,120.10407839379704,
2,2,0,1,1,3,2,2,2,1,1,0,1,1,1,0,0,58,58,58,,,,,,,,,,,,,,,,,,,,,,,,,,,,,,,,20_YC,24,F,20,2021_Nov_05_0950,Partial repeat,2021.2.3,120.10407839379704,
2,2,0,1,1,2,3,2,2,1,0,0,1,0,1,0,0,59,59,59,0,0,0,0,,,,,,,296.34831590040676,None,0.8695434793285788,296.49818251558827,None,"[87. 87. 93. 87. 93. 93. 87. 93. 93. 93. 93. 87. 93. 87. 93. 93. 87. 87.
 87. 87. 87. 93. 93. 87. 93. 87. 87. 87. 93. 93. 87. 93. 87. 93.]",297.45569276399374,None,l,1,0.3788511062314228,297.45569276399374,None,None,None,,,,,,,20_YC,24,F,20,2021_Nov_05_0950,Partial repeat,2021.2.3,120.10407839379704,
2,2,0,1,1,2,3,2,2,1,0,0,1,0,1,0,0,59,59,59,1,0,1,0,,,,,,,,,0.8977896296722033,297.8969861252849,None,"[87. 87. 93. 87. 87. 87. 87. 93. 93. 87. 87. 87. 93. 87. 93. 93. 87. 87.
 87. 93. 87. 87. 87. 87. 87. 87. 93. 87. 93. 87. 87. 87. 93. 93.]",298.87115776996234,None,l,0,0.3719657042840936,298.87115776996234,None,299.25416591031694,None,,,,,,,20_YC,24,F,20,2021_Nov_05_0950,Partial repeat,2021.2.3,120.10407839379704,
2,2,0,1,1,2,3,2,2,1,0,0,1,0,1,0,0,59,59,59,,,,,,,,,,,,,,,,,,,,,,,,,,,,,,,,20_YC,24,F,20,2021_Nov_05_0950,Partial repeat,2021.2.3,120.10407839379704,
2,2,0,1,1,3,3,3,3,0,0,1,1,1,1,0,0,60,60,60,0,0,0,0,,,,,,,299.75373198471084,None,0.7347840405942682,300.1284374893762,None,"[87. 93. 87. 87. 87. 93. 93. 93. 87. 93. 87. 87. 93. 93. 93. 93. 87. 93.
 93. 87. 87. 93. 87. 87. 87. 93. 93. 93. 93. 87. 87. 87. 87. 93.]",300.9526992225258,None,s,1,0.609884901114583,300.9526992225258,None,None,None,,,,,,,20_YC,24,F,20,2021_Nov_05_0950,Partial repeat,2021.2.3,120.10407839379704,
2,2,0,1,1,3,3,3,3,0,0,1,1,1,1,0,0,60,60,60,1,0,1,0,,,,,,,,,0.9875878759267644,301.63544027252965,None,"[87. 93. 87. 87. 93. 93. 93. 93. 87. 87. 93. 93. 93. 93. 93. 87. 93. 87.
 87. 87. 87. 93. 87. 93. 87. 93. 93. 87. 87. 93. 93. 93. 93. 87.]",302.7095347534962,None,s,1,1.0930692415636258,302.7095347534962,None,None,None,,,,,,,20_YC,24,F,20,2021_Nov_05_0950,Partial repeat,2021.2.3,120.10407839379704,
2,2,0,1,1,3,3,3,3,0,0,1,1,1,1,0,0,60,60,60,,,,,,,,,,,,,,,,,,,,,,,,,,,,,,,,20_YC,24,F,20,2021_Nov_05_0950,Partial repeat,2021.2.3,120.10407839379704,
2,2,0,1,1,2,2,3,3,1,1,1,1,1,1,0,0,61,61,61,0,0,0,0,,,,,,,303.8335630712311,None,0.8977066969675046,303.9418177281541,None,"[87. 93. 87. 93. 93. 93. 93. 93. 87. 87. 93. 87. 93. 93. 93. 93. 93. 87.
 87. 87. 87. 93. 93. 93. 87. 87. 87. 87. 93. 87. 93. 87. 93. 87.]",304.9159752614298,None,l,1,0.598695200898419,304.9159752614298,None,None,None,,,,,,,20_YC,24,F,20,2021_Nov_05_0950,Partial repeat,2021.2.3,120.10407839379704,
2,2,0,1,1,2,2,3,3,1,1,1,1,1,1,0,0,61,61,61,1,0,1,0,,,,,,,,,0.7175394956314597,305.57376286302383,None,"[87. 93. 87. 93. 87. 93. 87. 93. 87. 93. 87. 93. 87. 87. 87. 93. 93. 87.
 87. 87. 93. 87. 87. 93. 87. 93. 93. 87. 93. 93. 87. 87. 93. 93.]",306.38141130695317,None,l,1,0.5572403923420097,306.38141130695317,None,None,None,,,,,,,20_YC,24,F,20,2021_Nov_05_0950,Partial repeat,2021.2.3,120.10407839379704,
2,2,0,1,1,2,2,3,3,1,1,1,1,1,1,0,0,61,61,61,,,,,,,,,,,,,,,,,,,,,,,,,,,,,,,,20_YC,24,F,20,2021_Nov_05_0950,Partial repeat,2021.2.3,120.10407839379704,
2,2,0,1,1,3,3,2,2,1,1,1,1,1,1,0,0,62,62,62,0,0,0,0,,,,,,,306.95591501857257,None,0.7255168088393893,307.07247712188973,None,"[87. 87. 87. 87. 87. 93. 93. 93. 93. 93. 93. 87. 93. 87. 93. 87. 93. 87.
 87. 93. 87. 87. 87. 93. 93. 87. 93. 87. 87. 87. 93. 93. 87. 93.]",307.88847662927355,None,l,1,0.5062039419497069,307.88847662927355,None,None,None,,,,,,,20_YC,24,F,20,2021_Nov_05_0950,Partial repeat,2021.2.3,120.10407839379704,
2,2,0,1,1,3,3,2,2,1,1,1,1,1,1,0,0,62,62,62,1,0,1,0,,,,,,,,,0.9614533933681413,308.46295468379867,None,"[93. 93. 87. 87. 93. 93. 87. 93. 93. 93. 93. 93. 87. 87. 93. 87. 87. 87.
 87. 87. 87. 93. 93. 93. 93. 93. 93. 93. 93. 93. 93. 87. 93. 87.]",309.5037343900635,None,l,1,0.42836833593241863,309.5037343900635,None,None,None,,,,,,,20_YC,24,F,20,2021_Nov_05_0950,Partial repeat,2021.2.3,120.10407839379704,
2,2,0,1,1,3,3,2,2,1,1,1,1,1,1,0,0,62,62,62,,,,,,,,,,,,,,,,,,,,,,,,,,,,,,,,20_YC,24,F,20,2021_Nov_05_0950,Partial repeat,2021.2.3,120.10407839379704,
2,2,0,1,1,2,2,2,2,0,1,1,1,0,1,0,0,63,63,63,0,0,0,0,,,,,,,309.9450206956535,None,0.7538373913664641,310.0865679980345,None,"[87. 87. 87. 87. 93. 93. 93. 93. 87. 87. 87. 93. 87. 87. 87. 87. 87. 93.
 87. 87. 93. 87. 87. 93. 93. 87. 93. 93. 93. 87. 93. 93. 87. 87.]",310.92752191596924,None,l,0,0.45919597606325624,310.92752191596924,None,311.41044262977516,None,,,,,,,20_YC,24,F,20,2021_Nov_05_0950,Partial repeat,2021.2.3,120.10407839379704,
2,2,0,1,1,2,2,2,2,0,1,1,1,0,1,0,0,63,63,63,1,0,1,0,,,,,,,,,0.96251676727522,311.95998583728397,None,"[93. 93. 87. 93. 87. 93. 87. 93. 87. 87. 93. 93. 93. 93. 87. 87. 87. 93.
 93. 87. 87. 93. 87. 93. 87. 87. 87. 87. 93. 87. 93. 93. 87. 87.]",313.0090630478189,None,l,1,0.6647218085879558,313.0090630478189,None,None,None,,,,,,,20_YC,24,F,20,2021_Nov_05_0950,Partial repeat,2021.2.3,120.10407839379704,
2,2,0,1,1,2,2,2,2,0,1,1,1,0,1,0,0,63,63,63,,,,,,,,,,,,,,,,,,,,,,,,,,,,,,,,20_YC,24,F,20,2021_Nov_05_0950,Partial repeat,2021.2.3,120.10407839379704,
3,6,0,1,1,2,2,2,2,0,0,1,1,1,0,0,0,64,64,64,0,0,0,0,,,,,,,314.74924295536357,None,0.8399445712140569,317.51356586785437,None,"[87. 93. 93. 93. 93. 93. 87. 93. 87. 87. 87. 87. 93. 93. 93. 93. 87. 87.
 87. 87. 93. 87. 87. 93. 93. 93. 93. 93. 93. 87. 93. 93. 93. 93.]",318.4294314452063,None,s,1,0.716421174152174,318.4294314452063,None,None,None,,,,,,,20_YC,24,F,20,2021_Nov_05_0950,Partial repeat,2021.2.3,120.10407839379704,
3,6,0,1,1,2,2,2,2,0,0,1,1,1,0,0,0,64,64,64,1,0,1,0,,,,,,,,,0.9651869764531854,319.2121049529096,None,"[93. 87. 93. 87. 93. 93. 87. 93. 93. 87. 87. 87. 87. 87. 87. 93. 87. 87.
 93. 87. 93. 93. 93. 93. 87. 87. 87. 87. 93. 87. 93. 87. 93. 93.]",320.2612030098337,None,s,1,1.2846847597438682,320.2612030098337,None,None,None,,,,,,,20_YC,24,F,20,2021_Nov_05_0950,Partial repeat,2021.2.3,120.10407839379704,
3,6,0,1,1,2,2,2,2,0,0,1,1,1,0,0,0,64,64,64,,,,,,,,,,,,,,,,,,,,,,,,,,,,,,,,20_YC,24,F,20,2021_Nov_05_0950,Partial repeat,2021.2.3,120.10407839379704,
2,6,0,1,1,2,2,2,3,0,0,1,0,1,0,0,0,65,65,65,0,0,0,0,,,,,,,321.57674133094883,None,0.9468850650336607,321.6849876493163,None,"[87. 93. 87. 93. 93. 93. 93. 87. 87. 93. 87. 87. 93. 93. 93. 87. 93. 87.
 87. 87. 87. 87. 93. 87. 93. 93. 87. 87. 93. 87. 93. 93. 93. 87.]",322.717440666366,None,s,1,0.6364759135626628,322.717440666366,None,None,None,,,,,,,20_YC,24,F,20,2021_Nov_05_0950,Partial repeat,2021.2.3,120.10407839379704,
2,6,0,1,1,2,2,2,3,0,0,1,0,1,0,0,0,65,65,65,1,0,1,0,,,,,,,,,0.9005226365813388,323.41682964266715,None,"[87. 87. 93. 87. 93. 93. 87. 93. 87. 93. 87. 93. 93. 87. 87. 87. 87. 93.
 87. 93. 87. 87. 87. 93. 93. 93. 87. 87. 93. 87. 93. 87. 87. 87.]",324.39933888082464,None,s,1,0.5546179165992271,324.39933888082464,None,None,None,,,,,,,20_YC,24,F,20,2021_Nov_05_0950,Partial repeat,2021.2.3,120.10407839379704,
2,6,0,1,1,2,2,2,3,0,0,1,0,1,0,0,0,65,65,65,,,,,,,,,,,,,,,,,,,,,,,,,,,,,,,,20_YC,24,F,20,2021_Nov_05_0950,Partial repeat,2021.2.3,120.10407839379704,
7,5,0,1,1,3,3,2,2,0,0,1,1,1,0,0,0,66,66,66,0,0,0,0,,,,,,,324.9738342538885,None,0.9757098802363477,325.073759655887,None,"[93. 87. 87. 87. 93. 93. 93. 87. 93. 93. 93. 93. 93. 93. 87. 87. 87. 93.
 87. 87. 93. 87. 93. 87. 93. 87. 93. 87. 93. 87. 93. 93. 87. 93.]",326.13119241986806,None,s,1,0.5827823503504987,326.13119241986806,None,None,None,,,,,,,20_YC,24,F,20,2021_Nov_05_0950,Partial repeat,2021.2.3,120.10407839379704,
7,5,0,1,1,3,3,2,2,0,0,1,1,1,0,0,0,66,66,66,1,0,1,0,,,,,,,,,0.8665366013648976,326.7723295294552,None,"[87. 87. 87. 93. 87. 87. 87. 93. 87. 93. 93. 87. 93. 93. 93. 87. 87. 93.
 87. 93. 87. 87. 87. 87. 87. 93. 93. 87. 93. 87. 87. 87. 87. 93.]",327.71316362875973,None,s,1,0.7119225233946054,327.71316362875973,None,None,None,,,,,,,20_YC,24,F,20,2021_Nov_05_0950,Partial repeat,2021.2.3,120.10407839379704,
7,5,0,1,1,3,3,2,2,0,0,1,1,1,0,0,0,66,66,66,,,,,,,,,,,,,,,,,,,,,,,,,,,,,,,,20_YC,24,F,20,2021_Nov_05_0950,Partial repeat,2021.2.3,120.10407839379704,
5,7,0,1,1,2,2,3,3,1,1,1,1,1,0,0,0,67,67,67,0,0,0,0,,,,,,,328.4458612862029,None,0.7042731220907417,328.53745294328564,None,"[93. 93. 93. 93. 93. 93. 87. 87. 93. 93. 87. 87. 93. 93. 93. 87. 87. 87.
 87. 87. 87. 93. 93. 93. 87. 87. 87. 93. 87. 87. 93. 93. 93. 93.]",329.3284537816312,None,l,1,1.9287554373413514,329.3284537816312,None,None,None,,,,,,,20_YC,24,F,20,2021_Nov_05_0950,Partial repeat,2021.2.3,120.10407839379704,
5,7,0,1,1,2,2,3,3,1,1,1,1,1,0,0,0,67,67,67,1,0,1,0,,,,,,,,,0.8991663645478883,331.31841063281286,None,"[93. 93. 87. 93. 93. 87. 87. 87. 87. 87. 93. 87. 87. 93. 87. 93. 87. 87.
 87. 93. 93. 87. 87. 87. 87. 87. 93. 87. 87. 87. 87. 93. 87. 87.]",332.30090447671387,None,l,1,0.732169819297269,332.30090447671387,None,None,None,,,,,,,20_YC,24,F,20,2021_Nov_05_0950,Partial repeat,2021.2.3,120.10407839379704,
5,7,0,1,1,2,2,3,3,1,1,1,1,1,0,0,0,67,67,67,,,,,,,,,,,,,,,,,,,,,,,,,,,,,,,,20_YC,24,F,20,2021_Nov_05_0950,Partial repeat,2021.2.3,120.10407839379704,
3,7,0,1,1,3,3,2,2,0,1,1,1,0,0,0,0,68,68,68,0,0,0,0,,,,,,,333.0419714782911,None,0.8774940583175018,333.2001339941746,None,"[93. 93. 93. 87. 93. 93. 93. 93. 87. 93. 87. 87. 87. 87. 93. 93. 93. 87.
 93. 93. 87. 93. 93. 87. 93. 87. 93. 87. 93. 87. 93. 87. 93. 93.]",334.1659844017695,None,s,1,0.7071140632242532,334.1659844017695,None,None,None,,,,,,,20_YC,24,F,20,2021_Nov_05_0950,Partial repeat,2021.2.3,120.10407839379704,
3,7,0,1,1,3,3,2,2,0,1,1,1,0,0,0,0,68,68,68,1,0,1,0,,,,,,,,,0.8008308645802336,334.9403248059841,None,"[93. 93. 93. 93. 93. 93. 87. 93. 93. 93. 87. 87. 87. 93. 87. 87. 87. 93.
 87. 93. 93. 87. 87. 93. 87. 93. 87. 87. 93. 93. 87. 87. 93. 87.]",335.8229076800021,None,l,1,0.6342190514124013,335.8229076800021,None,None,None,,,,,,,20_YC,24,F,20,2021_Nov_05_0950,Partial repeat,2021.2.3,120.10407839379704,
3,7,0,1,1,3,3,2,2,0,1,1,1,0,0,0,0,68,68,68,,,,,,,,,,,,,,,,,,,,,,,,,,,,,,,,20_YC,24,F,20,2021_Nov_05_0950,Partial repeat,2021.2.3,120.10407839379704,
3,3,0,1,1,2,2,3,2,1,1,1,0,1,0,0,0,69,69,69,0,0,0,0,,,,,,,336.48899567228955,None,0.8051468702359663,336.6472027673742,None,"[87. 87. 87. 93. 87. 93. 93. 93. 93. 93. 87. 93. 93. 87. 87. 93. 93. 93.
 87. 87. 93. 93. 93. 93. 93. 87. 93. 87. 93. 87. 87. 87. 93. 93.]",337.5297731335586,None,l,1,0.5273809868040189,337.5297731335586,None,None,None,,,,,,,20_YC,24,F,20,2021_Nov_05_0950,Partial repeat,2021.2.3,120.10407839379704,
3,3,0,1,1,2,2,3,2,1,1,1,0,1,0,0,0,69,69,69,1,0,1,0,,,,,,,,,0.7168363338949288,338.12925627139566,None,"[87. 93. 93. 93. 87. 93. 87. 87. 93. 87. 87. 87. 93. 87. 87. 93. 87. 93.
 87. 87. 93. 87. 87. 87. 93. 87. 87. 87. 87. 93. 93. 93. 93. 93.]",338.9285815539604,None,l,1,0.5540903425992383,338.9285815539604,None,None,None,,,,,,,20_YC,24,F,20,2021_Nov_05_0950,Partial repeat,2021.2.3,120.10407839379704,
3,3,0,1,1,2,2,3,2,1,1,1,0,1,0,0,0,69,69,69,,,,,,,,,,,,,,,,,,,,,,,,,,,,,,,,20_YC,24,F,20,2021_Nov_05_0950,Partial repeat,2021.2.3,120.10407839379704,
1,2,0,1,1,3,2,2,2,1,1,0,1,1,0,0,0,70,70,70,0,0,0,0,,,,,,,339.4947576142238,None,0.9706851268482031,339.64462487083256,None,"[93. 93. 93. 93. 93. 87. 87. 87. 87. 93. 93. 93. 87. 87. 93. 93. 93. 93.
 87. 93. 93. 87. 93. 93. 87. 87. 87. 87. 87. 87. 93. 93. 93. 87.]",340.70203197771934,None,l,1,0.5071968714960349,340.70203197771934,None,None,None,,,,,,,20_YC,24,F,20,2021_Nov_05_0950,Partial repeat,2021.2.3,120.10407839379704,
1,2,0,1,1,3,2,2,2,1,1,0,1,1,0,0,0,70,70,70,1,0,1,0,,,,,,,,,0.7724234864302317,341.2765664778517,None,"[87. 93. 93. 93. 87. 87. 93. 87. 87. 87. 93. 87. 93. 93. 93. 93. 87. 87.
 87. 87. 93. 93. 93. 93. 87. 93. 87. 93. 93. 93. 93. 93. 93. 87.]",342.1341583799597,None,l,1,0.49906902476118375,342.1341583799597,None,None,None,,,,,,,20_YC,24,F,20,2021_Nov_05_0950,Partial repeat,2021.2.3,120.10407839379704,
1,2,0,1,1,3,2,2,2,1,1,0,1,1,0,0,0,70,70,70,,,,,,,,,,,,,,,,,,,,,,,,,,,,,,,,20_YC,24,F,20,2021_Nov_05_0950,Partial repeat,2021.2.3,120.10407839379704,
6,2,0,1,1,3,3,3,2,1,0,1,0,0,0,0,0,71,71,71,0,0,0,0,,,,,,,342.6503929063265,None,0.7337698188576371,342.7919466229812,None,"[93. 93. 93. 87. 93. 87. 93. 93. 93. 93. 87. 87. 93. 93. 87. 93. 93. 87.
 93. 87. 93. 87. 87. 87. 93. 93. 87. 93. 93. 93. 87. 93. 93. 87.]",343.6162243918145,None,l,1,0.6004103776469947,343.6162243918145,None,None,None,,,,,,,20_YC,24,F,20,2021_Nov_05_0950,Partial repeat,2021.2.3,120.10407839379704,
6,2,0,1,1,3,3,3,2,1,0,1,0,0,0,0,0,71,71,71,1,0,1,0,,,,,,,,,0.9624335234010504,344.29065991970606,None,"[93. 93. 93. 87. 87. 93. 87. 87. 93. 93. 93. 93. 87. 87. 93. 93. 93. 87.
 87. 93. 87. 93. 93. 93. 87. 93. 93. 93. 87. 93. 87. 87. 87. 93.]",345.33144283310753,None,s,1,0.7578743791400484,345.33144283310753,None,None,None,,,,,,,20_YC,24,F,20,2021_Nov_05_0950,Partial repeat,2021.2.3,120.10407839379704,
6,2,0,1,1,3,3,3,2,1,0,1,0,0,0,0,0,71,71,71,,,,,,,,,,,,,,,,,,,,,,,,,,,,,,,,20_YC,24,F,20,2021_Nov_05_0950,Partial repeat,2021.2.3,120.10407839379704,
8,8,0,1,1,2,3,3,3,1,1,0,1,1,0,0,0,72,72,72,0,0,0,0,,,,,,,346.1141198686612,None,0.9320462355014831,346.2306665777221,None,"[87. 87. 93. 93. 93. 87. 87. 93. 93. 93. 87. 87. 87. 87. 87. 87. 87. 93.
 87. 93. 87. 93. 93. 87. 93. 93. 93. 87. 87. 87. 87. 93. 87. 87.]",347.2464575570725,None,l,1,0.442724121575111,347.2464575570725,None,None,None,,,,,,,20_YC,24,F,20,2021_Nov_05_0950,Partial repeat,2021.2.3,120.10407839379704,
8,8,0,1,1,2,3,3,3,1,1,0,1,1,0,0,0,72,72,72,1,0,1,0,,,,,,,,,0.9912610457900353,347.7626872727342,None,"[87. 87. 93. 87. 93. 87. 87. 87. 87. 93. 93. 87. 93. 93. 93. 87. 87. 87.
 93. 93. 87. 93. 87. 93. 93. 87. 93. 87. 87. 93. 93. 93. 87. 93.]",348.8284560266268,None,l,1,0.42787668186429073,348.8284560266268,None,None,None,,,,,,,20_YC,24,F,20,2021_Nov_05_0950,Partial repeat,2021.2.3,120.10407839379704,
8,8,0,1,1,2,3,3,3,1,1,0,1,1,0,0,0,72,72,72,,,,,,,,,,,,,,,,,,,,,,,,,,,,,,,,20_YC,24,F,20,2021_Nov_05_0950,Partial repeat,2021.2.3,120.10407839379704,
5,8,0,1,1,3,3,2,3,0,1,1,0,0,0,0,0,73,73,73,0,0,0,0,,,,,,,349.27807030428676,None,0.8786512616235913,349.4112675053543,None,"[93. 87. 93. 87. 93. 87. 87. 87. 93. 93. 93. 93. 87. 93. 87. 87. 93. 87.
 93. 93. 93. 87. 93. 87. 87. 87. 87. 87. 93. 87. 93. 87. 93. 87.]",350.36879154444796,None,l,0,0.5355620720094976,350.36879154444796,None,350.9266482919111,None,,,,,,,20_YC,24,F,20,2021_Nov_05_0950,Partial repeat,2021.2.3,120.10407839379704,
5,8,0,1,1,3,3,2,3,0,1,1,0,0,0,0,0,73,73,73,1,0,1,0,,,,,,,,,0.7191585038013213,351.46785101951673,None,"[93. 87. 87. 87. 87. 87. 87. 93. 87. 87. 93. 93. 87. 93. 87. 93. 87. 93.
 93. 87. 87. 93. 87. 93. 87. 87. 87. 87. 93. 93. 87. 93. 87. 87.]",352.26718816848756,None,l,1,0.49319547446702927,352.26718816848756,None,None,None,,,,,,,20_YC,24,F,20,2021_Nov_05_0950,Partial repeat,2021.2.3,120.10407839379704,
5,8,0,1,1,3,3,2,3,0,1,1,0,0,0,0,0,73,73,73,,,,,,,,,,,,,,,,,,,,,,,,,,,,,,,,20_YC,24,F,20,2021_Nov_05_0950,Partial repeat,2021.2.3,120.10407839379704,
8,6,0,1,1,3,2,3,3,0,1,0,1,0,0,0,0,74,74,74,0,0,0,0,,,,,,,352.783394151337,None,0.914080804833924,352.89996042393204,None,"[87. 93. 93. 87. 87. 93. 93. 93. 93. 93. 87. 93. 87. 93. 87. 93. 87. 93.
 93. 87. 93. 87. 87. 87. 87. 87. 93. 87. 87. 93. 93. 87. 87. 93.]",353.89078833346275,None,s,1,0.5656472599764584,353.89078833346275,None,None,None,,,,,,,20_YC,24,F,20,2021_Nov_05_0950,Partial repeat,2021.2.3,120.10407839379704,
8,6,0,1,1,3,2,3,3,0,1,0,1,0,0,0,0,74,74,74,1,0,1,0,,,,,,,,,0.8081174132703821,354.5235772660185,None,"[93. 87. 87. 87. 87. 93. 87. 93. 87. 87. 93. 93. 93. 87. 93. 87. 87. 93.
 87. 93. 93. 93. 93. 93. 87. 93. 93. 87. 87. 93. 87. 87. 93. 87.]",355.4144752835589,None,l,1,0.5619651462423008,355.4144752835589,None,None,None,,,,,,,20_YC,24,F,20,2021_Nov_05_0950,Partial repeat,2021.2.3,120.10407839379704,
8,6,0,1,1,3,2,3,3,0,1,0,1,0,0,0,0,74,74,74,,,,,,,,,,,,,,,,,,,,,,,,,,,,,,,,20_YC,24,F,20,2021_Nov_05_0950,Partial repeat,2021.2.3,120.10407839379704,
1,7,0,1,1,2,2,3,3,0,1,1,1,0,0,0,0,75,75,75,0,0,0,0,,,,,,,355.9889975965716,None,0.9257090905870545,356.12221532331455,None,"[93. 93. 87. 87. 93. 87. 93. 93. 93. 87. 93. 87. 93. 93. 93. 87. 93. 87.
 87. 93. 93. 87. 93. 87. 87. 93. 93. 93. 93. 93. 93. 87. 93. 87.]",357.1296841034416,None,s,1,0.5267857422181805,357.1296841034416,None,None,None,,,,,,,20_YC,24,F,20,2021_Nov_05_0950,Partial repeat,2021.2.3,120.10407839379704,
1,7,0,1,1,2,2,3,3,0,1,1,1,0,0,0,0,75,75,75,1,0,1,0,,,,,,,,,0.7276742566638639,357.7208466456236,None,"[87. 87. 93. 87. 93. 93. 93. 87. 87. 93. 87. 93. 87. 87. 93. 87. 93. 93.
 93. 93. 87. 93. 93. 93. 87. 87. 87. 93. 93. 93. 87. 87. 87. 93.]",358.52848097815104,None,l,1,0.5670978479408859,358.52848097815104,None,None,None,,,,,,,20_YC,24,F,20,2021_Nov_05_0950,Partial repeat,2021.2.3,120.10407839379704,
1,7,0,1,1,2,2,3,3,0,1,1,1,0,0,0,0,75,75,75,,,,,,,,,,,,,,,,,,,,,,,,,,,,,,,,20_YC,24,F,20,2021_Nov_05_0950,Partial repeat,2021.2.3,120.10407839379704,
4,2,0,1,1,2,3,2,3,0,0,0,0,1,0,0,0,76,76,76,0,0,0,0,,,,,,,359.11965474531166,None,0.8698244146403858,359.22788278299936,None,"[87. 93. 87. 93. 87. 87. 87. 93. 87. 87. 93. 87. 93. 87. 93. 87. 93. 93.
 87. 87. 93. 93. 93. 93. 87. 87. 93. 93. 93. 93. 93. 87. 93. 93.]",360.1854029735289,None,l,0,0.9741264806164054,360.1854029735289,None,361.1762382594741,None,,,,,,,20_YC,24,F,20,2021_Nov_05_0950,Partial repeat,2021.2.3,120.10407839379704,
4,2,0,1,1,2,3,2,3,0,0,0,0,1,0,0,0,76,76,76,1,0,1,0,,,,,,,,,0.9744463577861008,361.7174134057034,None,"[87. 93. 87. 93. 87. 93. 93. 93. 87. 87. 87. 87. 93. 87. 93. 87. 87. 93.
 87. 93. 87. 87. 87. 93. 93. 87. 93. 93. 93. 87. 87. 87. 87. 87.]",362.7748593189451,None,s,1,0.7686862786438269,362.7748593189451,None,None,None,,,,,,,20_YC,24,F,20,2021_Nov_05_0950,Partial repeat,2021.2.3,120.10407839379704,
4,2,0,1,1,2,3,2,3,0,0,0,0,1,0,0,0,76,76,76,,,,,,,,,,,,,,,,,,,,,,,,,,,,,,,,20_YC,24,F,20,2021_Nov_05_0950,Partial repeat,2021.2.3,120.10407839379704,
1,8,0,1,1,2,3,2,2,1,0,0,1,0,0,0,0,77,77,77,0,0,0,0,,,,,,,363.56584732874376,None,0.7523358253656997,363.65743225083907,None,"[93. 93. 93. 87. 93. 87. 87. 93. 93. 93. 87. 87. 87. 93. 93. 87. 93. 87.
 93. 87. 87. 87. 87. 93. 93. 93. 93. 93. 93. 87. 87. 93. 87. 87.]",364.490057234563,None,l,1,0.6215293733257568,364.490057234563,None,None,None,,,,,,,20_YC,24,F,20,2021_Nov_05_0950,Partial repeat,2021.2.3,120.10407839379704,
1,8,0,1,1,2,3,2,2,1,0,0,1,0,0,0,0,77,77,77,1,0,1,0,,,,,,,,,0.828448576512814,365.181128501632,None,"[93. 93. 87. 87. 93. 87. 87. 87. 87. 87. 93. 93. 87. 87. 87. 93. 93. 87.
 93. 87. 93. 93. 93. 93. 87. 93. 87. 93. 87. 87. 93. 87. 87. 93.]",366.08869753685485,None,s,1,0.7029098276229888,366.08869753685485,None,None,None,,,,,,,20_YC,24,F,20,2021_Nov_05_0950,Partial repeat,2021.2.3,120.10407839379704,
1,8,0,1,1,2,3,2,2,1,0,0,1,0,0,0,0,77,77,77,,,,,,,,,,,,,,,,,,,,,,,,,,,,,,,,20_YC,24,F,20,2021_Nov_05_0950,Partial repeat,2021.2.3,120.10407839379704,
1,4,0,1,1,2,3,3,3,0,1,0,1,0,0,0,0,78,78,78,0,0,0,0,,,,,,,366.8214032121398,None,0.723411299077695,367.5874156442849,None,"[87. 93. 87. 87. 93. 93. 87. 87. 93. 93. 93. 87. 87. 93. 87. 93. 93. 93.
 87. 87. 93. 93. 87. 87. 87. 93. 87. 87. 93. 93. 87. 87. 93. 93.]",368.38672777758893,None,s,1,0.6129153246554324,368.38672777758893,None,None,None,,,,,,,20_YC,24,F,20,2021_Nov_05_0950,Partial repeat,2021.2.3,120.10407839379704,
1,4,0,1,1,2,3,3,3,0,1,0,1,0,0,0,0,78,78,78,1,0,1,0,,,,,,,,,0.8902671464064434,369.06948037328493,None,"[87. 87. 87. 93. 87. 87. 87. 93. 87. 87. 87. 93. 93. 93. 87. 87. 87. 87.
 87. 87. 87. 93. 93. 93. 93. 87. 93. 93. 87. 87. 93. 93. 93. 93.]",370.0436350201376,None,l,1,0.5880587317763002,370.0436350201376,None,None,None,,,,,,,20_YC,24,F,20,2021_Nov_05_0950,Partial repeat,2021.2.3,120.10407839379704,
1,4,0,1,1,2,3,3,3,0,1,0,1,0,0,0,0,78,78,78,,,,,,,,,,,,,,,,,,,,,,,,,,,,,,,,20_YC,24,F,20,2021_Nov_05_0950,Partial repeat,2021.2.3,120.10407839379704,
3,5,0,1,1,3,3,2,3,1,1,1,0,1,0,0,0,79,79,79,0,0,0,0,,,,,,,370.6597846856653,None,0.7267803627510004,370.80138201938007,None,"[93. 93. 87. 93. 87. 87. 87. 87. 93. 93. 87. 87. 93. 93. 87. 93. 87. 87.
 87. 93. 93. 87. 93. 93. 93. 93. 93. 93. 93. 87. 87. 87. 93. 87.]",371.6089817148304,None,l,1,0.5422155979674699,371.6089817148304,None,None,None,,,,,,,20_YC,24,F,20,2021_Nov_05_0950,Partial repeat,2021.2.3,120.10407839379704,
3,5,0,1,1,3,3,2,3,1,1,1,0,1,0,0,0,79,79,79,1,0,1,0,,,,,,,,,0.9578213494305178,372.22511502396037,None,"[93. 93. 87. 87. 93. 87. 93. 87. 87. 87. 87. 87. 93. 93. 87. 93. 87. 93.
 87. 87. 93. 93. 87. 87. 87. 87. 93. 87. 87. 87. 87. 93. 93. 93.]",373.2575542503221,None,l,1,0.5892825751705004,373.2575542503221,None,None,None,,,,,,,20_YC,24,F,20,2021_Nov_05_0950,Partial repeat,2021.2.3,120.10407839379704,
3,5,0,1,1,3,3,2,3,1,1,1,0,1,0,0,0,79,79,79,,,,,,,,,,,,,,,,,,,,,,,,,,,,,,,,20_YC,24,F,20,2021_Nov_05_0950,Partial repeat,2021.2.3,120.10407839379704,
6,8,0,1,1,3,2,3,2,0,0,0,0,1,0,0,0,80,80,80,0,0,0,0,,,,,,,373.8736872387385,None,0.8114303023532182,374.00692645329787,None,"[93. 87. 87. 87. 87. 93. 87. 87. 87. 93. 93. 87. 93. 87. 93. 93. 87. 93.
 93. 93. 87. 87. 93. 87. 87. 93. 93. 93. 93. 93. 87. 93. 87. 87.]",374.9061559707586,None,l,0,0.4606231519292123,374.9061559707586,None,375.3890814952697,None,,,,,,,20_YC,24,F,20,2021_Nov_05_0950,Partial repeat,2021.2.3,120.10407839379704,
6,8,0,1,1,3,2,3,2,0,0,0,0,1,0,0,0,80,80,80,1,0,1,0,,,,,,,,,0.954394762792123,375.938608346381,None,"[93. 87. 93. 93. 93. 87. 93. 93. 93. 87. 87. 93. 93. 87. 87. 87. 87. 93.
 87. 87. 93. 93. 93. 87. 93. 93. 87. 87. 87. 93. 87. 87. 93. 87.]",376.97938003480385,None,s,1,0.7714261355927192,376.97938003480385,None,None,None,,,,,,,20_YC,24,F,20,2021_Nov_05_0950,Partial repeat,2021.2.3,120.10407839379704,
6,8,0,1,1,3,2,3,2,0,0,0,0,1,0,0,0,80,80,80,,,,,,,,,,,,,,,,,,,,,,,,,,,,,,,,20_YC,24,F,20,2021_Nov_05_0950,Partial repeat,2021.2.3,120.10407839379704,
4,7,0,1,1,2,3,2,2,1,1,0,1,1,0,0,0,81,81,81,0,0,0,0,,,,,,,377.7703651581792,None,0.7177276318818828,378.7445425757028,None,"[93. 87. 87. 93. 87. 87. 87. 87. 93. 93. 93. 93. 87. 93. 87. 87. 93. 87.
 87. 93. 93. 93. 93. 93. 93. 87. 93. 87. 87. 87. 87. 87. 87. 87.]",379.5521884539228,None,l,1,0.5358821442596309,379.5521884539228,None,None,None,,,,,,,20_YC,24,F,20,2021_Nov_05_0950,Partial repeat,2021.2.3,120.10407839379704,
4,7,0,1,1,2,3,2,2,1,1,0,1,1,0,0,0,81,81,81,1,0,1,0,,,,,,,,,0.7126862974325424,380.1516802510289,None,"[87. 93. 87. 87. 93. 93. 93. 93. 93. 87. 87. 93. 93. 93. 93. 93. 87. 87.
 87. 93. 87. 93. 87. 87. 87. 87. 93. 93. 87. 87. 93. 87. 93. 93.]",380.94266858154106,None,l,1,0.536160844445476,380.94266858154106,None,None,None,,,,,,,20_YC,24,F,20,2021_Nov_05_0950,Partial repeat,2021.2.3,120.10407839379704,
4,7,0,1,1,2,3,2,2,1,1,0,1,1,0,0,0,81,81,81,,,,,,,,,,,,,,,,,,,,,,,,,,,,,,,,20_YC,24,F,20,2021_Nov_05_0950,Partial repeat,2021.2.3,120.10407839379704,
5,4,0,1,1,2,3,3,2,0,0,0,0,1,0,0,0,82,82,82,0,0,0,0,,,,,,,381.50053046042285,None,0.705326051448037,381.6254080279764,None,"[93. 87. 87. 87. 93. 87. 93. 93. 93. 87. 93. 87. 93. 93. 87. 93. 87. 93.
 87. 87. 87. 87. 87. 93. 93. 93. 93. 87. 87. 87. 87. 93. 93. 87.]",382.4080757628335,None,s,1,0.7348003128820437,382.4080757628335,None,None,None,,,,,,,20_YC,24,F,20,2021_Nov_05_0950,Partial repeat,2021.2.3,120.10407839379704,
5,4,0,1,1,2,3,3,2,0,0,0,0,1,0,0,0,82,82,82,1,0,1,0,,,,,,,,,0.8869338459646376,383.2157165096346,None,"[93. 93. 93. 87. 93. 93. 93. 87. 93. 87. 87. 87. 87. 87. 93. 87. 87. 87.
 93. 93. 87. 93. 87. 93. 93. 87. 87. 87. 93. 87. 87. 93. 93. 93.]",384.18154895726366,None,s,1,0.7693517595250796,384.18154895726366,None,None,None,,,,,,,20_YC,24,F,20,2021_Nov_05_0950,Partial repeat,2021.2.3,120.10407839379704,
5,4,0,1,1,2,3,3,2,0,0,0,0,1,0,0,0,82,82,82,,,,,,,,,,,,,,,,,,,,,,,,,,,,,,,,20_YC,24,F,20,2021_Nov_05_0950,Partial repeat,2021.2.3,120.10407839379704,
4,8,0,1,1,2,3,2,3,1,1,0,0,1,0,0,0,83,83,83,0,0,0,0,,,,,,,384.97255364417333,None,0.8338561550376,385.06412958628584,None,"[93. 87. 87. 87. 87. 93. 87. 93. 93. 87. 93. 93. 87. 93. 93. 93. 87. 87.
 93. 87. 93. 87. 93. 93. 87. 93. 93. 93. 93. 87. 93. 87. 93. 87.]",385.98834847208786,None,l,1,0.5785745868984122,385.98834847208786,None,None,None,,,,,,,20_YC,24,F,20,2021_Nov_05_0950,Partial repeat,2021.2.3,120.10407839379704,
4,8,0,1,1,2,3,2,3,1,1,0,0,1,0,0,0,83,83,83,1,0,1,0,,,,,,,,,0.7015549190907536,386.6377692952574,None,"[93. 87. 87. 93. 93. 93. 87. 87. 93. 87. 87. 93. 87. 87. 87. 87. 87. 87.
 87. 87. 87. 87. 93. 87. 93. 87. 93. 93. 93. 93. 87. 93. 87. 87.]",387.4204767986105,None,l,1,0.6184764998274659,387.4204767986105,None,None,None,,,,,,,20_YC,24,F,20,2021_Nov_05_0950,Partial repeat,2021.2.3,120.10407839379704,
4,8,0,1,1,2,3,2,3,1,1,0,0,1,0,0,0,83,83,83,,,,,,,,,,,,,,,,,,,,,,,,,,,,,,,,20_YC,24,F,20,2021_Nov_05_0950,Partial repeat,2021.2.3,120.10407839379704,
2,4,0,1,1,3,3,2,2,1,1,1,1,1,0,0,0,84,84,84,0,0,0,0,,,,,,,388.05324392263606,None,0.7645900351008854,388.1781384880146,None,"[87. 87. 87. 87. 93. 93. 93. 93. 93. 87. 87. 93. 93. 87. 93. 93. 93. 93.
 93. 93. 87. 87. 93. 93. 87. 87. 93. 93. 87. 87. 93. 93. 93. 87.]",389.01910523449624,None,l,1,0.5229484030639924,389.01910523449624,None,None,None,,,,,,,20_YC,24,F,20,2021_Nov_05_0950,Partial repeat,2021.2.3,120.10407839379704,
2,4,0,1,1,3,3,2,2,1,1,1,1,1,0,0,0,84,84,84,1,0,1,0,,,,,,,,,0.8687984493896246,389.60191158180464,None,"[87. 87. 93. 87. 93. 87. 93. 87. 93. 93. 87. 93. 87. 93. 87. 87. 93. 93.
 87. 87. 87. 93. 93. 87. 87. 93. 93. 93. 93. 93. 93. 93. 87. 87.]",390.5511095731108,None,l,1,0.49499564034022114,390.5511095731108,None,None,None,,,,,,,20_YC,24,F,20,2021_Nov_05_0950,Partial repeat,2021.2.3,120.10407839379704,
2,4,0,1,1,3,3,2,2,1,1,1,1,1,0,0,0,84,84,84,,,,,,,,,,,,,,,,,,,,,,,,,,,,,,,,20_YC,24,F,20,2021_Nov_05_0950,Partial repeat,2021.2.3,120.10407839379704,
1,3,0,1,1,2,2,2,2,1,0,1,1,0,0,0,0,85,85,85,0,0,0,0,,,,,,,391.0673444201914,None,0.7317709747524631,391.2005538083786,None,"[93. 87. 87. 87. 93. 87. 87. 93. 93. 87. 87. 87. 93. 87. 87. 93. 87. 87.
 87. 93. 87. 87. 93. 93. 93. 87. 93. 87. 93. 87. 87. 87. 87. 87.]",392.0165186786853,None,l,1,0.4695005065289024,392.0165186786853,None,None,None,,,,,,,20_YC,24,F,20,2021_Nov_05_0950,Partial repeat,2021.2.3,120.10407839379704,
1,3,0,1,1,2,2,2,2,1,0,1,1,0,0,0,0,85,85,85,1,0,1,0,,,,,,,,,0.7289301897249049,392.5577461012442,None,"[87. 93. 93. 87. 87. 93. 87. 87. 87. 93. 87. 93. 87. 93. 93. 93. 87. 87.
 87. 93. 87. 93. 93. 87. 93. 87. 87. 87. 87. 87. 93. 87. 93. 87.]",393.3737042365635,None,s,1,0.6803363954156794,393.3737042365635,None,None,None,,,,,,,20_YC,24,F,20,2021_Nov_05_0950,Partial repeat,2021.2.3,120.10407839379704,
1,3,0,1,1,2,2,2,2,1,0,1,1,0,0,0,0,85,85,85,,,,,,,,,,,,,,,,,,,,,,,,,,,,,,,,20_YC,24,F,20,2021_Nov_05_0950,Partial repeat,2021.2.3,120.10407839379704,
6,1,0,1,1,2,2,3,3,0,0,1,1,1,0,0,0,86,86,86,0,0,0,0,,,,,,,394.07309417500574,None,0.8474524573048996,394.16470924418695,None,"[93. 93. 93. 93. 87. 87. 87. 87. 93. 93. 93. 87. 87. 93. 87. 93. 87. 87.
 87. 93. 87. 87. 93. 87. 93. 93. 93. 87. 87. 93. 93. 87. 93. 93.]",395.08889253077086,None,s,1,0.6291780738258694,395.08889253077086,None,None,None,,,,,,,20_YC,24,F,20,2021_Nov_05_0950,Partial repeat,2021.2.3,120.10407839379704,
6,1,0,1,1,2,2,3,3,0,0,1,1,1,0,0,0,86,86,86,1,0,1,0,,,,,,,,,0.9411126406336411,395.7882997877516,None,"[87. 87. 87. 87. 93. 93. 87. 87. 93. 93. 93. 93. 93. 87. 93. 93. 93. 87.
 87. 87. 93. 93. 87. 87. 93. 93. 87. 93. 87. 93. 93. 93. 93. 93.]",396.8124251534455,None,s,1,0.5536772633824967,396.8124251534455,None,None,None,,,,,,,20_YC,24,F,20,2021_Nov_05_0950,Partial repeat,2021.2.3,120.10407839379704,
6,1,0,1,1,2,2,3,3,0,0,1,1,1,0,0,0,86,86,86,,,,,,,,,,,,,,,,,,,,,,,,,,,,,,,,20_YC,24,F,20,2021_Nov_05_0950,Partial repeat,2021.2.3,120.10407839379704,
8,1,0,1,1,2,2,3,2,0,1,1,0,0,0,0,0,87,87,87,0,0,0,0,,,,,,,397.38693367577,None,0.8200245586962345,397.50349449623263,None,"[87. 87. 87. 93. 93. 93. 87. 93. 87. 93. 87. 87. 93. 87. 93. 87. 93. 93.
 93. 87. 93. 87. 87. 87. 93. 87. 93. 87. 93. 87. 93. 93. 93. 87.]",398.4027371629538,None,s,1,0.5633849456937696,398.4027371629538,None,None,None,,,,,,,20_YC,24,F,20,2021_Nov_05_0950,Partial repeat,2021.2.3,120.10407839379704,
8,1,0,1,1,2,2,3,2,0,1,1,0,0,0,0,0,87,87,87,1,0,1,0,,,,,,,,,0.8342573371619828,399.0355315476422,None,"[93. 93. 93. 87. 87. 87. 93. 87. 87. 87. 93. 93. 93. 87. 87. 87. 87. 93.
 93. 93. 93. 93. 87. 93. 93. 93. 93. 87. 93. 87. 93. 87. 93. 87.]",399.9597372841838,None,l,1,0.5424080261741437,399.9597372841838,None,None,None,,,,,,,20_YC,24,F,20,2021_Nov_05_0950,Partial repeat,2021.2.3,120.10407839379704,
8,1,0,1,1,2,2,3,2,0,1,1,0,0,0,0,0,87,87,87,,,,,,,,,,,,,,,,,,,,,,,,,,,,,,,,20_YC,24,F,20,2021_Nov_05_0950,Partial repeat,2021.2.3,120.10407839379704,
7,3,0,1,1,2,3,2,3,1,0,0,0,0,0,0,0,88,88,88,0,0,0,0,,,,,,,400.52593066298573,None,0.8258127296221571,400.6674718718068,None,"[93. 87. 87. 93. 93. 93. 87. 93. 87. 93. 93. 93. 93. 93. 93. 93. 93. 87.
 93. 87. 93. 87. 93. 93. 87. 93. 93. 87. 87. 87. 93. 87. 93. 87.]",401.57501204279856,None,l,1,0.5441209579271344,401.57501204279856,None,None,None,,,,,,,20_YC,24,F,20,2021_Nov_05_0950,Partial repeat,2021.2.3,120.10407839379704,
7,3,0,1,1,2,3,2,3,1,0,0,0,0,0,0,0,88,88,88,1,0,1,0,,,,,,,,,0.766267764026022,402.18284367838055,None,"[87. 87. 87. 87. 87. 87. 93. 93. 93. 93. 93. 93. 93. 93. 87. 87. 93. 87.
 93. 87. 87. 87. 93. 93. 87. 87. 87. 93. 93. 93. 93. 87. 87. 87.]",403.0237831641996,None,s,1,0.7104138862544005,403.0237831641996,None,None,None,,,,,,,20_YC,24,F,20,2021_Nov_05_0950,Partial repeat,2021.2.3,120.10407839379704,
7,3,0,1,1,2,3,2,3,1,0,0,0,0,0,0,0,88,88,88,,,,,,,,,,,,,,,,,,,,,,,,,,,,,,,,20_YC,24,F,20,2021_Nov_05_0950,Partial repeat,2021.2.3,120.10407839379704,
1,5,0,1,1,3,3,3,2,0,1,1,0,0,0,0,0,89,89,89,0,0,0,0,,,,,,,403.74815156671843,None,0.7823053481815506,403.8813760284486,None,"[93. 93. 87. 93. 93. 87. 87. 87. 87. 87. 87. 93. 87. 87. 87. 87. 87. 93.
 87. 93. 93. 87. 93. 87. 93. 87. 87. 93. 87. 93. 93. 93. 87. 87.]",404.7389865319499,None,s,1,0.5152390876787649,404.7389865319499,None,None,None,,,,,,,20_YC,24,F,20,2021_Nov_05_0950,Partial repeat,2021.2.3,120.10407839379704,
1,5,0,1,1,3,3,3,2,0,1,1,0,0,0,0,0,89,89,89,1,0,1,0,,,,,,,,,0.8811743980067852,405.3218153292157,None,"[87. 87. 87. 87. 87. 87. 93. 87. 87. 93. 93. 93. 87. 87. 87. 93. 87. 93.
 87. 87. 93. 87. 87. 93. 87. 93. 87. 87. 87. 87. 87. 87. 93. 93.]",406.27934193401893,None,l,1,0.5261106399264008,406.27934193401893,None,None,None,,,,,,,20_YC,24,F,20,2021_Nov_05_0950,Partial repeat,2021.2.3,120.10407839379704,
1,5,0,1,1,3,3,3,2,0,1,1,0,0,0,0,0,89,89,89,,,,,,,,,,,,,,,,,,,,,,,,,,,,,,,,20_YC,24,F,20,2021_Nov_05_0950,Partial repeat,2021.2.3,120.10407839379704,
2,1,0,1,1,2,3,2,2,0,1,0,1,0,0,0,0,90,90,90,0,0,0,0,,,,,,,406.8288694265575,None,0.7463090425500475,406.970400372541,None,"[93. 87. 93. 87. 93. 93. 93. 93. 87. 93. 93. 87. 93. 87. 93. 87. 93. 93.
 87. 87. 93. 87. 93. 93. 87. 87. 87. 93. 93. 87. 93. 93. 93. 93.]",407.8030394676666,None,l,0,0.8742206421522951,407.8030394676666,None,408.6939625008738,None,,,,,,,20_YC,24,F,20,2021_Nov_05_0950,Partial repeat,2021.2.3,120.10407839379704,
2,1,0,1,1,2,3,2,2,0,1,0,1,0,0,0,0,90,90,90,1,0,1,0,,,,,,,,,0.877545710370752,409.22681031646107,None,"[93. 87. 87. 93. 87. 87. 93. 93. 93. 93. 93. 93. 93. 87. 93. 87. 93. 87.
 87. 87. 93. 93. 93. 93. 87. 93. 87. 87. 93. 87. 93. 87. 87. 93.]",410.18431992343926,None,l,1,0.5409837367315049,410.18431992343926,None,None,None,,,,,,,20_YC,24,F,20,2021_Nov_05_0950,Partial repeat,2021.2.3,120.10407839379704,
2,1,0,1,1,2,3,2,2,0,1,0,1,0,0,0,0,90,90,90,,,,,,,,,,,,,,,,,,,,,,,,,,,,,,,,20_YC,24,F,20,2021_Nov_05_0950,Partial repeat,2021.2.3,120.10407839379704,
6,3,0,1,1,3,2,2,3,0,1,0,0,0,0,0,0,91,91,91,0,0,0,0,,,,,,,410.7505088122498,None,0.7343688622092396,410.8670802162635,None,"[87. 87. 93. 87. 93. 87. 87. 87. 87. 93. 87. 93. 87. 93. 93. 93. 87. 87.
 87. 93. 93. 93. 87. 93. 87. 87. 93. 87. 93. 93. 93. 87. 93. 87.]",411.6830559908353,None,s,1,0.5942757664192868,411.6830559908353,None,None,None,,,,,,,20_YC,24,F,20,2021_Nov_05_0950,Partial repeat,2021.2.3,120.10407839379704,
6,3,0,1,1,3,2,2,3,0,1,0,0,0,0,0,0,91,91,91,1,0,1,0,,,,,,,,,0.8569464781479108,412.34914911454166,None,"[87. 87. 87. 93. 93. 87. 93. 93. 87. 87. 87. 87. 93. 87. 87. 87. 93. 87.
 87. 93. 87. 87. 93. 93. 93. 87. 93. 87. 87. 87. 87. 93. 87. 93.]",413.28166742889607,None,l,1,0.5797067061807866,413.28166742889607,None,None,None,,,,,,,20_YC,24,F,20,2021_Nov_05_0950,Partial repeat,2021.2.3,120.10407839379704,
6,3,0,1,1,3,2,2,3,0,1,0,0,0,0,0,0,91,91,91,,,,,,,,,,,,,,,,,,,,,,,,,,,,,,,,20_YC,24,F,20,2021_Nov_05_0950,Partial repeat,2021.2.3,120.10407839379704,
7,1,0,1,1,3,3,3,2,0,0,1,0,1,0,0,0,92,92,92,0,0,0,0,,,,,,,413.8811842416692,None,0.8554537897586891,414.03104315972246,None,"[87. 93. 87. 87. 93. 93. 87. 87. 93. 93. 87. 87. 93. 87. 93. 87. 93. 93.
 87. 93. 87. 93. 87. 87. 93. 93. 87. 87. 87. 87. 87. 93. 87. 87.]",414.9635621155044,None,s,1,0.7224589298491537,414.9635621155044,None,None,None,,,,,,,20_YC,24,F,20,2021_Nov_05_0950,Partial repeat,2021.2.3,120.10407839379704,
7,1,0,1,1,3,3,3,2,0,0,1,0,1,0,0,0,92,92,92,1,0,1,0,,,,,,,,,0.8035664069905499,415.74625326245996,None,"[87. 93. 87. 87. 93. 93. 93. 93. 87. 87. 87. 87. 93. 93. 93. 87. 87. 93.
 87. 87. 87. 93. 87. 93. 87. 93. 93. 87. 87. 93. 87. 87. 93. 93.]",416.62882908077677,None,s,1,0.5285875116596799,416.62882908077677,None,None,None,,,,,,,20_YC,24,F,20,2021_Nov_05_0950,Partial repeat,2021.2.3,120.10407839379704,
7,1,0,1,1,3,3,3,2,0,0,1,0,1,0,0,0,92,92,92,,,,,,,,,,,,,,,,,,,,,,,,,,,,,,,,20_YC,24,F,20,2021_Nov_05_0950,Partial repeat,2021.2.3,120.10407839379704,
5,3,0,1,1,2,3,3,2,1,0,0,0,0,0,0,0,93,93,93,0,0,0,0,,,,,,,417.1783338026444,None,0.8252617135532856,417.26993315685536,None,"[93. 87. 87. 87. 93. 93. 87. 93. 93. 87. 93. 93. 93. 93. 93. 93. 93. 93.
 87. 87. 93. 93. 93. 93. 87. 93. 93. 93. 87. 93. 93. 93. 87. 93.]",418.16916331574316,None,l,1,0.5242800062540027,418.16916331574316,None,None,None,,,,,,,20_YC,24,F,20,2021_Nov_05_0950,Partial repeat,2021.2.3,120.10407839379704,
5,3,0,1,1,2,3,3,2,1,0,0,0,0,0,0,0,93,93,93,1,0,1,0,,,,,,,,,0.8876746993594831,418.75200782797947,None,"[93. 93. 93. 93. 87. 87. 93. 87. 93. 87. 87. 93. 93. 93. 93. 93. 93. 93.
 93. 87. 87. 93. 87. 93. 87. 93. 87. 93. 93. 93. 93. 87. 87. 93.]",419.7178518213009,None,s,1,0.6876181994684885,419.7178518213009,None,None,None,,,,,,,20_YC,24,F,20,2021_Nov_05_0950,Partial repeat,2021.2.3,120.10407839379704,
5,3,0,1,1,2,3,3,2,1,0,0,0,0,0,0,0,93,93,93,,,,,,,,,,,,,,,,,,,,,,,,,,,,,,,,20_YC,24,F,20,2021_Nov_05_0950,Partial repeat,2021.2.3,120.10407839379704,
5,1,0,1,1,3,2,3,2,1,0,0,0,0,0,0,0,94,94,94,0,0,0,0,,,,,,,420.42557037324013,None,0.706451623101983,420.50049646477305,None,"[93. 93. 87. 93. 93. 87. 87. 87. 93. 87. 87. 93. 87. 87. 87. 93. 93. 93.
 87. 93. 87. 93. 87. 93. 93. 87. 93. 93. 93. 87. 93. 87. 87. 93.]",421.2831866495876,None,l,1,0.5773359906750102,421.2831866495876,None,None,None,,,,,,,20_YC,24,F,20,2021_Nov_05_0950,Partial repeat,2021.2.3,120.10407839379704,
5,1,0,1,1,3,2,3,2,1,0,0,0,0,0,0,0,94,94,94,1,0,1,0,,,,,,,,,0.7855642355475583,421.9326142077441,None,"[93. 93. 93. 93. 87. 87. 87. 93. 93. 93. 93. 93. 87. 87. 87. 87. 93. 93.
 87. 87. 93. 93. 93. 87. 93. 87. 87. 87. 87. 87. 93. 87. 87. 93.]",422.79856679471686,None,s,1,0.6299458623702776,422.79856679471686,None,None,None,,,,,,,20_YC,24,F,20,2021_Nov_05_0950,Partial repeat,2021.2.3,120.10407839379704,
5,1,0,1,1,3,2,3,2,1,0,0,0,0,0,0,0,94,94,94,,,,,,,,,,,,,,,,,,,,,,,,,,,,,,,,20_YC,24,F,20,2021_Nov_05_0950,Partial repeat,2021.2.3,120.10407839379704,
8,5,0,1,1,3,2,3,2,0,1,0,0,0,0,0,0,95,95,95,0,0,0,0,,,,,,,423.4479805621854,None,0.7916654053477646,423.53125418932245,None,"[87. 87. 87. 87. 87. 93. 93. 93. 87. 87. 87. 93. 93. 93. 93. 93. 87. 93.
 93. 87. 87. 87. 87. 87. 93. 87. 87. 93. 93. 93. 87. 87. 93. 87.]",424.3971641213759,None,s,1,0.5833952341884014,424.3971641213759,None,None,None,,,,,,,20_YC,24,F,20,2021_Nov_05_0950,Partial repeat,2021.2.3,120.10407839379704,
8,5,0,1,1,3,2,3,2,0,1,0,0,0,0,0,0,95,95,95,1,0,1,0,,,,,,,,,0.9355456114253174,425.0466144502036,None,"[93. 87. 87. 87. 93. 93. 93. 93. 93. 87. 93. 87. 93. 93. 93. 87. 93. 87.
 87. 87. 93. 93. 87. 87. 87. 93. 93. 93. 93. 87. 93. 93. 87. 93.]",426.06242146523823,None,l,1,0.6621702105678651,426.06242146523823,None,None,None,,,,,,,20_YC,24,F,20,2021_Nov_05_0950,Partial repeat,2021.2.3,120.10407839379704,
8,5,0,1,1,3,2,3,2,0,1,0,0,0,0,0,0,95,95,95,,,,,,,,,,,,,,,,,,,,,,,,,,,,,,,,20_YC,24,F,20,2021_Nov_05_0950,Partial repeat,2021.2.3,120.10407839379704,
6,5,0,1,1,3,2,2,3,0,0,0,0,1,0,0,0,96,96,96,0,0,0,0,,,,,,,426.7451676466608,None,0.7582670177757656,426.82843069024625,None,"[87. 87. 87. 93. 87. 87. 87. 93. 93. 93. 93. 87. 87. 93. 87. 93. 87. 93.
 93. 87. 93. 93. 87. 87. 87. 93. 87. 87. 87. 93. 87. 93. 87. 93.]",427.66106016396157,None,s,1,0.5355200585174771,427.66106016396157,None,None,None,,,,,,,20_YC,24,F,20,2021_Nov_05_0950,Partial repeat,2021.2.3,120.10407839379704,
6,5,0,1,1,3,2,2,3,0,0,0,0,1,0,0,0,96,96,96,1,0,1,0,,,,,,,,,0.8957937135753347,428.26887832956913,None,"[87. 93. 93. 93. 87. 93. 87. 93. 93. 87. 93. 93. 87. 87. 93. 93. 93. 93.
 87. 87. 93. 87. 93. 87. 87. 93. 87. 93. 93. 87. 87. 93. 93. 93.]",429.25135036494,None,s,1,0.7212626678310698,429.25135036494,None,None,None,,,,,,,20_YC,24,F,20,2021_Nov_05_0950,Partial repeat,2021.2.3,120.10407839379704,
6,5,0,1,1,3,2,2,3,0,0,0,0,1,0,0,0,96,96,96,,,,,,,,,,,,,,,,,,,,,,,,,,,,,,,,20_YC,24,F,20,2021_Nov_05_0950,Partial repeat,2021.2.3,120.10407839379704,
4,1,0,1,1,3,3,3,3,0,1,1,1,0,0,0,0,97,97,97,0,0,0,0,,,,,,,429.98407303805016,None,0.8229036619895792,430.0756390380386,None,"[93. 93. 93. 87. 93. 93. 87. 93. 87. 93. 87. 93. 87. 87. 93. 93. 87. 93.
 87. 93. 93. 93. 87. 87. 87. 87. 93. 87. 93. 93. 93. 87. 93. 93.]",430.9748801011915,None,l,0,0.5017716789234328,430.9748801011915,None,431.49944965532904,None,,,,,,,20_YC,24,F,20,2021_Nov_05_0950,Partial repeat,2021.2.3,120.10407839379704,
4,1,0,1,1,3,3,3,3,0,1,1,1,0,0,0,0,97,97,97,1,0,1,0,,,,,,,,,0.7968225941322343,432.032318317305,None,"[87. 93. 87. 93. 87. 87. 87. 87. 87. 87. 93. 93. 93. 87. 93. 87. 93. 87.
 87. 87. 87. 87. 93. 87. 87. 87. 87. 87. 93. 93. 87. 87. 93. 87.]",432.906574502108,None,l,1,0.7311922840074203,432.906574502108,None,None,None,,,,,,,20_YC,24,F,20,2021_Nov_05_0950,Partial repeat,2021.2.3,120.10407839379704,
4,1,0,1,1,3,3,3,3,0,1,1,1,0,0,0,0,97,97,97,,,,,,,,,,,,,,,,,,,,,,,,,,,,,,,,20_YC,24,F,20,2021_Nov_05_0950,Partial repeat,2021.2.3,120.10407839379704,
4,5,0,1,1,2,2,3,2,0,0,1,0,1,0,0,0,98,98,98,0,0,0,0,,,,,,,433.6559274622632,None,0.8090940640130828,433.7558345835821,None,"[87. 93. 87. 87. 93. 93. 93. 93. 87. 93. 93. 93. 93. 87. 87. 93. 87. 93.
 87. 93. 87. 93. 87. 93. 93. 93. 87. 87. 87. 93. 87. 87. 93. 87.]",434.6550653838974,None,s,1,0.9507477363645194,434.6550653838974,None,None,None,,,,,,,20_YC,24,F,20,2021_Nov_05_0950,Partial repeat,2021.2.3,120.10407839379704,
4,5,0,1,1,2,2,3,2,0,0,1,0,1,0,0,0,98,98,98,1,0,1,0,,,,,,,,,0.8315192609456352,435.6791984467195,None,"[87. 87. 93. 87. 93. 93. 93. 93. 93. 93. 93. 87. 87. 87. 93. 93. 93. 93.
 93. 93. 87. 87. 87. 93. 87. 87. 87. 87. 93. 87. 93. 93. 87. 93.]",436.5867492012626,None,s,1,0.6490831682342559,436.5867492012626,None,None,None,,,,,,,20_YC,24,F,20,2021_Nov_05_0950,Partial repeat,2021.2.3,120.10407839379704,
4,5,0,1,1,2,2,3,2,0,0,1,0,1,0,0,0,98,98,98,,,,,,,,,,,,,,,,,,,,,,,,,,,,,,,,20_YC,24,F,20,2021_Nov_05_0950,Partial repeat,2021.2.3,120.10407839379704,
3,8,0,1,1,3,2,3,3,0,0,0,1,1,0,0,0,99,99,99,0,0,0,0,,,,,,,437.2528538706613,None,0.9852365500979461,437.31945936653915,None,"[93. 87. 93. 87. 93. 93. 93. 93. 93. 93. 87. 87. 93. 93. 93. 87. 93. 87.
 93. 93. 93. 93. 87. 87. 87. 87. 87. 87. 87. 87. 87. 87. 93. 93.]",438.385213046889,None,s,1,0.6265479009548471,438.385213046889,None,None,None,,,,,,,20_YC,24,F,20,2021_Nov_05_0950,Partial repeat,2021.2.3,120.10407839379704,
3,8,0,1,1,3,2,3,3,0,0,0,1,1,0,0,0,99,99,99,1,0,1,0,,,,,,,,,0.8272853036795512,439.0762907282317,None,"[93. 93. 93. 87. 93. 87. 87. 87. 93. 93. 93. 87. 87. 93. 87. 93. 87. 87.
 87. 93. 93. 87. 93. 87. 87. 93. 93. 93. 93. 87. 93. 87. 93. 93.]",439.98385142489883,None,s,1,0.611933299373959,439.98385142489883,None,None,None,,,,,,,20_YC,24,F,20,2021_Nov_05_0950,Partial repeat,2021.2.3,120.10407839379704,
3,8,0,1,1,3,2,3,3,0,0,0,1,1,0,0,0,99,99,99,,,,,,,,,,,,,,,,,,,,,,,,,,,,,,,,20_YC,24,F,20,2021_Nov_05_0950,Partial repeat,2021.2.3,120.10407839379704,
8,2,0,1,1,3,2,3,3,1,1,0,1,1,0,0,0,100,100,100,0,0,0,0,,,,,,,440.62496929166537,None,0.8146661860842238,440.6832375147769,None,"[87. 87. 87. 93. 87. 93. 87. 93. 87. 93. 87. 87. 93. 87. 87. 87. 87. 93.
 93. 87. 87. 93. 93. 87. 87. 87. 93. 87. 93. 93. 93. 93. 93. 93.]",441.57416471726197,None,l,1,0.60565244270947,441.57416471726197,None,None,None,,,,,,,20_YC,24,F,20,2021_Nov_05_0950,Partial repeat,2021.2.3,120.10407839379704,
8,2,0,1,1,3,2,3,3,1,1,0,1,1,0,0,0,100,100,100,1,0,1,0,,,,,,,,,0.7066040026265785,442.2485906237432,None,"[87. 93. 87. 93. 87. 87. 87. 93. 93. 87. 93. 93. 93. 93. 93. 87. 87. 87.
 87. 87. 87. 87. 93. 93. 93. 93. 93. 93. 93. 87. 87. 87. 93. 87.]",443.0312618864507,None,l,1,0.5085756195965132,443.0312618864507,None,None,None,,,,,,,20_YC,24,F,20,2021_Nov_05_0950,Partial repeat,2021.2.3,120.10407839379704,
8,2,0,1,1,3,2,3,3,1,1,0,1,1,0,0,0,100,100,100,,,,,,,,,,,,,,,,,,,,,,,,,,,,,,,,20_YC,24,F,20,2021_Nov_05_0950,Partial repeat,2021.2.3,120.10407839379704,
