prime_tar_pos,probe_tar_pos,dimension,tar_color,tar_shape,prime_dist_color,probe_dist_color,prime_dist_shape,probe_dist_shape,prime_tar_ori,probe_tar_ori,col_rep,shape_rep,resp_rep,pos_fixed,sparse,MainLoop.thisRepN,MainLoop.thisTrialN,MainLoop.thisN,MainLoop.thisIndex,PrimeProbe.thisRepN,PrimeProbe.thisTrialN,PrimeProbe.thisN,PrimeProbe.thisIndex,Instruction.started,Instruction.stopped,instruction_key.keys,instruction_key.rt,instruction_key.started,instruction_key.stopped,PairStartText.started,PairStartText.stopped,fixdur,FixCross.started,FixCross.stopped,dist_ori,SearchFixCross.started,SearchFixCross.stopped,key_resp.keys,key_resp.corr,key_resp.rt,key_resp.started,key_resp.stopped,feedback_text.started,feedback_text.stopped,text_finish.started,text_finish.stopped,finish_key.keys,finish_key.rt,finish_key.started,finish_key.stopped,participant,age,gender,group,date,expName,psychopyVersion,frameRate,
,,,,,,,,,,,,,,,,,,,,,,,,21.87033834651629,None,space,8.4849466335736,21.87033834651629,None,,,,,,,,,,,,,,,,,,,,,,21_SU,23,F,21,2021_Nov_05_1142,Partial repeat,2021.2.3,120.10269052272326,
7,1,0,1,1,3,2,3,3,0,0,0,1,1,0,0,0,0,0,0,0,0,0,0,,,,,,,74.64286286988772,None,0.7617294318685716,113.40035810889185,None,"[87. 93. 93. 87. 87. 87. 93. 87. 93. 87. 87. 87. 93. 87. 93. 87. 87. 93.
 87. 93. 87. 87. 87. 93. 93. 87. 93. 93. 87. 87. 87. 87. 87. 93.]",114.24961081395213,None,s,1,1.045054791054099,114.24961081395213,None,None,None,,,,,,,21_SU,23,F,21,2021_Nov_05_1142,Partial repeat,2021.2.3,120.10269052272326,
7,1,0,1,1,3,2,3,3,0,0,0,1,1,0,0,0,0,0,0,1,0,1,0,,,,,,,,,0.9128541792820003,115.35698960182071,None,"[93. 93. 87. 93. 87. 87. 93. 93. 87. 93. 87. 93. 93. 87. 87. 87. 93. 87.
 93. 87. 93. 87. 93. 93. 93. 87. 93. 93. 93. 93. 87. 93. 93. 93.]",116.35614869055917,None,s,1,0.8586710750978455,116.35614869055917,None,None,None,,,,,,,21_SU,23,F,21,2021_Nov_05_1142,Partial repeat,2021.2.3,120.10269052272326,
7,1,0,1,1,3,2,3,3,0,0,0,1,1,0,0,0,0,0,0,,,,,,,,,,,,,,,,,,,,,,,,,,,,,,,,21_SU,23,F,21,2021_Nov_05_1142,Partial repeat,2021.2.3,120.10269052272326,
7,3,0,1,1,2,3,2,2,0,1,0,1,0,0,0,0,1,1,1,0,0,0,0,,,,,,,117.2303920468139,None,0.7273144297886072,118.8540172274561,None,"[93. 87. 93. 87. 93. 87. 93. 87. 87. 87. 93. 93. 93. 93. 93. 87. 87. 87.
 93. 93. 93. 87. 93. 87. 87. 93. 87. 93. 87. 87. 87. 87. 87. 87.]",119.66998722918197,None,s,1,0.9847936531486994,119.66998722918197,None,None,None,,,,,,,21_SU,23,F,21,2021_Nov_05_1142,Partial repeat,2021.2.3,120.10269052272326,
7,3,0,1,1,2,3,2,2,0,1,0,1,0,0,0,0,1,1,1,1,0,1,0,,,,,,,,,0.9035187584544268,120.71074384406074,None,"[87. 87. 87. 87. 87. 87. 87. 93. 87. 93. 87. 93. 87. 87. 93. 93. 87. 93.
 87. 93. 93. 93. 87. 93. 93. 87. 93. 93. 93. 93. 87. 87. 87. 87.]",121.69325179936368,None,l,1,0.8501792183387806,121.69325179936368,None,None,None,,,,,,,21_SU,23,F,21,2021_Nov_05_1142,Partial repeat,2021.2.3,120.10269052272326,
7,3,0,1,1,2,3,2,2,0,1,0,1,0,0,0,0,1,1,1,,,,,,,,,,,,,,,,,,,,,,,,,,,,,,,,21_SU,23,F,21,2021_Nov_05_1142,Partial repeat,2021.2.3,120.10269052272326,
5,8,0,1,1,2,2,2,3,0,1,1,0,0,0,0,0,2,2,2,0,0,0,0,,,,,,,122.56751471915504,None,0.932456929351783,123.749817994988,None,"[93. 87. 87. 93. 87. 93. 87. 87. 87. 87. 93. 93. 87. 93. 93. 87. 87. 93.
 87. 87. 93. 93. 87. 93. 93. 93. 87. 87. 87. 93. 93. 93. 87. 93.]",124.75730569722236,None,s,1,0.841686078726525,124.75730569722236,None,None,None,,,,,,,21_SU,23,F,21,2021_Nov_05_1142,Partial repeat,2021.2.3,120.10269052272326,
5,8,0,1,1,2,2,2,3,0,1,1,0,0,0,0,0,2,2,2,1,0,1,0,,,,,,,,,0.774590689596273,125.66486286603958,None,"[87. 93. 87. 87. 87. 87. 87. 87. 87. 93. 87. 93. 87. 93. 87. 93. 93. 87.
 93. 93. 93. 87. 87. 87. 93. 93. 87. 87. 87. 93. 87. 93. 93. 87.]",126.514145076756,None,l,1,0.9407282352558468,126.514145076756,None,None,None,,,,,,,21_SU,23,F,21,2021_Nov_05_1142,Partial repeat,2021.2.3,120.10269052272326,
5,8,0,1,1,2,2,2,3,0,1,1,0,0,0,0,0,2,2,2,,,,,,,,,,,,,,,,,,,,,,,,,,,,,,,,21_SU,23,F,21,2021_Nov_05_1142,Partial repeat,2021.2.3,120.10269052272326,
5,6,0,1,1,3,2,2,2,0,1,0,1,0,0,0,0,3,3,3,0,0,0,0,,,,,,,127.47998393865873,None,0.8880141117008039,128.27927875342448,None,"[93. 93. 87. 93. 93. 93. 93. 87. 87. 93. 87. 93. 93. 87. 93. 87. 87. 87.
 87. 87. 87. 93. 87. 93. 87. 87. 93. 93. 93. 93. 87. 93. 93. 87.]",129.24512114317713,None,s,1,0.866006117622419,129.24512114317713,None,None,None,,,,,,,21_SU,23,F,21,2021_Nov_05_1142,Partial repeat,2021.2.3,120.10269052272326,
5,6,0,1,1,3,2,2,2,0,1,0,1,0,0,0,0,3,3,3,1,0,1,0,,,,,,,,,0.7372489811636146,130.1610152640469,None,"[87. 87. 87. 93. 93. 93. 93. 93. 87. 93. 87. 87. 87. 87. 87. 87. 93. 93.
 87. 93. 93. 87. 87. 87. 87. 93. 93. 87. 93. 87. 93. 93. 87. 93.]",130.97699649075093,None,l,1,0.8609638571806499,130.97699649075093,None,None,None,,,,,,,21_SU,23,F,21,2021_Nov_05_1142,Partial repeat,2021.2.3,120.10269052272326,
5,6,0,1,1,3,2,2,2,0,1,0,1,0,0,0,0,3,3,3,,,,,,,,,,,,,,,,,,,,,,,,,,,,,,,,21_SU,23,F,21,2021_Nov_05_1142,Partial repeat,2021.2.3,120.10269052272326,
7,7,0,1,1,3,3,3,3,0,0,1,1,1,0,0,0,4,4,4,0,0,0,0,,,,,,,131.867875906898,None,0.8764551412774197,132.72548416540394,None,"[87. 87. 87. 93. 93. 87. 87. 93. 87. 93. 87. 87. 93. 87. 87. 93. 93. 87.
 87. 93. 93. 93. 87. 87. 87. 93. 87. 87. 87. 87. 93. 93. 93. 87.]",133.68301397734376,None,s,1,1.2109699186685248,133.68301397734376,None,None,None,,,,,,,21_SU,23,F,21,2021_Nov_05_1142,Partial repeat,2021.2.3,120.10269052272326,
7,7,0,1,1,3,3,3,3,0,0,1,1,1,0,0,0,4,4,4,1,0,1,0,,,,,,,,,0.8377393329088008,134.9652365616157,None,"[93. 93. 93. 87. 87. 87. 87. 87. 93. 87. 87. 93. 87. 87. 87. 87. 87. 87.
 93. 93. 87. 87. 87. 87. 87. 93. 87. 87. 87. 87. 87. 87. 93. 93.]",135.8811332481955,None,s,1,1.332897241100909,135.8811332481955,None,None,None,,,,,,,21_SU,23,F,21,2021_Nov_05_1142,Partial repeat,2021.2.3,120.10269052272326,
7,7,0,1,1,3,3,3,3,0,0,1,1,1,0,0,0,4,4,4,,,,,,,,,,,,,,,,,,,,,,,,,,,,,,,,21_SU,23,F,21,2021_Nov_05_1142,Partial repeat,2021.2.3,120.10269052272326,
5,2,0,1,1,2,2,2,2,1,0,1,1,0,0,0,0,5,5,5,0,0,0,0,,,,,,,137.23829731825663,None,0.9133514003293626,138.2790722138152,None,"[87. 93. 93. 93. 93. 87. 93. 87. 93. 87. 87. 87. 93. 87. 93. 87. 93. 93.
 87. 93. 93. 93. 87. 93. 87. 93. 93. 93. 93. 93. 93. 93. 87. 87.]",139.27820917330882,None,l,1,1.6638413644404864,139.27820917330882,None,None,None,,,,,,,21_SU,23,F,21,2021_Nov_05_1142,Partial repeat,2021.2.3,120.10269052272326,
5,2,0,1,1,2,2,2,2,1,0,1,1,0,0,0,0,5,5,5,1,0,1,0,,,,,,,,,0.822246113528589,140.99342023818735,None,"[93. 87. 87. 93. 93. 87. 93. 87. 87. 93. 93. 93. 87. 87. 93. 87. 87. 93.
 93. 87. 87. 87. 93. 87. 87. 87. 93. 93. 93. 87. 93. 93. 87. 93.]",141.89265841491851,None,s,1,1.801503220613995,141.89265841491851,None,None,None,,,,,,,21_SU,23,F,21,2021_Nov_05_1142,Partial repeat,2021.2.3,120.10269052272326,
5,2,0,1,1,2,2,2,2,1,0,1,1,0,0,0,0,5,5,5,,,,,,,,,,,,,,,,,,,,,,,,,,,,,,,,21_SU,23,F,21,2021_Nov_05_1142,Partial repeat,2021.2.3,120.10269052272326,
4,1,0,1,1,3,3,2,2,1,0,1,1,0,0,0,0,6,6,6,0,0,0,0,,,,,,,143.71608404750896,None,0.754981288932816,144.6319685469689,None,"[93. 87. 87. 93. 87. 87. 93. 93. 93. 87. 87. 87. 87. 87. 93. 93. 87. 93.
 93. 93. 87. 87. 93. 87. 93. 93. 93. 93. 87. 87. 93. 87. 93. 93.]",145.4645999449649,None,l,1,0.9006746247569026,145.4645999449649,None,None,None,,,,,,,21_SU,23,F,21,2021_Nov_05_1142,Partial repeat,2021.2.3,120.10269052272326,
4,1,0,1,1,3,3,2,2,1,0,1,1,0,0,0,0,6,6,6,1,0,1,0,,,,,,,,,0.9727144269234762,146.43043335473612,None,"[87. 93. 87. 87. 87. 93. 93. 87. 93. 93. 93. 93. 87. 87. 93. 87. 93. 87.
 93. 93. 87. 87. 93. 93. 93. 93. 87. 93. 93. 87. 93. 93. 87. 93.]",147.47953975021574,None,s,1,1.061659100289944,147.47953975021574,None,None,None,,,,,,,21_SU,23,F,21,2021_Nov_05_1142,Partial repeat,2021.2.3,120.10269052272326,
4,1,0,1,1,3,3,2,2,1,0,1,1,0,0,0,0,6,6,6,,,,,,,,,,,,,,,,,,,,,,,,,,,,,,,,21_SU,23,F,21,2021_Nov_05_1142,Partial repeat,2021.2.3,120.10269052272326,
3,5,0,1,1,3,2,2,2,1,1,0,1,1,0,0,0,7,7,7,0,0,0,0,,,,,,,148.57027606391875,None,0.9373955633559793,149.47782842203105,None,"[87. 93. 87. 93. 93. 93. 87. 93. 93. 87. 87. 87. 87. 93. 93. 93. 87. 93.
 87. 93. 87. 87. 87. 93. 93. 87. 93. 93. 93. 93. 93. 93. 87. 93.]",150.5019669369858,None,l,1,0.903556557866068,150.5019669369858,None,None,None,,,,,,,21_SU,23,F,21,2021_Nov_05_1142,Partial repeat,2021.2.3,120.10269052272326,
3,5,0,1,1,3,2,2,2,1,1,0,1,1,0,0,0,7,7,7,1,0,1,0,,,,,,,,,0.7805598894344098,151.47611292456804,None,"[93. 87. 93. 87. 87. 87. 93. 87. 87. 93. 93. 87. 87. 93. 93. 93. 87. 87.
 87. 87. 93. 87. 93. 87. 93. 93. 93. 93. 93. 93. 87. 93. 93. 93.]",152.3337269559206,None,l,1,1.5046371705311685,152.3337269559206,None,None,None,,,,,,,21_SU,23,F,21,2021_Nov_05_1142,Partial repeat,2021.2.3,120.10269052272326,
3,5,0,1,1,3,2,2,2,1,1,0,1,1,0,0,0,7,7,7,,,,,,,,,,,,,,,,,,,,,,,,,,,,,,,,21_SU,23,F,21,2021_Nov_05_1142,Partial repeat,2021.2.3,120.10269052272326,
4,5,0,1,1,2,2,3,2,1,0,1,0,0,0,0,0,8,8,8,0,0,0,0,,,,,,,153.8491035731995,None,0.923997294439693,156.0638669217833,None,"[87. 87. 93. 87. 87. 93. 93. 87. 93. 87. 87. 87. 87. 87. 87. 93. 87. 87.
 93. 93. 93. 87. 87. 87. 87. 93. 87. 87. 87. 87. 93. 93. 93. 93.]",157.07967650252704,None,l,1,0.7736444269985441,157.07967650252704,None,None,None,,,,,,,21_SU,23,F,21,2021_Nov_05_1142,Partial repeat,2021.2.3,120.10269052272326,
4,5,0,1,1,2,2,3,2,1,0,1,0,0,0,0,0,8,8,8,1,0,1,0,,,,,,,,,0.7333334533812192,157.90396132706246,None,"[87. 87. 87. 87. 93. 87. 93. 87. 87. 93. 87. 93. 87. 87. 87. 87. 87. 87.
 87. 87. 93. 87. 93. 87. 93. 87. 93. 87. 87. 87. 93. 87. 93. 87.]",158.71161329884217,None,s,1,0.7734077403047195,158.71161329884217,None,None,None,,,,,,,21_SU,23,F,21,2021_Nov_05_1142,Partial repeat,2021.2.3,120.10269052272326,
4,5,0,1,1,2,2,3,2,1,0,1,0,0,0,0,0,8,8,8,,,,,,,,,,,,,,,,,,,,,,,,,,,,,,,,21_SU,23,F,21,2021_Nov_05_1142,Partial repeat,2021.2.3,120.10269052272326,
1,6,0,1,1,2,3,3,2,1,0,0,0,0,0,0,0,9,9,9,0,0,0,0,,,,,,,159.51091965929936,None,0.8241160043474922,160.38517456124737,None,"[93. 87. 93. 87. 93. 93. 87. 93. 93. 93. 87. 93. 93. 87. 87. 93. 87. 87.
 93. 87. 93. 87. 93. 93. 87. 87. 87. 93. 87. 93. 93. 87. 93. 87.]",161.28439445729873,None,l,1,0.6160341800687092,161.28439445729873,None,None,None,,,,,,,21_SU,23,F,21,2021_Nov_05_1142,Partial repeat,2021.2.3,120.10269052272326,
1,6,0,1,1,2,3,3,2,1,0,0,0,0,0,0,0,9,9,9,1,0,1,0,,,,,,,,,0.9779916445250474,161.9671611643962,None,"[93. 87. 93. 87. 93. 87. 87. 87. 93. 87. 93. 87. 93. 87. 93. 87. 93. 93.
 87. 93. 93. 93. 93. 93. 93. 93. 93. 87. 87. 87. 93. 93. 93. 93.]",163.0245920040952,None,s,1,0.9084840028108374,163.0245920040952,None,None,None,,,,,,,21_SU,23,F,21,2021_Nov_05_1142,Partial repeat,2021.2.3,120.10269052272326,
1,6,0,1,1,2,3,3,2,1,0,0,0,0,0,0,0,9,9,9,,,,,,,,,,,,,,,,,,,,,,,,,,,,,,,,21_SU,23,F,21,2021_Nov_05_1142,Partial repeat,2021.2.3,120.10269052272326,
8,2,0,1,1,2,3,3,3,1,0,0,1,0,0,0,0,10,10,10,0,0,0,0,,,,,,,163.96543476266834,None,0.8515059324554027,164.9312800388443,None,"[87. 87. 87. 93. 93. 87. 87. 87. 93. 93. 93. 87. 87. 87. 93. 93. 87. 93.
 87. 93. 87. 93. 93. 93. 93. 93. 87. 87. 93. 93. 93. 93. 93. 93.]",165.86383138670772,None,l,1,0.8526557693576251,165.86383138670772,None,None,None,,,,,,,21_SU,23,F,21,2021_Nov_05_1142,Partial repeat,2021.2.3,120.10269052272326,
8,2,0,1,1,2,3,3,3,1,0,0,1,0,0,0,0,10,10,10,1,0,1,0,,,,,,,,,0.7591621645424617,166.77969536049113,None,"[93. 93. 87. 87. 87. 93. 87. 93. 93. 93. 87. 93. 93. 87. 93. 93. 93. 87.
 87. 87. 87. 93. 93. 87. 87. 87. 93. 87. 87. 93. 87. 93. 87. 87.]",167.6206608241182,None,s,1,1.033023538147063,167.6206608241182,None,None,None,,,,,,,21_SU,23,F,21,2021_Nov_05_1142,Partial repeat,2021.2.3,120.10269052272326,
8,2,0,1,1,2,3,3,3,1,0,0,1,0,0,0,0,10,10,10,,,,,,,,,,,,,,,,,,,,,,,,,,,,,,,,21_SU,23,F,21,2021_Nov_05_1142,Partial repeat,2021.2.3,120.10269052272326,
8,3,0,1,1,3,3,3,2,1,1,1,0,1,0,0,0,11,11,11,0,0,0,0,,,,,,,168.6614193632804,None,0.7868824894848427,169.89370554507605,None,"[87. 93. 93. 87. 87. 87. 87. 87. 93. 93. 87. 87. 93. 93. 87. 87. 93. 93.
 87. 87. 87. 87. 93. 87. 87. 93. 87. 87. 93. 93. 93. 93. 87. 87.]",170.7596459449278,None,l,1,0.8529238859928228,170.7596459449278,None,None,None,,,,,,,21_SU,23,F,21,2021_Nov_05_1142,Partial repeat,2021.2.3,120.10269052272326,
8,3,0,1,1,3,3,3,2,1,1,1,0,1,0,0,0,11,11,11,1,0,1,0,,,,,,,,,0.7438342801114934,171.67549997658807,None,"[93. 93. 93. 93. 87. 93. 87. 87. 87. 87. 87. 87. 93. 93. 93. 87. 93. 87.
 93. 87. 93. 93. 87. 93. 87. 87. 87. 87. 93. 93. 87. 87. 87. 93.]",172.49981751391806,None,l,1,0.7287839598984647,172.49981751391806,None,None,None,,,,,,,21_SU,23,F,21,2021_Nov_05_1142,Partial repeat,2021.2.3,120.10269052272326,
8,3,0,1,1,3,3,3,2,1,1,1,0,1,0,0,0,11,11,11,,,,,,,,,,,,,,,,,,,,,,,,,,,,,,,,21_SU,23,F,21,2021_Nov_05_1142,Partial repeat,2021.2.3,120.10269052272326,
1,2,0,1,1,3,2,2,3,0,1,0,0,0,0,0,0,12,12,12,0,0,0,0,,,,,,,173.24917400192226,None,0.7270292262150395,174.2066688560726,None,"[93. 93. 93. 87. 87. 87. 87. 93. 93. 93. 87. 93. 87. 87. 87. 93. 87. 93.
 87. 87. 87. 93. 93. 93. 87. 93. 87. 87. 93. 93. 93. 87. 87. 93.]",175.02264976206334,None,s,1,0.7173511587143366,175.02264976206334,None,None,None,,,,,,,21_SU,23,F,21,2021_Nov_05_1142,Partial repeat,2021.2.3,120.10269052272326,
1,2,0,1,1,3,2,2,3,0,1,0,0,0,0,0,0,12,12,12,1,0,1,0,,,,,,,,,0.8054133229538403,175.81363552686616,None,"[87. 93. 93. 87. 93. 93. 93. 93. 87. 93. 87. 87. 87. 87. 93. 93. 87. 93.
 93. 87. 87. 93. 87. 93. 87. 87. 87. 93. 93. 87. 93. 87. 93. 87.]",176.7045489386628,None,l,1,0.6831980384604321,176.7045489386628,None,None,None,,,,,,,21_SU,23,F,21,2021_Nov_05_1142,Partial repeat,2021.2.3,120.10269052272326,
1,2,0,1,1,3,2,2,3,0,1,0,0,0,0,0,0,12,12,12,,,,,,,,,,,,,,,,,,,,,,,,,,,,,,,,21_SU,23,F,21,2021_Nov_05_1142,Partial repeat,2021.2.3,120.10269052272326,
8,4,0,1,1,2,2,2,2,1,1,1,1,1,0,0,0,13,13,13,0,0,0,0,,,,,,,177.40395427136082,None,0.7914375428905289,178.30317224312876,None,"[93. 93. 93. 93. 87. 93. 87. 93. 87. 93. 87. 93. 93. 87. 87. 93. 93. 87.
 93. 93. 93. 93. 87. 93. 93. 87. 87. 87. 87. 87. 87. 87. 93. 93.]",179.1691043044275,None,l,1,0.9546003846726308,179.1691043044275,None,None,None,,,,,,,21_SU,23,F,21,2021_Nov_05_1142,Partial repeat,2021.2.3,120.10269052272326,
8,4,0,1,1,2,2,2,2,1,1,1,1,1,0,0,0,13,13,13,1,0,1,0,,,,,,,,,0.9679295539549975,180.17656987741702,None,"[87. 87. 93. 93. 87. 87. 93. 93. 93. 93. 87. 93. 87. 87. 93. 87. 93. 87.
 93. 87. 93. 93. 87. 93. 87. 87. 93. 87. 87. 93. 87. 93. 87. 93.]",181.22567627289664,None,l,1,2.3541073194637647,181.22567627289664,None,None,None,,,,,,,21_SU,23,F,21,2021_Nov_05_1142,Partial repeat,2021.2.3,120.10269052272326,
8,4,0,1,1,2,2,2,2,1,1,1,1,1,0,0,0,13,13,13,,,,,,,,,,,,,,,,,,,,,,,,,,,,,,,,21_SU,23,F,21,2021_Nov_05_1142,Partial repeat,2021.2.3,120.10269052272326,
3,2,0,1,1,2,2,2,3,1,1,1,0,1,0,0,0,14,14,14,0,0,0,0,,,,,,,183.5986524894115,None,0.9873772075017235,184.5145494967046,None,"[87. 87. 93. 93. 93. 87. 87. 93. 87. 93. 87. 93. 93. 93. 93. 87. 87. 93.
 93. 87. 93. 87. 93. 87. 87. 87. 93. 87. 93. 87. 93. 87. 87. 93.]",185.58864237410216,None,l,1,0.8231558838533601,185.58864237410216,None,None,None,,,,,,,21_SU,23,F,21,2021_Nov_05_1142,Partial repeat,2021.2.3,120.10269052272326,
3,2,0,1,1,2,2,2,3,1,1,1,0,1,0,0,0,14,14,14,1,0,1,0,,,,,,,,,0.8901683772266425,186.47120055316645,None,"[93. 87. 93. 93. 87. 93. 87. 93. 93. 93. 87. 93. 93. 93. 93. 93. 93. 87.
 93. 93. 87. 93. 87. 87. 93. 93. 93. 93. 93. 87. 87. 93. 87. 93.]",187.43704550862913,None,l,1,0.9427785577981922,187.43704550862913,None,None,None,,,,,,,21_SU,23,F,21,2021_Nov_05_1142,Partial repeat,2021.2.3,120.10269052272326,
3,2,0,1,1,2,2,2,3,1,1,1,0,1,0,0,0,14,14,14,,,,,,,,,,,,,,,,,,,,,,,,,,,,,,,,21_SU,23,F,21,2021_Nov_05_1142,Partial repeat,2021.2.3,120.10269052272326,
1,7,0,1,1,2,3,2,3,0,1,0,0,0,0,0,0,15,15,15,0,0,0,0,,,,,,,188.41120721118295,None,0.7597360664766925,189.42701005694016,None,"[93. 93. 93. 87. 87. 93. 93. 93. 93. 93. 87. 93. 93. 93. 87. 87. 87. 93.
 87. 93. 87. 87. 93. 93. 93. 87. 93. 93. 87. 93. 87. 87. 93. 87.]",190.26795659845902,None,s,1,1.0719363700945905,190.26795659845902,None,None,None,,,,,,,21_SU,23,F,21,2021_Nov_05_1142,Partial repeat,2021.2.3,120.10269052272326,
1,7,0,1,1,2,3,2,3,0,1,0,0,0,0,0,0,15,15,15,1,0,1,0,,,,,,,,,0.8156285952327619,191.40031385040584,None,"[93. 93. 87. 87. 93. 87. 93. 87. 93. 93. 87. 87. 93. 93. 93. 87. 93. 87.
 87. 93. 93. 93. 87. 87. 87. 93. 93. 87. 87. 87. 87. 93. 87. 93.]",192.29122790362908,None,l,1,0.7277701839639121,192.29122790362908,None,None,None,,,,,,,21_SU,23,F,21,2021_Nov_05_1142,Partial repeat,2021.2.3,120.10269052272326,
1,7,0,1,1,2,3,2,3,0,1,0,0,0,0,0,0,15,15,15,,,,,,,,,,,,,,,,,,,,,,,,,,,,,,,,21_SU,23,F,21,2021_Nov_05_1142,Partial repeat,2021.2.3,120.10269052272326,
1,3,0,1,1,2,3,2,2,0,0,0,1,1,0,0,0,16,16,16,0,0,0,0,,,,,,,193.04060138945988,None,0.7664055551853788,194.35612656131434,None,"[87. 87. 87. 93. 87. 93. 93. 93. 87. 87. 87. 87. 93. 87. 87. 93. 93. 93.
 87. 93. 87. 87. 93. 87. 93. 87. 87. 93. 87. 93. 93. 87. 87. 93.]",195.19709940135635,None,s,1,0.797887815325339,195.19709940135635,None,None,None,,,,,,,21_SU,23,F,21,2021_Nov_05_1142,Partial repeat,2021.2.3,120.10269052272326,
1,3,0,1,1,2,3,2,2,0,0,0,1,1,0,0,0,16,16,16,1,0,1,0,,,,,,,,,0.7917753684893415,196.06299458058038,None,"[93. 87. 87. 87. 93. 93. 87. 93. 87. 93. 87. 93. 87. 93. 87. 93. 87. 87.
 93. 93. 93. 87. 87. 87. 87. 87. 87. 93. 93. 93. 93. 93. 87. 87.]",196.92891734118075,None,s,1,1.562098157316541,196.92891734118075,None,None,None,,,,,,,21_SU,23,F,21,2021_Nov_05_1142,Partial repeat,2021.2.3,120.10269052272326,
1,3,0,1,1,2,3,2,2,0,0,0,1,1,0,0,0,16,16,16,,,,,,,,,,,,,,,,,,,,,,,,,,,,,,,,21_SU,23,F,21,2021_Nov_05_1142,Partial repeat,2021.2.3,120.10269052272326,
7,8,0,1,1,3,2,2,3,0,0,0,0,1,0,0,0,17,17,17,0,0,0,0,,,,,,,198.51090169933286,None,0.9866743912856663,199.15201700039052,None,"[93. 87. 93. 93. 93. 87. 93. 87. 87. 87. 87. 87. 93. 93. 93. 93. 87. 87.
 93. 87. 93. 93. 93. 87. 93. 93. 87. 93. 87. 93. 93. 87. 93. 87.]",200.21779697926195,None,s,1,1.1212400044851165,200.21779697926195,None,None,None,,,,,,,21_SU,23,F,21,2021_Nov_05_1142,Partial repeat,2021.2.3,120.10269052272326,
7,8,0,1,1,3,2,2,3,0,0,0,0,1,0,0,0,17,17,17,1,0,1,0,,,,,,,,,0.7003347801826325,201.40842822716604,None,"[93. 87. 93. 87. 93. 87. 87. 93. 93. 93. 93. 87. 87. 87. 87. 93. 93. 87.
 87. 93. 87. 93. 87. 87. 93. 93. 87. 87. 93. 93. 93. 93. 93. 87.]",202.18275868925684,None,s,1,0.9163142272527693,202.18275868925684,None,None,None,,,,,,,21_SU,23,F,21,2021_Nov_05_1142,Partial repeat,2021.2.3,120.10269052272326,
7,8,0,1,1,3,2,2,3,0,0,0,0,1,0,0,0,17,17,17,,,,,,,,,,,,,,,,,,,,,,,,,,,,,,,,21_SU,23,F,21,2021_Nov_05_1142,Partial repeat,2021.2.3,120.10269052272326,
6,7,0,1,1,2,2,3,3,1,0,1,1,0,0,0,0,18,18,18,0,0,0,0,,,,,,,203.11528662502042,None,0.9630816985800796,204.16439302050003,None,"[87. 93. 93. 93. 93. 87. 93. 87. 93. 93. 87. 93. 87. 93. 87. 87. 93. 93.
 93. 87. 93. 93. 93. 93. 87. 93. 93. 93. 87. 93. 93. 93. 93. 93.]",205.20517112319703,None,l,1,0.8531038063656524,205.20517112319703,None,None,None,,,,,,,21_SU,23,F,21,2021_Nov_05_1142,Partial repeat,2021.2.3,120.10269052272326,
6,7,0,1,1,2,2,3,3,1,0,1,1,0,0,0,0,18,18,18,1,0,1,0,,,,,,,,,0.7745359865876528,206.11273374414577,None,"[87. 93. 93. 87. 93. 87. 93. 87. 93. 93. 93. 87. 87. 87. 87. 93. 87. 87.
 87. 87. 93. 87. 87. 93. 87. 87. 87. 93. 87. 87. 93. 87. 93. 93.]",206.9620137098691,None,s,1,1.2562120350457917,206.9620137098691,None,None,None,,,,,,,21_SU,23,F,21,2021_Nov_05_1142,Partial repeat,2021.2.3,120.10269052272326,
6,7,0,1,1,2,2,3,3,1,0,1,1,0,0,0,0,18,18,18,,,,,,,,,,,,,,,,,,,,,,,,,,,,,,,,21_SU,23,F,21,2021_Nov_05_1142,Partial repeat,2021.2.3,120.10269052272326,
8,6,0,1,1,3,3,3,3,0,1,1,1,0,0,0,0,19,19,19,0,0,0,0,,,,,,,208.24425778195746,None,0.8173148850192727,208.97696377795637,None,"[87. 93. 87. 87. 87. 93. 87. 87. 93. 93. 93. 93. 87. 87. 87. 93. 87. 87.
 87. 93. 93. 93. 87. 87. 87. 87. 87. 93. 93. 93. 87. 93. 87. 93.]",209.8761820704376,None,s,1,0.8540181610615036,209.8761820704376,None,None,None,,,,,,,21_SU,23,F,21,2021_Nov_05_1142,Partial repeat,2021.2.3,120.10269052272326,
8,6,0,1,1,3,3,3,3,0,1,1,1,0,0,0,0,19,19,19,1,0,1,0,,,,,,,,,0.8140301009614885,210.79206721132414,None,"[87. 87. 87. 93. 93. 93. 87. 93. 87. 93. 87. 87. 93. 87. 93. 87. 87. 87.
 87. 87. 87. 87. 93. 87. 87. 87. 93. 93. 93. 87. 93. 93. 87. 87.]",211.68297420884755,None,l,1,1.1112645262537626,211.68297420884755,None,None,None,,,,,,,21_SU,23,F,21,2021_Nov_05_1142,Partial repeat,2021.2.3,120.10269052272326,
8,6,0,1,1,3,3,3,3,0,1,1,1,0,0,0,0,19,19,19,,,,,,,,,,,,,,,,,,,,,,,,,,,,,,,,21_SU,23,F,21,2021_Nov_05_1142,Partial repeat,2021.2.3,120.10269052272326,
8,7,0,1,1,2,2,2,2,0,1,1,1,0,0,0,0,20,20,20,0,0,0,0,,,,,,,212.80702850438956,None,0.9754452499210525,213.98100958099985,None,"[93. 87. 87. 87. 93. 87. 93. 93. 87. 87. 93. 93. 87. 87. 87. 93. 93. 87.
 93. 87. 93. 87. 93. 93. 87. 87. 87. 93. 87. 87. 93. 87. 93. 93.]",215.03844330712218,None,s,1,0.827827719996094,215.03844330712218,None,None,None,,,,,,,21_SU,23,F,21,2021_Nov_05_1142,Partial repeat,2021.2.3,120.10269052272326,
8,7,0,1,1,2,2,2,2,0,1,1,1,0,0,0,0,20,20,20,1,0,1,0,,,,,,,,,0.9108526843598007,215.9293519082139,None,"[87. 87. 87. 87. 87. 93. 93. 87. 93. 93. 93. 93. 93. 87. 87. 87. 87. 93.
 87. 93. 93. 93. 87. 87. 87. 87. 87. 87. 93. 93. 87. 93. 93. 93.]",216.92017244132967,None,l,1,1.1221492277609286,216.92017244132967,None,None,None,,,,,,,21_SU,23,F,21,2021_Nov_05_1142,Partial repeat,2021.2.3,120.10269052272326,
8,7,0,1,1,2,2,2,2,0,1,1,1,0,0,0,0,20,20,20,,,,,,,,,,,,,,,,,,,,,,,,,,,,,,,,21_SU,23,F,21,2021_Nov_05_1142,Partial repeat,2021.2.3,120.10269052272326,
5,4,0,1,1,2,2,3,2,1,1,1,0,1,0,0,0,21,21,21,0,0,0,0,,,,,,,218.0608631174773,None,0.8024239387454594,219.07664928612303,None,"[93. 87. 87. 87. 87. 87. 93. 87. 93. 87. 93. 93. 93. 87. 93. 93. 93. 87.
 93. 93. 93. 93. 93. 87. 93. 87. 93. 93. 93. 87. 93. 87. 87. 93.]",219.95922670800883,None,l,1,1.0111271325140478,219.95922670800883,None,None,None,,,,,,,21_SU,23,F,21,2021_Nov_05_1142,Partial repeat,2021.2.3,120.10269052272326,
5,4,0,1,1,2,2,3,2,1,1,1,0,1,0,0,0,21,21,21,1,0,1,0,,,,,,,,,0.8826300741725288,221.04163569107095,None,"[87. 93. 87. 93. 87. 93. 87. 87. 87. 93. 87. 87. 87. 87. 93. 87. 93. 87.
 87. 87. 93. 93. 93. 93. 93. 93. 87. 93. 87. 93. 93. 93. 87. 87.]",221.99916454086906,None,l,1,1.4824886839460305,221.99916454086906,None,None,None,,,,,,,21_SU,23,F,21,2021_Nov_05_1142,Partial repeat,2021.2.3,120.10269052272326,
5,4,0,1,1,2,2,3,2,1,1,1,0,1,0,0,0,21,21,21,,,,,,,,,,,,,,,,,,,,,,,,,,,,,,,,21_SU,23,F,21,2021_Nov_05_1142,Partial repeat,2021.2.3,120.10269052272326,
2,4,0,1,1,2,2,3,3,1,1,1,1,1,0,0,0,22,22,22,0,0,0,0,,,,,,,223.48954794124347,None,0.7373833982796214,224.28885077385075,None,"[93. 87. 87. 93. 87. 87. 87. 87. 87. 93. 93. 93. 87. 93. 87. 93. 87. 87.
 87. 93. 93. 87. 93. 87. 93. 87. 93. 87. 93. 87. 93. 87. 87. 87.]",225.10484130125133,None,l,1,0.6651848340361539,225.10484130125133,None,None,None,,,,,,,21_SU,23,F,21,2021_Nov_05_1142,Partial repeat,2021.2.3,120.10269052272326,
2,4,0,1,1,2,2,3,3,1,1,1,1,1,0,0,0,22,22,22,1,0,1,0,,,,,,,,,0.7163358254839218,225.83753446870196,None,"[87. 87. 87. 93. 87. 87. 93. 93. 87. 87. 93. 87. 87. 93. 87. 87. 93. 93.
 87. 93. 87. 87. 93. 93. 87. 87. 87. 87. 87. 87. 93. 93. 87. 93.]",226.6285430041762,None,l,1,1.1578273415552758,226.6285430041762,None,None,None,,,,,,,21_SU,23,F,21,2021_Nov_05_1142,Partial repeat,2021.2.3,120.10269052272326,
2,4,0,1,1,2,2,3,3,1,1,1,1,1,0,0,0,22,22,22,,,,,,,,,,,,,,,,,,,,,,,,,,,,,,,,21_SU,23,F,21,2021_Nov_05_1142,Partial repeat,2021.2.3,120.10269052272326,
4,8,0,1,1,3,3,2,3,0,0,1,0,1,0,0,0,23,23,23,0,0,0,0,,,,,,,227.80253402291146,None,0.7689810879106697,228.5435753673928,None,"[87. 93. 93. 87. 87. 93. 93. 93. 93. 93. 93. 87. 87. 87. 93. 87. 87. 93.
 87. 87. 93. 93. 87. 87. 87. 87. 93. 93. 93. 87. 93. 87. 87. 87.]",229.3928274310265,None,s,1,0.8254647016210583,229.3928274310265,None,None,None,,,,,,,21_SU,23,F,21,2021_Nov_05_1142,Partial repeat,2021.2.3,120.10269052272326,
4,8,0,1,1,3,3,2,3,0,0,1,0,1,0,0,0,23,23,23,1,0,1,0,,,,,,,,,0.9225723152014345,230.28373923925483,None,"[87. 87. 87. 87. 93. 87. 87. 93. 93. 93. 93. 93. 87. 93. 87. 93. 93. 87.
 87. 93. 93. 93. 93. 87. 93. 93. 93. 93. 93. 93. 93. 87. 93. 93.]",231.2828874237266,None,s,1,0.8706481273939062,231.2828874237266,None,None,None,,,,,,,21_SU,23,F,21,2021_Nov_05_1142,Partial repeat,2021.2.3,120.10269052272326,
4,8,0,1,1,3,3,2,3,0,0,1,0,1,0,0,0,23,23,23,,,,,,,,,,,,,,,,,,,,,,,,,,,,,,,,21_SU,23,F,21,2021_Nov_05_1142,Partial repeat,2021.2.3,120.10269052272326,
2,7,0,1,1,3,3,3,3,1,1,1,1,1,0,0,0,24,24,24,0,0,0,0,,,,,,,232.1737896105451,None,0.9857239382223686,233.00638573003835,None,"[87. 93. 87. 87. 93. 87. 87. 87. 87. 93. 87. 87. 93. 87. 87. 87. 87. 93.
 87. 93. 93. 93. 87. 93. 87. 87. 87. 87. 87. 87. 93. 93. 87. 87.]",234.07217661317463,None,l,1,0.7534019418026219,234.07217661317463,None,None,None,,,,,,,21_SU,23,F,21,2021_Nov_05_1142,Partial repeat,2021.2.3,120.10269052272326,
2,7,0,1,1,3,3,3,3,1,1,1,1,1,0,0,0,24,24,24,1,0,1,0,,,,,,,,,0.7472071349165967,234.89644315702844,None,"[93. 87. 87. 93. 93. 87. 87. 87. 93. 87. 93. 87. 87. 87. 93. 93. 93. 93.
 87. 93. 93. 93. 93. 93. 87. 87. 93. 87. 87. 87. 87. 93. 87. 93.]",235.72076518435006,None,l,1,1.0256336535849186,235.72076518435006,None,None,None,,,,,,,21_SU,23,F,21,2021_Nov_05_1142,Partial repeat,2021.2.3,120.10269052272326,
2,7,0,1,1,3,3,3,3,1,1,1,1,1,0,0,0,24,24,24,,,,,,,,,,,,,,,,,,,,,,,,,,,,,,,,21_SU,23,F,21,2021_Nov_05_1142,Partial repeat,2021.2.3,120.10269052272326,
3,1,0,1,1,3,2,2,2,0,0,0,1,1,0,0,0,25,25,25,0,0,0,0,,,,,,,236.7698581098548,None,0.9472569875738949,237.58582843229397,None,"[87. 93. 93. 87. 93. 87. 87. 93. 93. 93. 87. 87. 87. 87. 93. 87. 87. 93.
 87. 87. 93. 93. 87. 87. 87. 93. 93. 93. 93. 93. 93. 87. 93. 93.]",238.6099477044272,None,s,1,1.7187443389311738,238.6099477044272,None,None,None,,,,,,,21_SU,23,F,21,2021_Nov_05_1142,Partial repeat,2021.2.3,120.10269052272326,
3,1,0,1,1,3,2,2,2,0,0,0,1,1,0,0,0,25,25,25,1,0,1,0,,,,,,,,,0.8089334627567681,240.38344334881458,None,"[87. 87. 87. 93. 93. 93. 87. 93. 93. 87. 87. 93. 93. 93. 93. 87. 93. 93.
 87. 93. 87. 93. 93. 93. 87. 93. 93. 87. 87. 87. 93. 87. 93. 87.]",241.2743490634848,None,s,1,1.7753929579694159,241.2743490634848,None,None,None,,,,,,,21_SU,23,F,21,2021_Nov_05_1142,Partial repeat,2021.2.3,120.10269052272326,
3,1,0,1,1,3,2,2,2,0,0,0,1,1,0,0,0,25,25,25,,,,,,,,,,,,,,,,,,,,,,,,,,,,,,,,21_SU,23,F,21,2021_Nov_05_1142,Partial repeat,2021.2.3,120.10269052272326,
8,5,0,1,1,2,3,2,3,0,0,0,0,1,0,0,0,26,26,26,0,0,0,0,,,,,,,243.0728093812604,None,0.7064266092830633,244.36336025831497,None,"[93. 93. 87. 93. 87. 93. 87. 93. 93. 93. 87. 87. 93. 93. 93. 93. 93. 93.
 87. 87. 87. 87. 93. 93. 87. 93. 93. 93. 87. 87. 93. 87. 87. 93.]",245.15436622808102,None,s,1,1.1584059090300798,245.15436622808102,None,None,None,,,,,,,21_SU,23,F,21,2021_Nov_05_1142,Partial repeat,2021.2.3,120.10269052272326,
8,5,0,1,1,2,3,2,3,0,0,0,0,1,0,0,0,26,26,26,1,0,1,0,,,,,,,,,0.7372295879787377,246.36998395790124,None,"[87. 87. 93. 93. 93. 93. 87. 87. 87. 87. 87. 93. 87. 87. 87. 87. 87. 87.
 93. 93. 87. 93. 87. 93. 93. 93. 87. 93. 93. 87. 87. 87. 93. 93.]",247.18596261889707,None,s,1,2.4868516728192844,247.18596261889707,None,None,None,,,,,,,21_SU,23,F,21,2021_Nov_05_1142,Partial repeat,2021.2.3,120.10269052272326,
8,5,0,1,1,2,3,2,3,0,0,0,0,1,0,0,0,26,26,26,,,,,,,,,,,,,,,,,,,,,,,,,,,,,,,,21_SU,23,F,21,2021_Nov_05_1142,Partial repeat,2021.2.3,120.10269052272326,
5,1,0,1,1,3,2,3,2,0,0,0,0,1,0,0,0,27,27,27,0,0,0,0,,,,,,,249.70049704205758,None,0.9483697365519792,250.3832124349674,None,"[93. 87. 87. 93. 93. 93. 93. 93. 87. 87. 93. 87. 87. 93. 93. 87. 93. 87.
 93. 87. 93. 93. 93. 87. 93. 93. 93. 93. 87. 87. 93. 93. 93. 93.]",251.4073451770755,None,s,1,0.8735714325657682,251.4073451770755,None,None,None,,,,,,,21_SU,23,F,21,2021_Nov_05_1142,Partial repeat,2021.2.3,120.10269052272326,
5,1,0,1,1,3,2,3,2,0,0,0,0,1,0,0,0,27,27,27,1,0,1,0,,,,,,,,,0.7079059072870029,252.33986188786275,None,"[87. 87. 93. 93. 87. 93. 93. 93. 87. 87. 93. 87. 93. 87. 87. 87. 87. 93.
 93. 87. 87. 87. 87. 87. 93. 87. 87. 93. 87. 93. 93. 87. 87. 87.]",253.13085759478872,None,s,1,0.9891175149523406,253.13085759478872,None,None,None,,,,,,,21_SU,23,F,21,2021_Nov_05_1142,Partial repeat,2021.2.3,120.10269052272326,
5,1,0,1,1,3,2,3,2,0,0,0,0,1,0,0,0,27,27,27,,,,,,,,,,,,,,,,,,,,,,,,,,,,,,,,21_SU,23,F,21,2021_Nov_05_1142,Partial repeat,2021.2.3,120.10269052272326,
2,8,0,1,1,2,3,3,2,0,1,0,0,0,0,0,0,28,28,28,0,0,0,0,,,,,,,254.13001540067035,None,0.8496363007193961,254.89601532498182,None,"[87. 87. 87. 93. 93. 93. 93. 87. 87. 93. 87. 93. 93. 87. 87. 93. 87. 87.
 87. 87. 93. 93. 93. 87. 87. 87. 87. 87. 87. 93. 87. 87. 93. 87.]",255.82024543576426,None,s,1,0.7636760044670154,255.82024543576426,None,None,None,,,,,,,21_SU,23,F,21,2021_Nov_05_1142,Partial repeat,2021.2.3,120.10269052272326,
2,8,0,1,1,2,3,3,2,0,1,0,0,0,0,0,0,28,28,28,1,0,1,0,,,,,,,,,0.9132700038019979,256.64452897744286,None,"[87. 87. 87. 87. 93. 93. 93. 87. 93. 87. 87. 87. 87. 87. 93. 93. 87. 93.
 93. 87. 93. 87. 87. 93. 87. 87. 87. 93. 87. 93. 93. 93. 93. 93.]",257.6353620183918,None,l,1,0.7725924861360909,257.6353620183918,None,None,None,,,,,,,21_SU,23,F,21,2021_Nov_05_1142,Partial repeat,2021.2.3,120.10269052272326,
2,8,0,1,1,2,3,3,2,0,1,0,0,0,0,0,0,28,28,28,,,,,,,,,,,,,,,,,,,,,,,,,,,,,,,,21_SU,23,F,21,2021_Nov_05_1142,Partial repeat,2021.2.3,120.10269052272326,
3,4,0,1,1,3,3,2,2,0,1,1,1,0,0,0,0,29,29,29,0,0,0,0,,,,,,,258.4180143589938,None,0.7441181293614263,259.18403545040655,None,"[93. 87. 93. 87. 87. 93. 87. 93. 93. 93. 87. 87. 93. 93. 87. 93. 87. 87.
 87. 93. 93. 93. 87. 87. 93. 93. 87. 87. 87. 87. 93. 87. 93. 87.]",260.01664119130965,None,s,1,1.1913377516002583,260.01664119130965,None,None,None,,,,,,,21_SU,23,F,21,2021_Nov_05_1142,Partial repeat,2021.2.3,120.10269052272326,
3,4,0,1,1,3,3,2,2,0,1,1,1,0,0,0,0,29,29,29,1,0,1,0,,,,,,,,,0.778820144373778,261.2738991021952,None,"[93. 93. 93. 93. 93. 93. 87. 93. 87. 87. 87. 93. 93. 93. 87. 87. 87. 93.
 93. 87. 93. 87. 93. 87. 93. 93. 93. 93. 93. 93. 93. 87. 87. 93.]",262.1315067192727,None,l,1,1.4125221087260798,262.1315067192727,None,None,None,,,,,,,21_SU,23,F,21,2021_Nov_05_1142,Partial repeat,2021.2.3,120.10269052272326,
3,4,0,1,1,3,3,2,2,0,1,1,1,0,0,0,0,29,29,29,,,,,,,,,,,,,,,,,,,,,,,,,,,,,,,,21_SU,23,F,21,2021_Nov_05_1142,Partial repeat,2021.2.3,120.10269052272326,
4,3,0,1,1,3,3,2,3,1,1,1,0,1,0,0,0,30,30,30,0,0,0,0,,,,,,,263.555289755187,None,0.9504986526968442,264.2213716539145,None,"[93. 87. 93. 93. 87. 87. 87. 87. 87. 93. 93. 93. 87. 93. 87. 93. 93. 93.
 93. 87. 93. 93. 87. 93. 93. 87. 93. 87. 87. 93. 93. 93. 93. 87.]",265.25384840377683,None,l,1,1.1076366131319446,265.25384840377683,None,None,None,,,,,,,21_SU,23,F,21,2021_Nov_05_1142,Partial repeat,2021.2.3,120.10269052272326,
4,3,0,1,1,3,3,2,3,1,1,1,0,1,0,0,0,30,30,30,1,0,1,0,,,,,,,,,0.9114872940438058,266.41116615983174,None,"[93. 93. 93. 87. 93. 87. 87. 87. 87. 87. 87. 93. 87. 93. 93. 93. 87. 87.
 87. 87. 87. 93. 87. 93. 87. 87. 93. 93. 93. 93. 87. 87. 87. 93.]",267.40199727649906,None,l,1,0.6865296121422944,267.40199727649906,None,None,None,,,,,,,21_SU,23,F,21,2021_Nov_05_1142,Partial repeat,2021.2.3,120.10269052272326,
4,3,0,1,1,3,3,2,3,1,1,1,0,1,0,0,0,30,30,30,,,,,,,,,,,,,,,,,,,,,,,,,,,,,,,,21_SU,23,F,21,2021_Nov_05_1142,Partial repeat,2021.2.3,120.10269052272326,
1,8,0,1,1,3,3,2,3,1,0,1,0,0,0,0,0,31,31,31,0,0,0,0,,,,,,,268.10972673270317,None,0.9578607914262042,268.8008143561701,None,"[87. 93. 93. 87. 87. 93. 93. 93. 93. 87. 93. 93. 93. 93. 87. 93. 93. 93.
 87. 87. 93. 87. 93. 93. 93. 87. 93. 93. 93. 87. 87. 93. 87. 93.]",269.8332616003745,None,l,1,0.8459743413104661,269.8332616003745,None,None,None,,,,,,,21_SU,23,F,21,2021_Nov_05_1142,Partial repeat,2021.2.3,120.10269052272326,
1,8,0,1,1,3,3,2,3,1,0,1,0,0,0,0,0,31,31,31,1,0,1,0,,,,,,,,,0.9739638893942406,270.7491246120162,None,"[93. 93. 93. 87. 87. 93. 93. 87. 87. 93. 87. 93. 93. 87. 93. 93. 87. 87.
 87. 93. 87. 93. 93. 87. 87. 87. 93. 93. 87. 93. 87. 93. 93. 87.]",271.79823613891585,None,s,1,0.8329126353573884,271.79823613891585,None,None,None,,,,,,,21_SU,23,F,21,2021_Nov_05_1142,Partial repeat,2021.2.3,120.10269052272326,
1,8,0,1,1,3,3,2,3,1,0,1,0,0,0,0,0,31,31,31,,,,,,,,,,,,,,,,,,,,,,,,,,,,,,,,21_SU,23,F,21,2021_Nov_05_1142,Partial repeat,2021.2.3,120.10269052272326,
6,4,0,1,1,3,3,3,2,1,0,1,0,0,0,0,0,32,32,32,0,0,0,0,,,,,,,272.6475202739157,None,0.7937708953051363,273.21368991990585,None,"[87. 93. 93. 93. 87. 87. 87. 93. 93. 87. 93. 87. 87. 93. 93. 87. 87. 93.
 93. 93. 93. 87. 93. 87. 87. 93. 93. 93. 93. 87. 87. 87. 93. 87.]",274.08796278181853,None,l,1,0.7992553384474377,274.08796278181853,None,None,None,,,,,,,21_SU,23,F,21,2021_Nov_05_1142,Partial repeat,2021.2.3,120.10269052272326,
6,4,0,1,1,3,3,3,2,1,0,1,0,0,0,0,0,32,32,32,1,0,1,0,,,,,,,,,0.8116202629093044,274.9538836181373,None,"[93. 87. 93. 93. 93. 87. 93. 93. 93. 93. 87. 87. 87. 87. 87. 87. 93. 93.
 93. 93. 87. 93. 87. 87. 93. 93. 87. 93. 93. 87. 93. 93. 93. 87.]",275.8447716935543,None,s,1,0.722473918290234,275.8447716935543,None,None,None,,,,,,,21_SU,23,F,21,2021_Nov_05_1142,Partial repeat,2021.2.3,120.10269052272326,
6,4,0,1,1,3,3,3,2,1,0,1,0,0,0,0,0,32,32,32,,,,,,,,,,,,,,,,,,,,,,,,,,,,,,,,21_SU,23,F,21,2021_Nov_05_1142,Partial repeat,2021.2.3,120.10269052272326,
4,4,0,1,1,3,3,3,3,1,0,1,1,0,0,0,0,33,33,33,0,0,0,0,,,,,,,276.5858114344692,None,0.9445761212175915,277.3851213227781,None,"[87. 93. 87. 93. 93. 93. 87. 93. 93. 93. 87. 93. 93. 87. 87. 87. 87. 87.
 87. 87. 93. 87. 93. 93. 93. 93. 93. 87. 87. 87. 93. 87. 87. 93.]",278.40924604704287,None,l,1,0.734032759949514,278.40924604704287,None,None,None,,,,,,,21_SU,23,F,21,2021_Nov_05_1142,Partial repeat,2021.2.3,120.10269052272326,
4,4,0,1,1,3,3,3,3,1,0,1,1,0,0,0,0,33,33,33,1,0,1,0,,,,,,,,,0.8404046845150178,279.2002343775557,None,"[87. 87. 87. 93. 87. 93. 87. 87. 93. 93. 87. 87. 87. 93. 93. 93. 93. 87.
 93. 93. 93. 87. 93. 87. 93. 87. 87. 87. 87. 87. 87. 87. 93. 93.]",280.11613940269035,None,s,1,0.8191710164073811,280.11613940269035,None,None,None,,,,,,,21_SU,23,F,21,2021_Nov_05_1142,Partial repeat,2021.2.3,120.10269052272326,
4,4,0,1,1,3,3,3,3,1,0,1,1,0,0,0,0,33,33,33,,,,,,,,,,,,,,,,,,,,,,,,,,,,,,,,21_SU,23,F,21,2021_Nov_05_1142,Partial repeat,2021.2.3,120.10269052272326,
5,5,0,1,1,2,2,2,3,0,0,1,0,1,0,0,0,34,34,34,0,0,0,0,,,,,,,280.9487380878918,None,0.755023065538909,281.6731372789245,None,"[93. 87. 87. 93. 87. 93. 93. 93. 93. 87. 93. 93. 87. 93. 93. 87. 93. 87.
 87. 93. 87. 87. 87. 87. 93. 87. 93. 87. 87. 87. 87. 87. 93. 93.]",282.5057443026826,None,s,1,0.734277464484876,282.5057443026826,None,None,None,,,,,,,21_SU,23,F,21,2021_Nov_05_1142,Partial repeat,2021.2.3,120.10269052272326,
5,5,0,1,1,2,2,2,3,0,0,1,0,1,0,0,0,34,34,34,1,0,1,0,,,,,,,,,0.7475540852791025,283.29673102962533,None,"[93. 87. 87. 93. 87. 87. 87. 87. 93. 87. 93. 87. 93. 87. 87. 93. 87. 87.
 93. 87. 93. 87. 87. 87. 87. 87. 87. 87. 87. 93. 87. 87. 93. 87.]",284.1210780726133,None,s,1,1.3573856546781826,284.1210780726133,None,None,None,,,,,,,21_SU,23,F,21,2021_Nov_05_1142,Partial repeat,2021.2.3,120.10269052272326,
5,5,0,1,1,2,2,2,3,0,0,1,0,1,0,0,0,34,34,34,,,,,,,,,,,,,,,,,,,,,,,,,,,,,,,,21_SU,23,F,21,2021_Nov_05_1142,Partial repeat,2021.2.3,120.10269052272326,
7,4,0,1,1,3,3,3,2,0,0,1,0,1,0,0,0,35,35,35,0,0,0,0,,,,,,,285.51151394174394,None,0.9696477745767416,286.1692765276721,None,"[87. 93. 93. 93. 87. 93. 87. 93. 87. 93. 93. 93. 93. 87. 93. 87. 93. 87.
 87. 87. 93. 93. 93. 87. 87. 87. 87. 93. 87. 87. 93. 87. 87. 87.]",287.21837779173165,None,s,1,0.8520367919600176,287.21837779173165,None,None,None,,,,,,,21_SU,23,F,21,2021_Nov_05_1142,Partial repeat,2021.2.3,120.10269052272326,
7,4,0,1,1,3,3,3,2,0,0,1,0,1,0,0,0,35,35,35,1,0,1,0,,,,,,,,,0.9422900995977909,288.1426079025141,None,"[87. 93. 93. 87. 87. 87. 87. 87. 87. 93. 87. 93. 93. 87. 87. 93. 93. 93.
 93. 87. 87. 87. 87. 93. 87. 87. 93. 93. 93. 87. 87. 87. 93. 93.]",289.17504841173013,None,s,1,0.9594123726938051,289.17504841173013,None,None,None,,,,,,,21_SU,23,F,21,2021_Nov_05_1142,Partial repeat,2021.2.3,120.10269052272326,
7,4,0,1,1,3,3,3,2,0,0,1,0,1,0,0,0,35,35,35,,,,,,,,,,,,,,,,,,,,,,,,,,,,,,,,21_SU,23,F,21,2021_Nov_05_1142,Partial repeat,2021.2.3,120.10269052272326,
2,6,0,1,1,2,2,3,2,0,1,1,0,0,0,0,0,36,36,36,0,0,0,0,,,,,,,290.14918798503913,None,0.8720569236533329,291.06509301017377,None,"[87. 93. 87. 93. 93. 87. 93. 93. 87. 93. 93. 87. 87. 93. 87. 87. 93. 87.
 87. 87. 93. 87. 93. 93. 93. 87. 87. 93. 87. 87. 93. 87. 87. 87.]",292.0142772107911,None,s,1,1.7202516932165963,292.0142772107911,None,None,None,,,,,,,21_SU,23,F,21,2021_Nov_05_1142,Partial repeat,2021.2.3,120.10269052272326,
2,6,0,1,1,2,2,3,2,0,1,1,0,0,0,0,0,36,36,36,1,0,1,0,,,,,,,,,0.7068015333798179,293.804414046489,None,"[93. 93. 87. 93. 93. 93. 87. 87. 87. 87. 87. 87. 87. 93. 93. 93. 87. 87.
 87. 87. 93. 93. 93. 93. 93. 93. 87. 93. 87. 87. 93. 93. 87. 93.]",294.5954084705618,None,l,1,1.1231520994324455,294.5954084705618,None,None,None,,,,,,,21_SU,23,F,21,2021_Nov_05_1142,Partial repeat,2021.2.3,120.10269052272326,
2,6,0,1,1,2,2,3,2,0,1,1,0,0,0,0,0,36,36,36,,,,,,,,,,,,,,,,,,,,,,,,,,,,,,,,21_SU,23,F,21,2021_Nov_05_1142,Partial repeat,2021.2.3,120.10269052272326,
1,4,0,1,1,3,2,3,2,1,0,0,0,0,0,0,0,37,37,37,0,0,0,0,,,,,,,295.73610235384604,None,0.8496944062490938,296.7768679487099,None,"[93. 87. 93. 93. 87. 93. 87. 87. 93. 93. 87. 93. 87. 87. 87. 87. 87. 87.
 87. 93. 87. 87. 93. 93. 93. 93. 93. 93. 87. 87. 87. 93. 93. 93.]",297.7010794580974,None,l,1,0.929527310060621,297.7010794580974,None,None,None,,,,,,,21_SU,23,F,21,2021_Nov_05_1142,Partial repeat,2021.2.3,120.10269052272326,
1,4,0,1,1,3,2,3,2,1,0,0,0,0,0,0,0,37,37,37,1,0,1,0,,,,,,,,,0.7734757482108345,298.691909612623,None,"[93. 87. 87. 87. 87. 93. 93. 93. 93. 93. 87. 87. 93. 93. 93. 87. 87. 93.
 87. 93. 93. 93. 93. 87. 87. 93. 93. 87. 93. 87. 87. 93. 87. 87.]",299.5411847676396,None,s,1,0.5774266675425679,299.5411847676396,None,None,None,,,,,,,21_SU,23,F,21,2021_Nov_05_1142,Partial repeat,2021.2.3,120.10269052272326,
1,4,0,1,1,3,2,3,2,1,0,0,0,0,0,0,0,37,37,37,,,,,,,,,,,,,,,,,,,,,,,,,,,,,,,,21_SU,23,F,21,2021_Nov_05_1142,Partial repeat,2021.2.3,120.10269052272326,
2,3,0,1,1,2,3,3,2,1,1,0,0,1,0,0,0,38,38,38,0,0,0,0,,,,,,,300.1406614912039,None,0.7170665333361704,300.64857734619636,None,"[87. 93. 93. 93. 93. 87. 87. 93. 87. 87. 93. 87. 93. 87. 93. 87. 93. 87.
 87. 87. 93. 87. 87. 93. 87. 87. 87. 87. 93. 87. 87. 93. 87. 87.]",301.44789749734355,None,s,0,0.7498439442597373,301.44789749734355,None,302.2138967802266,None,,,,,,,21_SU,23,F,21,2021_Nov_05_1142,Partial repeat,2021.2.3,120.10269052272326,
2,3,0,1,1,2,3,3,2,1,1,0,0,1,0,0,0,38,38,38,1,0,1,0,,,,,,,,,0.9899455665985979,302.75510528067844,None,"[87. 93. 87. 93. 87. 93. 93. 93. 93. 87. 93. 93. 87. 87. 87. 87. 87. 93.
 93. 87. 87. 87. 93. 87. 93. 87. 93. 93. 87. 93. 87. 93. 87. 87.]",303.8208692238668,None,l,1,0.9048163211928113,303.8208692238668,None,None,None,,,,,,,21_SU,23,F,21,2021_Nov_05_1142,Partial repeat,2021.2.3,120.10269052272326,
2,3,0,1,1,2,3,3,2,1,1,0,0,1,0,0,0,38,38,38,,,,,,,,,,,,,,,,,,,,,,,,,,,,,,,,21_SU,23,F,21,2021_Nov_05_1142,Partial repeat,2021.2.3,120.10269052272326,
1,5,0,1,1,3,2,2,2,1,0,0,1,0,0,0,0,39,39,39,0,0,0,0,,,,,,,304.7533987632005,None,0.7681682846859009,305.33622146690595,None,"[87. 93. 87. 93. 87. 87. 93. 87. 87. 87. 93. 93. 87. 87. 87. 87. 87. 87.
 87. 93. 93. 93. 87. 93. 87. 93. 93. 87. 87. 87. 87. 93. 93. 93.]",306.18549565978265,None,l,1,0.6366182253323132,306.18549565978265,None,None,None,,,,,,,21_SU,23,F,21,2021_Nov_05_1142,Partial repeat,2021.2.3,120.10269052272326,
1,5,0,1,1,3,2,2,2,1,0,0,1,0,0,0,0,39,39,39,1,0,1,0,,,,,,,,,0.7610104951702463,306.88490387890397,None,"[87. 87. 93. 87. 87. 93. 87. 87. 87. 93. 87. 93. 87. 87. 93. 87. 87. 87.
 87. 87. 93. 93. 93. 93. 87. 87. 87. 87. 87. 87. 87. 87. 93. 87.]",307.7258577968378,None,s,1,0.5678969813243384,307.7258577968378,None,None,None,,,,,,,21_SU,23,F,21,2021_Nov_05_1142,Partial repeat,2021.2.3,120.10269052272326,
1,5,0,1,1,3,2,2,2,1,0,0,1,0,0,0,0,39,39,39,,,,,,,,,,,,,,,,,,,,,,,,,,,,,,,,21_SU,23,F,21,2021_Nov_05_1142,Partial repeat,2021.2.3,120.10269052272326,
4,2,0,1,1,3,2,2,3,1,1,0,0,1,0,0,0,40,40,40,0,0,0,0,,,,,,,308.3253438210986,None,0.855616672036766,308.98311057630326,None,"[93. 87. 87. 87. 93. 87. 87. 93. 87. 93. 93. 93. 93. 93. 87. 93. 93. 87.
 87. 93. 93. 87. 93. 93. 87. 87. 87. 93. 93. 93. 93. 87. 87. 87.]",309.91563979492366,None,l,1,0.8261449353312855,309.91563979492366,None,None,None,,,,,,,21_SU,23,F,21,2021_Nov_05_1142,Partial repeat,2021.2.3,120.10269052272326,
4,2,0,1,1,3,2,2,3,1,1,0,0,1,0,0,0,40,40,40,1,0,1,0,,,,,,,,,0.7423924644094007,310.80655930028024,None,"[93. 87. 87. 87. 87. 93. 93. 87. 87. 87. 87. 93. 87. 87. 87. 93. 93. 93.
 93. 93. 87. 93. 93. 87. 93. 87. 93. 87. 87. 87. 93. 87. 87. 87.]",311.6308534255104,None,l,1,1.222963327362777,311.6308534255104,None,None,None,,,,,,,21_SU,23,F,21,2021_Nov_05_1142,Partial repeat,2021.2.3,120.10269052272326,
4,2,0,1,1,3,2,2,3,1,1,0,0,1,0,0,0,40,40,40,,,,,,,,,,,,,,,,,,,,,,,,,,,,,,,,21_SU,23,F,21,2021_Nov_05_1142,Partial repeat,2021.2.3,120.10269052272326,
4,6,0,1,1,3,2,3,3,1,0,0,1,0,0,0,0,41,41,41,0,0,0,0,,,,,,,312.87144994012215,None,0.7375677498944258,313.87060261458555,None,"[93. 93. 87. 87. 93. 93. 93. 93. 87. 87. 87. 93. 93. 87. 93. 87. 93. 93.
 93. 87. 93. 93. 87. 93. 93. 87. 87. 93. 87. 87. 87. 93. 87. 93.]",314.6865854448597,None,l,1,0.9032669534144588,314.6865854448597,None,None,None,,,,,,,21_SU,23,F,21,2021_Nov_05_1142,Partial repeat,2021.2.3,120.10269052272326,
4,6,0,1,1,3,2,3,3,1,0,0,1,0,0,0,0,41,41,41,1,0,1,0,,,,,,,,,0.9655696942759718,315.66071315176214,None,"[87. 87. 87. 87. 93. 87. 87. 87. 93. 87. 87. 87. 93. 87. 93. 87. 93. 93.
 93. 93. 87. 93. 87. 87. 87. 93. 87. 93. 87. 87. 87. 87. 87. 87.]",316.7015220429721,None,s,1,0.6805123821222878,316.7015220429721,None,None,None,,,,,,,21_SU,23,F,21,2021_Nov_05_1142,Partial repeat,2021.2.3,120.10269052272326,
4,6,0,1,1,3,2,3,3,1,0,0,1,0,0,0,0,41,41,41,,,,,,,,,,,,,,,,,,,,,,,,,,,,,,,,21_SU,23,F,21,2021_Nov_05_1142,Partial repeat,2021.2.3,120.10269052272326,
3,6,0,1,1,2,3,3,3,0,0,0,1,1,0,0,0,42,42,42,0,0,0,0,,,,,,,317.3926013278824,None,0.795780739521047,319.1494099189049,None,"[93. 93. 93. 93. 87. 93. 93. 93. 93. 87. 87. 93. 87. 87. 87. 87. 87. 87.
 87. 93. 93. 87. 87. 93. 87. 93. 93. 87. 93. 87. 87. 87. 87. 87.]",320.0236786115411,None,s,1,1.1013079701288007,320.0236786115411,None,None,None,,,,,,,21_SU,23,F,21,2021_Nov_05_1142,Partial repeat,2021.2.3,120.10269052272326,
3,6,0,1,1,2,3,3,3,0,0,0,1,1,0,0,0,42,42,42,1,0,1,0,,,,,,,,,0.8521979693860059,321.189337809642,None,"[93. 93. 93. 87. 87. 93. 87. 87. 87. 93. 93. 87. 87. 87. 87. 87. 93. 93.
 93. 87. 93. 93. 93. 93. 93. 93. 93. 87. 87. 87. 93. 87. 87. 87.]",322.13020879101805,None,s,1,1.6831537799725993,322.13020879101805,None,None,None,,,,,,,21_SU,23,F,21,2021_Nov_05_1142,Partial repeat,2021.2.3,120.10269052272326,
3,6,0,1,1,2,3,3,3,0,0,0,1,1,0,0,0,42,42,42,,,,,,,,,,,,,,,,,,,,,,,,,,,,,,,,21_SU,23,F,21,2021_Nov_05_1142,Partial repeat,2021.2.3,120.10269052272326,
2,5,0,1,1,2,3,2,3,1,0,0,0,0,0,0,0,43,43,43,0,0,0,0,,,,,,,323.8453865016754,None,0.7960311199533658,326.58474249578194,None,"[93. 93. 93. 87. 87. 87. 93. 93. 87. 93. 87. 93. 93. 93. 87. 87. 87. 93.
 87. 87. 93. 93. 93. 93. 93. 93. 87. 93. 87. 87. 87. 93. 93. 93.]",327.4589656470753,None,l,1,0.9780939444217438,327.4589656470753,None,None,None,,,,,,,21_SU,23,F,21,2021_Nov_05_1142,Partial repeat,2021.2.3,120.10269052272326,
2,5,0,1,1,2,3,2,3,1,0,0,0,0,0,0,0,43,43,43,1,0,1,0,,,,,,,,,0.8468936203825819,328.4997645961603,None,"[93. 93. 87. 93. 87. 93. 87. 87. 93. 93. 87. 93. 93. 87. 87. 87. 93. 87.
 93. 93. 87. 87. 87. 87. 87. 87. 93. 87. 87. 87. 87. 87. 93. 87.]",329.4239722569846,None,s,1,0.6931446524604326,329.4239722569846,None,None,None,,,,,,,21_SU,23,F,21,2021_Nov_05_1142,Partial repeat,2021.2.3,120.10269052272326,
2,5,0,1,1,2,3,2,3,1,0,0,0,0,0,0,0,43,43,43,,,,,,,,,,,,,,,,,,,,,,,,,,,,,,,,21_SU,23,F,21,2021_Nov_05_1142,Partial repeat,2021.2.3,120.10269052272326,
6,3,0,1,1,2,3,3,3,1,1,0,1,1,0,0,0,44,44,44,0,0,0,0,,,,,,,330.14834354592585,None,0.9002885394848186,331.0225808086225,None,"[87. 93. 93. 87. 87. 87. 87. 93. 93. 87. 93. 93. 87. 87. 87. 93. 87. 93.
 87. 93. 87. 87. 87. 87. 93. 87. 87. 93. 93. 87. 87. 87. 93. 93.]",332.00507818037386,None,l,1,0.7839791045507809,332.00507818037386,None,None,None,,,,,,,21_SU,23,F,21,2021_Nov_05_1142,Partial repeat,2021.2.3,120.10269052272326,
6,3,0,1,1,2,3,3,3,1,1,0,1,1,0,0,0,44,44,44,1,0,1,0,,,,,,,,,0.8915859470601555,332.85435782538207,None,"[93. 87. 87. 87. 87. 93. 87. 87. 93. 87. 87. 93. 87. 93. 87. 93. 93. 93.
 87. 93. 93. 87. 93. 87. 93. 93. 87. 93. 87. 87. 93. 87. 93. 93.]",333.8202127229679,None,l,1,0.7439896367877736,333.8202127229679,None,None,None,,,,,,,21_SU,23,F,21,2021_Nov_05_1142,Partial repeat,2021.2.3,120.10269052272326,
6,3,0,1,1,2,3,3,3,1,1,0,1,1,0,0,0,44,44,44,,,,,,,,,,,,,,,,,,,,,,,,,,,,,,,,21_SU,23,F,21,2021_Nov_05_1142,Partial repeat,2021.2.3,120.10269052272326,
7,5,0,1,1,2,3,2,3,1,1,0,0,1,0,0,0,45,45,45,0,0,0,0,,,,,,,334.58620719514784,None,0.8592865521224909,335.52708138366233,None,"[93. 93. 93. 87. 93. 93. 93. 87. 93. 87. 87. 93. 93. 87. 87. 87. 93. 93.
 87. 93. 87. 93. 87. 93. 93. 93. 93. 93. 93. 93. 87. 87. 87. 87.]",336.4679542893218,None,l,1,0.672258815625355,336.4679542893218,None,None,None,,,,,,,21_SU,23,F,21,2021_Nov_05_1142,Partial repeat,2021.2.3,120.10269052272326,
7,5,0,1,1,2,3,2,3,1,1,0,0,1,0,0,0,45,45,45,1,0,1,0,,,,,,,,,0.7096326766720731,337.20064649463257,None,"[87. 93. 93. 87. 87. 93. 87. 87. 93. 87. 93. 87. 87. 87. 93. 87. 87. 87.
 93. 87. 93. 87. 87. 87. 87. 93. 93. 87. 93. 93. 93. 87. 93. 93.]",337.99164476726855,None,s,0,0.4765885144179265,337.99164476726855,None,338.482909168114,None,,,,,,,21_SU,23,F,21,2021_Nov_05_1142,Partial repeat,2021.2.3,120.10269052272326,
7,5,0,1,1,2,3,2,3,1,1,0,0,1,0,0,0,45,45,45,,,,,,,,,,,,,,,,,,,,,,,,,,,,,,,,21_SU,23,F,21,2021_Nov_05_1142,Partial repeat,2021.2.3,120.10269052272326,
7,6,0,1,1,2,3,3,2,0,0,0,0,1,0,0,0,46,46,46,0,0,0,0,,,,,,,338.98245567897266,None,0.7072232265190008,339.2405682918079,None,"[87. 87. 93. 93. 87. 93. 93. 93. 87. 93. 93. 87. 87. 87. 93. 87. 93. 93.
 87. 87. 87. 87. 93. 93. 87. 93. 87. 93. 93. 87. 87. 87. 87. 93.]",340.02322993310645,None,s,1,0.8450429887916471,340.02322993310645,None,None,None,,,,,,,21_SU,23,F,21,2021_Nov_05_1142,Partial repeat,2021.2.3,120.10269052272326,
7,6,0,1,1,2,3,3,2,0,0,0,0,1,0,0,0,46,46,46,1,0,1,0,,,,,,,,,0.8240847125327805,340.9308002511834,None,"[87. 93. 87. 93. 87. 93. 87. 93. 87. 93. 93. 87. 93. 87. 93. 87. 87. 87.
 93. 93. 93. 87. 93. 87. 87. 87. 93. 87. 87. 87. 87. 87. 87. 87.]",341.83001405367304,None,s,1,1.0218633435897573,341.83001405367304,None,None,None,,,,,,,21_SU,23,F,21,2021_Nov_05_1142,Partial repeat,2021.2.3,120.10269052272326,
7,6,0,1,1,2,3,3,2,0,0,0,0,1,0,0,0,46,46,46,,,,,,,,,,,,,,,,,,,,,,,,,,,,,,,,21_SU,23,F,21,2021_Nov_05_1142,Partial repeat,2021.2.3,120.10269052272326,
5,3,0,1,1,3,3,2,2,0,0,1,1,1,0,0,0,47,47,47,0,0,0,0,,,,,,,342.8624837478337,None,0.8329236773109251,343.478589796302,None,"[87. 87. 93. 93. 87. 87. 93. 87. 87. 87. 87. 93. 93. 87. 87. 87. 93. 93.
 93. 93. 93. 87. 93. 93. 93. 87. 93. 93. 93. 87. 93. 87. 87. 87.]",344.38617679149047,None,s,1,0.5941586208255103,344.38617679149047,None,None,None,,,,,,,21_SU,23,F,21,2021_Nov_05_1142,Partial repeat,2021.2.3,120.10269052272326,
5,3,0,1,1,3,3,2,2,0,0,1,1,1,0,0,0,47,47,47,1,0,1,0,,,,,,,,,0.8365082045616996,345.0355921625278,None,"[87. 87. 87. 87. 87. 87. 87. 87. 93. 93. 93. 87. 93. 87. 87. 93. 87. 93.
 93. 93. 93. 93. 93. 93. 93. 87. 93. 87. 87. 87. 87. 87. 93. 93.]",345.95981072761697,None,s,1,0.8605337801391215,345.95981072761697,None,None,None,,,,,,,21_SU,23,F,21,2021_Nov_05_1142,Partial repeat,2021.2.3,120.10269052272326,
5,3,0,1,1,3,3,2,2,0,0,1,1,1,0,0,0,47,47,47,,,,,,,,,,,,,,,,,,,,,,,,,,,,,,,,21_SU,23,F,21,2021_Nov_05_1142,Partial repeat,2021.2.3,120.10269052272326,
4,7,0,1,1,2,3,2,2,1,1,0,1,1,0,0,0,48,48,48,0,0,0,0,,,,,,,346.84238558379275,None,0.7974485410109838,347.4168982753936,None,"[87. 93. 93. 93. 87. 93. 87. 87. 87. 93. 93. 93. 93. 87. 87. 93. 87. 87.
 93. 93. 87. 93. 87. 93. 93. 93. 93. 93. 87. 87. 93. 87. 87. 87.]",348.2911727408764,None,l,1,0.7362488914614005,348.2911727408764,None,None,None,,,,,,,21_SU,23,F,21,2021_Nov_05_1142,Partial repeat,2021.2.3,120.10269052272326,
4,7,0,1,1,2,3,2,2,1,1,0,1,1,0,0,0,48,48,48,1,0,1,0,,,,,,,,,0.8892861769254085,349.0904730077755,None,"[87. 87. 93. 87. 93. 93. 87. 87. 93. 93. 93. 93. 93. 87. 93. 93. 93. 93.
 93. 87. 93. 93. 87. 87. 93. 87. 93. 87. 93. 87. 87. 87. 93. 93.]",350.06464657673405,None,l,1,0.9467858752004759,350.06464657673405,None,None,None,,,,,,,21_SU,23,F,21,2021_Nov_05_1142,Partial repeat,2021.2.3,120.10269052272326,
4,7,0,1,1,2,3,2,2,1,1,0,1,1,0,0,0,48,48,48,,,,,,,,,,,,,,,,,,,,,,,,,,,,,,,,21_SU,23,F,21,2021_Nov_05_1142,Partial repeat,2021.2.3,120.10269052272326,
6,5,0,1,1,2,2,2,3,1,0,1,0,0,0,0,0,49,49,49,0,0,0,0,,,,,,,351.0304854386368,None,0.9700130531087204,351.80482648427915,None,"[93. 87. 93. 87. 93. 87. 87. 93. 93. 87. 93. 87. 93. 87. 93. 93. 93. 87.
 93. 87. 87. 87. 87. 93. 93. 87. 87. 93. 87. 93. 93. 93. 93. 87.]",352.85393416261377,None,s,0,0.49348371096220944,352.85393416261377,None,353.37015810542925,None,,,,,,,21_SU,23,F,21,2021_Nov_05_1142,Partial repeat,2021.2.3,120.10269052272326,
6,5,0,1,1,2,2,2,3,1,0,1,0,0,0,0,0,49,49,49,1,0,1,0,,,,,,,,,0.9416504587937603,353.9030219567003,None,"[87. 87. 93. 93. 87. 93. 87. 87. 87. 93. 93. 93. 93. 87. 87. 93. 87. 87.
 87. 87. 93. 87. 87. 93. 93. 93. 93. 93. 87. 87. 93. 87. 87. 87.]",354.9188308960156,None,s,1,0.6206675305720637,354.9188308960156,None,None,None,,,,,,,21_SU,23,F,21,2021_Nov_05_1142,Partial repeat,2021.2.3,120.10269052272326,
6,5,0,1,1,2,2,2,3,1,0,1,0,0,0,0,0,49,49,49,,,,,,,,,,,,,,,,,,,,,,,,,,,,,,,,21_SU,23,F,21,2021_Nov_05_1142,Partial repeat,2021.2.3,120.10269052272326,
8,8,0,1,1,2,3,3,3,0,1,0,1,0,0,0,0,50,50,50,0,0,0,0,,,,,,,355.5599526113465,None,0.7138549245672101,356.25102195413365,None,"[87. 87. 87. 93. 87. 93. 93. 87. 93. 87. 93. 87. 93. 93. 93. 87. 87. 87.
 87. 87. 87. 87. 93. 87. 93. 93. 87. 87. 93. 93. 87. 93. 87. 87.]",357.04202215105306,None,s,1,0.8175199823954244,357.04202215105306,None,None,None,,,,,,,21_SU,23,F,21,2021_Nov_05_1142,Partial repeat,2021.2.3,120.10269052272326,
8,8,0,1,1,2,3,3,3,0,1,0,1,0,0,0,0,50,50,50,1,0,1,0,,,,,,,,,0.7480522591997295,357.91627384586445,None,"[93. 87. 93. 87. 93. 93. 93. 87. 87. 93. 93. 93. 87. 93. 87. 87. 87. 87.
 87. 87. 93. 87. 93. 93. 93. 93. 87. 93. 93. 93. 93. 93. 87. 93.]",358.7405509732698,None,l,1,0.7508182724131984,358.7405509732698,None,None,None,,,,,,,21_SU,23,F,21,2021_Nov_05_1142,Partial repeat,2021.2.3,120.10269052272326,
8,8,0,1,1,2,3,3,3,0,1,0,1,0,0,0,0,50,50,50,,,,,,,,,,,,,,,,,,,,,,,,,,,,,,,,21_SU,23,F,21,2021_Nov_05_1142,Partial repeat,2021.2.3,120.10269052272326,
5,7,0,1,1,2,2,3,3,0,0,1,1,1,0,0,0,51,51,51,0,0,0,0,,,,,,,359.5149000367537,None,0.7572233139603192,360.07273914496454,None,"[93. 87. 93. 87. 87. 93. 93. 87. 93. 87. 93. 87. 93. 87. 93. 87. 93. 93.
 93. 87. 87. 93. 87. 87. 87. 93. 93. 87. 93. 87. 87. 93. 87. 93.]",360.9053987657653,None,s,1,0.6662518484417888,360.9053987657653,None,None,None,,,,,,,21_SU,23,F,21,2021_Nov_05_1142,Partial repeat,2021.2.3,120.10269052272326,
5,7,0,1,1,2,2,3,3,0,0,1,1,1,0,0,0,51,51,51,1,0,1,0,,,,,,,,,0.9493356253125653,361.62142251910427,None,"[87. 93. 93. 87. 93. 93. 87. 87. 87. 87. 87. 93. 93. 87. 87. 93. 93. 93.
 93. 87. 93. 93. 93. 87. 93. 93. 93. 93. 93. 93. 93. 93. 93. 87.]",362.64555045050747,None,s,1,0.7176356317477257,362.64555045050747,None,None,None,,,,,,,21_SU,23,F,21,2021_Nov_05_1142,Partial repeat,2021.2.3,120.10269052272326,
5,7,0,1,1,2,2,3,3,0,0,1,1,1,0,0,0,51,51,51,,,,,,,,,,,,,,,,,,,,,,,,,,,,,,,,21_SU,23,F,21,2021_Nov_05_1142,Partial repeat,2021.2.3,120.10269052272326,
1,1,0,1,1,2,2,3,3,0,1,1,1,0,0,0,0,52,52,52,0,0,0,0,,,,,,,363.3865690243192,None,0.7832982210251553,364.0277103031831,None,"[93. 93. 93. 87. 93. 93. 93. 93. 93. 87. 87. 87. 87. 93. 93. 93. 87. 93.
 93. 93. 93. 93. 93. 93. 87. 93. 93. 87. 93. 87. 87. 93. 93. 93.]",364.8853153545524,None,s,1,0.749526117007008,364.8853153545524,None,None,None,,,,,,,21_SU,23,F,21,2021_Nov_05_1142,Partial repeat,2021.2.3,120.10269052272326,
1,1,0,1,1,2,2,3,3,0,1,1,1,0,0,0,0,52,52,52,1,0,1,0,,,,,,,,,0.7528597324740613,365.6846002271932,None,"[87. 93. 87. 87. 93. 93. 87. 87. 87. 87. 93. 87. 93. 87. 87. 87. 87. 93.
 87. 87. 87. 93. 87. 93. 87. 93. 93. 87. 87. 87. 93. 93. 87. 93.]",366.5172495851575,None,l,1,0.9094422952794048,366.5172495851575,None,None,None,,,,,,,21_SU,23,F,21,2021_Nov_05_1142,Partial repeat,2021.2.3,120.10269052272326,
1,1,0,1,1,2,2,3,3,0,1,1,1,0,0,0,0,52,52,52,,,,,,,,,,,,,,,,,,,,,,,,,,,,,,,,21_SU,23,F,21,2021_Nov_05_1142,Partial repeat,2021.2.3,120.10269052272326,
7,2,0,1,1,3,2,2,3,1,0,0,0,0,0,0,0,53,53,53,0,0,0,0,,,,,,,367.44976757879795,None,0.7574216952062719,368.1325336444688,None,"[93. 87. 87. 93. 93. 93. 87. 87. 87. 93. 93. 87. 93. 87. 87. 87. 93. 93.
 93. 87. 87. 87. 93. 87. 87. 93. 93. 87. 93. 93. 87. 87. 93. 87.]",368.9734776202795,None,l,1,0.8212819538339318,368.9734776202795,None,None,None,,,,,,,21_SU,23,F,21,2021_Nov_05_1142,Partial repeat,2021.2.3,120.10269052272326,
7,2,0,1,1,3,2,2,3,1,0,0,0,0,0,0,0,53,53,53,1,0,1,0,,,,,,,,,0.9943532100034232,369.85605279716856,None,"[87. 87. 93. 87. 93. 87. 93. 87. 93. 87. 93. 87. 87. 93. 93. 87. 87. 87.
 93. 87. 87. 93. 93. 87. 87. 93. 87. 93. 93. 93. 87. 87. 87. 93.]",370.9301222624681,None,s,1,1.3286500298663668,370.9301222624681,None,None,None,,,,,,,21_SU,23,F,21,2021_Nov_05_1142,Partial repeat,2021.2.3,120.10269052272326,
7,2,0,1,1,3,2,2,3,1,0,0,0,0,0,0,0,53,53,53,,,,,,,,,,,,,,,,,,,,,,,,,,,,,,,,21_SU,23,F,21,2021_Nov_05_1142,Partial repeat,2021.2.3,120.10269052272326,
2,2,0,1,1,3,2,3,3,1,1,0,1,1,0,0,0,54,54,54,0,0,0,0,,,,,,,372.2789792068497,None,0.7369089765479244,372.97006971674,None,"[87. 93. 87. 93. 93. 87. 87. 93. 93. 93. 87. 93. 93. 87. 93. 93. 93. 87.
 87. 87. 93. 87. 87. 93. 93. 87. 93. 93. 87. 87. 87. 87. 93. 93.]",373.78603426633254,None,l,1,0.5367656253392852,373.78603426633254,None,None,None,,,,,,,21_SU,23,F,21,2021_Nov_05_1142,Partial repeat,2021.2.3,120.10269052272326,
2,2,0,1,1,3,2,3,3,1,1,0,1,1,0,0,0,54,54,54,1,0,1,0,,,,,,,,,0.9676043042560517,374.3855206113067,None,"[87. 93. 93. 87. 93. 93. 93. 87. 93. 87. 87. 93. 87. 87. 87. 87. 87. 87.
 93. 93. 93. 87. 87. 93. 87. 93. 87. 93. 87. 93. 87. 93. 87. 87.]",375.4346257239313,None,l,1,0.9682210945657062,375.4346257239313,None,None,None,,,,,,,21_SU,23,F,21,2021_Nov_05_1142,Partial repeat,2021.2.3,120.10269052272326,
2,2,0,1,1,3,2,3,3,1,1,0,1,1,0,0,0,54,54,54,,,,,,,,,,,,,,,,,,,,,,,,,,,,,,,,21_SU,23,F,21,2021_Nov_05_1142,Partial repeat,2021.2.3,120.10269052272326,
6,8,0,1,1,3,3,2,2,1,1,1,1,1,0,0,0,55,55,55,0,0,0,0,,,,,,,376.4254430499104,None,0.7335699182218296,377.3330063122876,None,"[87. 93. 87. 87. 93. 87. 87. 87. 93. 93. 87. 87. 93. 93. 93. 87. 93. 93.
 93. 87. 87. 87. 87. 93. 87. 93. 87. 87. 93. 93. 87. 87. 87. 93.]",378.14064962479733,None,l,1,0.6293296862941133,378.14064962479733,None,None,None,,,,,,,21_SU,23,F,21,2021_Nov_05_1142,Partial repeat,2021.2.3,120.10269052272326,
6,8,0,1,1,3,3,2,2,1,1,1,1,1,0,0,0,55,55,55,1,0,1,0,,,,,,,,,0.9053372475389828,378.83170838403294,None,"[93. 87. 87. 87. 93. 93. 93. 87. 93. 93. 93. 93. 93. 87. 93. 93. 93. 87.
 93. 87. 93. 87. 93. 87. 93. 87. 87. 93. 93. 93. 87. 87. 93. 87.]",379.82254046284197,None,l,1,0.7553544466709354,379.82254046284197,None,None,None,,,,,,,21_SU,23,F,21,2021_Nov_05_1142,Partial repeat,2021.2.3,120.10269052272326,
6,8,0,1,1,3,3,2,2,1,1,1,1,1,0,0,0,55,55,55,,,,,,,,,,,,,,,,,,,,,,,,,,,,,,,,21_SU,23,F,21,2021_Nov_05_1142,Partial repeat,2021.2.3,120.10269052272326,
2,1,0,1,1,3,3,2,3,0,1,1,0,0,0,0,0,56,56,56,0,0,0,0,,,,,,,380.5968462299779,None,0.8274588721979288,381.2879495684165,None,"[87. 87. 87. 93. 93. 93. 93. 87. 93. 87. 93. 87. 87. 93. 87. 87. 87. 93.
 87. 87. 93. 93. 93. 87. 93. 93. 87. 93. 87. 93. 93. 87. 93. 87.]",382.1955118686519,None,s,1,0.8944258394612916,382.1955118686519,None,None,None,,,,,,,21_SU,23,F,21,2021_Nov_05_1142,Partial repeat,2021.2.3,120.10269052272326,
2,1,0,1,1,3,3,2,3,0,1,1,0,0,0,0,0,56,56,56,1,0,1,0,,,,,,,,,0.8800586914824201,383.1613388641481,None,"[93. 87. 87. 93. 93. 93. 87. 87. 87. 93. 93. 87. 87. 93. 93. 87. 87. 87.
 87. 93. 87. 93. 87. 93. 87. 87. 93. 93. 87. 93. 87. 87. 87. 93.]",384.1188446225615,None,s,0,0.6351195303168424,384.1188446225615,None,384.77664858055414,None,,,,,,,21_SU,23,F,21,2021_Nov_05_1142,Partial repeat,2021.2.3,120.10269052272326,
2,1,0,1,1,3,3,2,3,0,1,1,0,0,0,0,0,56,56,56,,,,,,,,,,,,,,,,,,,,,,,,,,,,,,,,21_SU,23,F,21,2021_Nov_05_1142,Partial repeat,2021.2.3,120.10269052272326,
3,7,0,1,1,3,2,3,2,1,1,0,0,1,0,0,0,57,57,57,0,0,0,0,,,,,,,385.27620567496433,None,0.8862869405493893,386.51679705815786,None,"[93. 93. 87. 93. 93. 93. 87. 87. 93. 87. 93. 93. 87. 87. 93. 87. 93. 87.
 93. 87. 93. 87. 93. 87. 93. 93. 93. 93. 87. 87. 87. 93. 93. 87.]",387.49096036428,None,l,1,0.6390678364032283,387.49096036428,None,None,None,,,,,,,21_SU,23,F,21,2021_Nov_05_1142,Partial repeat,2021.2.3,120.10269052272326,
3,7,0,1,1,3,2,3,2,1,1,0,0,1,0,0,0,57,57,57,1,0,1,0,,,,,,,,,0.977965404315336,388.1903807705212,None,"[93. 87. 93. 93. 93. 93. 93. 87. 93. 93. 87. 93. 93. 93. 93. 93. 87. 93.
 87. 93. 87. 87. 87. 93. 93. 87. 93. 93. 93. 93. 87. 93. 93. 87.]",389.2478000645269,None,l,1,0.9782578291096797,389.2478000645269,None,None,None,,,,,,,21_SU,23,F,21,2021_Nov_05_1142,Partial repeat,2021.2.3,120.10269052272326,
3,7,0,1,1,3,2,3,2,1,1,0,0,1,0,0,0,57,57,57,,,,,,,,,,,,,,,,,,,,,,,,,,,,,,,,21_SU,23,F,21,2021_Nov_05_1142,Partial repeat,2021.2.3,120.10269052272326,
6,2,0,1,1,3,2,3,3,0,1,0,1,0,0,0,0,58,58,58,0,0,0,0,,,,,,,390.2469453625772,None,0.7512330467241909,390.8714220380325,None,"[87. 93. 87. 87. 93. 87. 87. 93. 93. 93. 93. 93. 87. 87. 93. 93. 87. 87.
 93. 93. 87. 93. 87. 93. 93. 87. 93. 87. 93. 93. 87. 87. 87. 93.]",391.7040274582223,None,s,1,0.6337924171175473,391.7040274582223,None,None,None,,,,,,,21_SU,23,F,21,2021_Nov_05_1142,Partial repeat,2021.2.3,120.10269052272326,
6,2,0,1,1,3,2,3,3,0,1,0,1,0,0,0,0,58,58,58,1,0,1,0,,,,,,,,,0.7436721188042927,392.4117598008497,None,"[87. 93. 87. 93. 93. 87. 87. 93. 87. 87. 87. 87. 87. 93. 87. 87. 87. 93.
 87. 93. 93. 87. 93. 87. 87. 87. 93. 87. 93. 87. 93. 87. 93. 87.]",393.23604815323506,None,l,1,0.5430820812225647,393.23604815323506,None,None,None,,,,,,,21_SU,23,F,21,2021_Nov_05_1142,Partial repeat,2021.2.3,120.10269052272326,
6,2,0,1,1,3,2,3,3,0,1,0,1,0,0,0,0,58,58,58,,,,,,,,,,,,,,,,,,,,,,,,,,,,,,,,21_SU,23,F,21,2021_Nov_05_1142,Partial repeat,2021.2.3,120.10269052272326,
3,3,0,1,1,3,2,3,2,0,1,0,0,0,0,0,0,59,59,59,0,0,0,0,,,,,,,393.8022421734631,None,0.9717950552545715,394.3933845106849,None,"[87. 87. 87. 93. 93. 87. 87. 87. 93. 87. 93. 93. 87. 93. 93. 93. 93. 87.
 87. 87. 93. 93. 93. 93. 93. 87. 87. 93. 93. 93. 87. 87. 87. 87.]",395.44250501756596,None,s,1,0.6228095772248707,395.44250501756596,None,None,None,,,,,,,21_SU,23,F,21,2021_Nov_05_1142,Partial repeat,2021.2.3,120.10269052272326,
3,3,0,1,1,3,2,3,2,0,1,0,0,0,0,0,0,59,59,59,1,0,1,0,,,,,,,,,0.9015436751729725,396.1169344518976,None,"[87. 93. 93. 93. 87. 87. 87. 87. 87. 87. 93. 93. 87. 87. 87. 87. 87. 93.
 93. 87. 87. 93. 93. 87. 87. 87. 93. 93. 93. 93. 93. 87. 87. 87.]",397.10773991147016,None,l,1,1.0534555651292976,397.10773991147016,None,None,None,,,,,,,21_SU,23,F,21,2021_Nov_05_1142,Partial repeat,2021.2.3,120.10269052272326,
3,3,0,1,1,3,2,3,2,0,1,0,0,0,0,0,0,59,59,59,,,,,,,,,,,,,,,,,,,,,,,,,,,,,,,,21_SU,23,F,21,2021_Nov_05_1142,Partial repeat,2021.2.3,120.10269052272326,
8,1,0,1,1,3,3,3,2,0,1,1,0,0,0,0,0,60,60,60,0,0,0,0,,,,,,,398.1901540259505,None,0.7098161754621286,398.7729962931908,None,"[93. 87. 93. 93. 93. 93. 87. 93. 87. 87. 93. 93. 87. 87. 93. 93. 87. 87.
 87. 93. 87. 93. 93. 87. 87. 93. 87. 93. 93. 87. 93. 87. 87. 87.]",399.56399264154516,None,s,1,1.013250257060463,399.56399264154516,None,None,None,,,,,,,21_SU,23,F,21,2021_Nov_05_1142,Partial repeat,2021.2.3,120.10269052272326,
8,1,0,1,1,3,3,3,2,0,1,1,0,0,0,0,0,60,60,60,1,0,1,0,,,,,,,,,0.9329408274405271,400.6463859096375,None,"[93. 87. 93. 93. 93. 87. 87. 93. 87. 93. 87. 87. 93. 87. 93. 93. 93. 93.
 87. 87. 93. 87. 93. 93. 87. 87. 87. 93. 93. 87. 87. 87. 87. 87.]",401.65387200830355,None,l,1,0.5713687068846411,401.65387200830355,None,None,None,,,,,,,21_SU,23,F,21,2021_Nov_05_1142,Partial repeat,2021.2.3,120.10269052272326,
8,1,0,1,1,3,3,3,2,0,1,1,0,0,0,0,0,60,60,60,,,,,,,,,,,,,,,,,,,,,,,,,,,,,,,,21_SU,23,F,21,2021_Nov_05_1142,Partial repeat,2021.2.3,120.10269052272326,
3,8,0,1,1,2,2,2,2,0,0,1,1,1,0,0,0,61,61,61,0,0,0,0,,,,,,,402.2366895805908,None,0.8713641211028413,402.8861383058493,None,"[93. 93. 93. 87. 87. 93. 87. 93. 87. 87. 87. 93. 93. 93. 93. 93. 87. 87.
 93. 93. 93. 87. 87. 87. 87. 93. 93. 93. 93. 87. 87. 93. 93. 93.]",403.8353209028983,None,s,1,0.6939522095008215,403.8353209028983,None,None,None,,,,,,,21_SU,23,F,21,2021_Nov_05_1142,Partial repeat,2021.2.3,120.10269052272326,
3,8,0,1,1,2,2,2,2,0,0,1,1,1,0,0,0,61,61,61,1,0,1,0,,,,,,,,,0.8075739847585074,404.5930079286836,None,"[87. 93. 93. 93. 93. 87. 93. 87. 87. 87. 87. 93. 93. 87. 93. 93. 87. 93.
 87. 87. 87. 87. 87. 93. 87. 87. 93. 87. 87. 93. 87. 93. 87. 93.]",405.4755863127093,None,s,1,0.7503400883188078,405.4755863127093,None,None,None,,,,,,,21_SU,23,F,21,2021_Nov_05_1142,Partial repeat,2021.2.3,120.10269052272326,
3,8,0,1,1,2,2,2,2,0,0,1,1,1,0,0,0,61,61,61,,,,,,,,,,,,,,,,,,,,,,,,,,,,,,,,21_SU,23,F,21,2021_Nov_05_1142,Partial repeat,2021.2.3,120.10269052272326,
6,1,0,1,1,2,2,3,2,0,0,1,0,1,0,0,0,62,62,62,0,0,0,0,,,,,,,406.2499305654883,None,0.7302660576592757,407.0492375673739,None,"[93. 93. 93. 87. 93. 93. 93. 93. 93. 93. 87. 93. 87. 87. 87. 87. 93. 93.
 87. 87. 87. 93. 87. 87. 93. 93. 93. 87. 93. 87. 93. 87. 87. 87.]",407.86520660695805,None,s,1,0.5200949283707814,407.86520660695805,None,None,None,,,,,,,21_SU,23,F,21,2021_Nov_05_1142,Partial repeat,2021.2.3,120.10269052272326,
6,1,0,1,1,2,2,3,2,0,0,1,0,1,0,0,0,62,62,62,1,0,1,0,,,,,,,,,0.8444101225690994,408.456373639131,None,"[93. 87. 93. 93. 87. 87. 93. 93. 93. 93. 93. 87. 93. 93. 87. 87. 87. 93.
 93. 93. 93. 87. 87. 93. 93. 87. 87. 87. 93. 93. 87. 93. 93. 87.]",409.3805934870752,None,s,1,0.7158726686602677,409.3805934870752,None,None,None,,,,,,,21_SU,23,F,21,2021_Nov_05_1142,Partial repeat,2021.2.3,120.10269052272326,
6,1,0,1,1,2,2,3,2,0,0,1,0,1,0,0,0,62,62,62,,,,,,,,,,,,,,,,,,,,,,,,,,,,,,,,21_SU,23,F,21,2021_Nov_05_1142,Partial repeat,2021.2.3,120.10269052272326,
6,6,0,1,1,2,3,2,2,1,0,0,1,0,0,0,0,63,63,63,0,0,0,0,,,,,,,410.12163066228004,None,0.7774195393673645,410.7544025970119,None,"[87. 87. 93. 87. 87. 87. 87. 87. 93. 87. 93. 93. 93. 87. 87. 87. 87. 93.
 93. 87. 87. 93. 87. 93. 93. 93. 87. 93. 93. 93. 87. 93. 87. 93.]",411.61201855264426,None,l,1,0.7244822273396494,411.61201855264426,None,None,None,,,,,,,21_SU,23,F,21,2021_Nov_05_1142,Partial repeat,2021.2.3,120.10269052272326,
6,6,0,1,1,2,3,2,2,1,0,0,1,0,0,0,0,63,63,63,1,0,1,0,,,,,,,,,0.7830757032352822,412.38634324189024,None,"[87. 93. 87. 93. 93. 93. 87. 93. 93. 93. 93. 87. 87. 87. 93. 87. 93. 87.
 93. 93. 93. 93. 93. 93. 87. 93. 87. 93. 93. 93. 87. 93. 87. 93.]",413.24395021753935,None,s,1,1.428502309146097,413.24395021753935,None,None,None,,,,,,,21_SU,23,F,21,2021_Nov_05_1142,Partial repeat,2021.2.3,120.10269052272326,
6,6,0,1,1,2,3,2,2,1,0,0,1,0,0,0,0,63,63,63,,,,,,,,,,,,,,,,,,,,,,,,,,,,,,,,21_SU,23,F,21,2021_Nov_05_1142,Partial repeat,2021.2.3,120.10269052272326,
7,7,0,1,1,3,2,3,3,0,1,0,1,0,1,0,0,64,64,64,0,0,0,0,,,,,,,415.75011369299955,None,0.8826701341342631,420.19630595571743,None,"[87. 93. 93. 93. 87. 93. 87. 87. 93. 93. 87. 93. 93. 87. 93. 87. 87. 87.
 87. 93. 93. 87. 93. 93. 93. 87. 87. 93. 93. 93. 93. 93. 87. 93.]",421.15383897479387,None,s,1,1.022726704811248,421.15383897479387,None,None,None,,,,,,,21_SU,23,F,21,2021_Nov_05_1142,Partial repeat,2021.2.3,120.10269052272326,
7,7,0,1,1,3,2,3,3,0,1,0,1,0,1,0,0,64,64,64,1,0,1,0,,,,,,,,,0.7793664592196765,422.2279270414865,None,"[87. 93. 87. 87. 93. 87. 87. 93. 87. 87. 87. 93. 87. 93. 87. 93. 87. 93.
 93. 93. 93. 93. 87. 87. 87. 93. 87. 93. 93. 93. 93. 87. 87. 87.]",423.085523754301,None,l,1,0.7062403540630839,423.085523754301,None,None,None,,,,,,,21_SU,23,F,21,2021_Nov_05_1142,Partial repeat,2021.2.3,120.10269052272326,
7,7,0,1,1,3,2,3,3,0,1,0,1,0,1,0,0,64,64,64,,,,,,,,,,,,,,,,,,,,,,,,,,,,,,,,21_SU,23,F,21,2021_Nov_05_1142,Partial repeat,2021.2.3,120.10269052272326,
7,7,0,1,1,2,3,3,2,0,1,0,0,0,1,0,0,65,65,65,0,0,0,0,,,,,,,423.8015808618611,None,0.9786018005372361,424.6425315726583,None,"[93. 87. 87. 93. 87. 93. 87. 87. 93. 87. 93. 93. 87. 87. 87. 93. 93. 93.
 87. 87. 87. 87. 87. 93. 93. 87. 87. 87. 87. 87. 87. 87. 93. 87.]",425.69997267519557,None,s,1,0.5397652603669485,425.69997267519557,None,None,None,,,,,,,21_SU,23,F,21,2021_Nov_05_1142,Partial repeat,2021.2.3,120.10269052272326,
7,7,0,1,1,2,3,3,2,0,1,0,0,0,1,0,0,65,65,65,1,0,1,0,,,,,,,,,0.9980944132528978,426.2994599823096,None,"[87. 93. 87. 87. 93. 93. 93. 87. 87. 93. 93. 93. 93. 93. 93. 87. 87. 93.
 93. 87. 93. 87. 93. 87. 87. 93. 93. 87. 93. 93. 93. 87. 87. 87.]",427.3735217504809,None,l,1,0.6261110038221886,427.3735217504809,None,None,None,,,,,,,21_SU,23,F,21,2021_Nov_05_1142,Partial repeat,2021.2.3,120.10269052272326,
7,7,0,1,1,2,3,3,2,0,1,0,0,0,1,0,0,65,65,65,,,,,,,,,,,,,,,,,,,,,,,,,,,,,,,,21_SU,23,F,21,2021_Nov_05_1142,Partial repeat,2021.2.3,120.10269052272326,
7,7,0,1,1,2,3,2,2,0,0,0,1,1,1,0,0,66,66,66,0,0,0,0,,,,,,,428.0313109556437,None,0.8462336398245722,428.5974796394921,None,"[93. 93. 93. 93. 87. 93. 87. 87. 93. 93. 87. 93. 93. 87. 87. 87. 87. 93.
 87. 93. 93. 93. 87. 87. 93. 87. 87. 87. 93. 87. 93. 93. 87. 87.]",429.52168858316963,None,s,1,0.6700163855921346,429.52168858316963,None,None,None,,,,,,,21_SU,23,F,21,2021_Nov_05_1142,Partial repeat,2021.2.3,120.10269052272326,
7,7,0,1,1,2,3,2,2,0,0,0,1,1,1,0,0,66,66,66,1,0,1,0,,,,,,,,,0.9409078100345651,430.25442248126,None,"[93. 93. 93. 87. 87. 93. 93. 87. 87. 87. 87. 87. 93. 87. 93. 93. 87. 93.
 93. 93. 87. 87. 87. 87. 93. 93. 87. 93. 93. 87. 87. 87. 93. 87.]",431.27853918768324,None,s,1,0.7052326716884636,431.27853918768324,None,None,None,,,,,,,21_SU,23,F,21,2021_Nov_05_1142,Partial repeat,2021.2.3,120.10269052272326,
7,7,0,1,1,2,3,2,2,0,0,0,1,1,1,0,0,66,66,66,,,,,,,,,,,,,,,,,,,,,,,,,,,,,,,,21_SU,23,F,21,2021_Nov_05_1142,Partial repeat,2021.2.3,120.10269052272326,
7,7,0,1,1,3,3,2,3,0,0,1,0,1,1,0,0,67,67,67,0,0,0,0,,,,,,,431.9945809009869,None,0.7218712471208845,432.5524552877023,None,"[87. 87. 87. 93. 93. 93. 87. 93. 87. 87. 87. 93. 93. 93. 93. 87. 93. 93.
 93. 93. 93. 93. 93. 93. 93. 93. 93. 93. 87. 87. 87. 87. 93. 93.]",433.3517456124764,None,s,1,0.5200105806734427,433.3517456124764,None,None,None,,,,,,,21_SU,23,F,21,2021_Nov_05_1142,Partial repeat,2021.2.3,120.10269052272326,
7,7,0,1,1,3,3,2,3,0,0,1,0,1,1,0,0,67,67,67,1,0,1,0,,,,,,,,,0.9839924078149951,433.92625894550565,None,"[93. 87. 87. 93. 87. 87. 93. 93. 93. 93. 87. 87. 93. 93. 87. 87. 87. 87.
 87. 87. 87. 87. 87. 87. 87. 93. 93. 93. 93. 87. 93. 93. 87. 87.]",434.9920033251592,None,s,1,1.0717869175196029,434.9920033251592,None,None,None,,,,,,,21_SU,23,F,21,2021_Nov_05_1142,Partial repeat,2021.2.3,120.10269052272326,
7,7,0,1,1,3,3,2,3,0,0,1,0,1,1,0,0,67,67,67,,,,,,,,,,,,,,,,,,,,,,,,,,,,,,,,21_SU,23,F,21,2021_Nov_05_1142,Partial repeat,2021.2.3,120.10269052272326,
7,7,0,1,1,3,2,2,3,0,0,0,0,1,1,0,0,68,68,68,0,0,0,0,,,,,,,436.0827348281591,None,0.7868192058707361,436.66559088608756,None,"[87. 87. 93. 87. 93. 93. 93. 87. 93. 93. 87. 87. 87. 87. 87. 93. 93. 93.
 93. 93. 93. 87. 93. 87. 87. 87. 93. 87. 93. 87. 87. 87. 87. 93.]",437.5315290409444,None,s,1,0.564294725293621,437.5315290409444,None,None,None,,,,,,,21_SU,23,F,21,2021_Nov_05_1142,Partial repeat,2021.2.3,120.10269052272326,
7,7,0,1,1,3,2,2,3,0,0,0,0,1,1,0,0,68,68,68,1,0,1,0,,,,,,,,,0.8625806429969196,438.16430193781616,None,"[93. 87. 93. 93. 87. 93. 87. 87. 93. 87. 93. 93. 87. 87. 93. 93. 87. 93.
 93. 93. 93. 93. 87. 93. 93. 93. 87. 93. 93. 87. 87. 93. 87. 93.]",439.1134922319934,None,s,1,1.190364706301807,439.1134922319934,None,None,None,,,,,,,21_SU,23,F,21,2021_Nov_05_1142,Partial repeat,2021.2.3,120.10269052272326,
7,7,0,1,1,3,2,2,3,0,0,0,0,1,1,0,0,68,68,68,,,,,,,,,,,,,,,,,,,,,,,,,,,,,,,,21_SU,23,F,21,2021_Nov_05_1142,Partial repeat,2021.2.3,120.10269052272326,
7,7,0,1,1,2,3,2,3,1,1,0,0,1,1,0,0,69,69,69,0,0,0,0,,,,,,,440.3207794240361,None,0.8590380652802724,441.6696459898276,None,"[93. 87. 93. 87. 93. 93. 93. 87. 93. 93. 87. 87. 87. 87. 93. 87. 93. 93.
 93. 93. 87. 93. 93. 87. 93. 93. 87. 93. 87. 87. 87. 93. 87. 87.]",442.61051055693224,None,l,1,0.9086847695716642,442.61051055693224,None,None,None,,,,,,,21_SU,23,F,21,2021_Nov_05_1142,Partial repeat,2021.2.3,120.10269052272326,
7,7,0,1,1,2,3,2,3,1,1,0,0,1,1,0,0,69,69,69,1,0,1,0,,,,,,,,,0.8932618003888874,443.584674504481,None,"[93. 93. 93. 87. 87. 87. 87. 93. 87. 87. 93. 87. 87. 87. 87. 93. 93. 87.
 87. 93. 93. 87. 87. 93. 93. 93. 93. 93. 93. 87. 87. 87. 87. 93.]",444.55882498205665,None,l,1,0.8006055430314518,444.55882498205665,None,None,None,,,,,,,21_SU,23,F,21,2021_Nov_05_1142,Partial repeat,2021.2.3,120.10269052272326,
7,7,0,1,1,2,3,2,3,1,1,0,0,1,1,0,0,69,69,69,,,,,,,,,,,,,,,,,,,,,,,,,,,,,,,,21_SU,23,F,21,2021_Nov_05_1142,Partial repeat,2021.2.3,120.10269052272326,
7,7,0,1,1,2,2,2,3,0,0,1,0,1,1,0,0,70,70,70,0,0,0,0,,,,,,,445.391439702943,None,0.7752781366018975,446.1158167647309,None,"[87. 87. 93. 93. 87. 93. 87. 87. 93. 93. 87. 87. 93. 93. 93. 87. 93. 87.
 87. 87. 87. 93. 87. 93. 87. 87. 93. 87. 93. 87. 93. 93. 87. 87.]",446.97343753107,None,s,1,0.5295309661969441,446.97343753107,None,None,None,,,,,,,21_SU,23,F,21,2021_Nov_05_1142,Partial repeat,2021.2.3,120.10269052272326,
7,7,0,1,1,2,2,2,3,0,0,1,0,1,1,0,0,70,70,70,1,0,1,0,,,,,,,,,0.9080964446337587,447.5562772326002,None,"[87. 93. 87. 93. 87. 93. 93. 93. 93. 87. 93. 87. 93. 93. 87. 93. 93. 87.
 87. 93. 87. 93. 87. 93. 87. 93. 87. 87. 87. 87. 87. 87. 87. 93.]",448.5387758872066,None,s,1,0.7402161196559973,448.5387758872066,None,None,None,,,,,,,21_SU,23,F,21,2021_Nov_05_1142,Partial repeat,2021.2.3,120.10269052272326,
7,7,0,1,1,2,2,2,3,0,0,1,0,1,1,0,0,70,70,70,,,,,,,,,,,,,,,,,,,,,,,,,,,,,,,,21_SU,23,F,21,2021_Nov_05_1142,Partial repeat,2021.2.3,120.10269052272326,
7,7,0,1,1,2,2,2,2,0,0,1,1,1,1,0,0,71,71,71,0,0,0,0,,,,,,,449.3047841500729,None,0.750765590608699,449.98752391722246,None,"[87. 87. 87. 93. 87. 87. 87. 87. 93. 87. 93. 87. 87. 87. 93. 93. 93. 93.
 87. 87. 87. 87. 87. 87. 87. 87. 87. 93. 87. 87. 93. 93. 93. 87.]",450.820153711652,None,s,1,0.5708802599519913,450.820153711652,None,None,None,,,,,,,21_SU,23,F,21,2021_Nov_05_1142,Partial repeat,2021.2.3,120.10269052272326,
7,7,0,1,1,2,2,2,2,0,0,1,1,1,1,0,0,71,71,71,1,0,1,0,,,,,,,,,0.7036123779148896,451.45293206065526,None,"[93. 87. 87. 87. 87. 87. 93. 87. 87. 87. 87. 87. 93. 93. 93. 87. 87. 93.
 93. 87. 87. 87. 87. 93. 93. 93. 93. 93. 87. 93. 93. 93. 93. 87.]",452.24393257828797,None,s,1,0.6031334723820692,452.24393257828797,None,None,None,,,,,,,21_SU,23,F,21,2021_Nov_05_1142,Partial repeat,2021.2.3,120.10269052272326,
7,7,0,1,1,2,2,2,2,0,0,1,1,1,1,0,0,71,71,71,,,,,,,,,,,,,,,,,,,,,,,,,,,,,,,,21_SU,23,F,21,2021_Nov_05_1142,Partial repeat,2021.2.3,120.10269052272326,
7,7,0,1,1,3,2,2,2,0,0,0,1,1,1,0,0,72,72,72,0,0,0,0,,,,,,,452.8767253594078,None,0.9824319466827517,453.39294898151,None,"[87. 87. 87. 93. 93. 93. 87. 87. 93. 87. 93. 93. 93. 87. 93. 93. 93. 87.
 93. 87. 87. 93. 87. 93. 93. 93. 87. 87. 87. 93. 93. 93. 87. 93.]",454.4503762933591,None,s,1,0.540158455335586,454.4503762933591,None,None,None,,,,,,,21_SU,23,F,21,2021_Nov_05_1142,Partial repeat,2021.2.3,120.10269052272326,
7,7,0,1,1,3,2,2,2,0,0,0,1,1,1,0,0,72,72,72,1,0,1,0,,,,,,,,,0.8353927588948343,455.0581835547009,None,"[87. 93. 93. 93. 87. 93. 87. 93. 93. 87. 93. 93. 87. 93. 87. 87. 93. 87.
 93. 87. 93. 93. 87. 93. 87. 87. 87. 87. 87. 87. 93. 87. 93. 87.]",455.9740616398858,None,s,1,0.5201536189733815,455.9740616398858,None,None,None,,,,,,,21_SU,23,F,21,2021_Nov_05_1142,Partial repeat,2021.2.3,120.10269052272326,
7,7,0,1,1,3,2,2,2,0,0,0,1,1,1,0,0,72,72,72,,,,,,,,,,,,,,,,,,,,,,,,,,,,,,,,21_SU,23,F,21,2021_Nov_05_1142,Partial repeat,2021.2.3,120.10269052272326,
7,7,0,1,1,2,3,2,3,0,1,0,0,0,1,0,0,73,73,73,0,0,0,0,,,,,,,456.50694986539656,None,0.7592199620063469,457.2979439687542,None,"[87. 87. 93. 87. 93. 93. 93. 87. 93. 93. 93. 93. 87. 87. 93. 87. 87. 93.
 93. 93. 93. 93. 93. 93. 87. 93. 87. 93. 93. 87. 87. 87. 87. 93.]",458.13889884882974,None,s,1,0.5952544994606797,458.13889884882974,None,None,None,,,,,,,21_SU,23,F,21,2021_Nov_05_1142,Partial repeat,2021.2.3,120.10269052272326,
7,7,0,1,1,2,3,2,3,0,1,0,0,0,1,0,0,73,73,73,1,0,1,0,,,,,,,,,0.9198929158775301,458.78833442482846,None,"[93. 87. 87. 93. 87. 93. 93. 93. 93. 87. 87. 93. 87. 93. 93. 87. 93. 87.
 93. 87. 87. 87. 87. 93. 87. 87. 93. 93. 87. 93. 87. 87. 87. 87.]",459.7874704221804,None,l,1,0.6437024697597735,459.7874704221804,None,None,None,,,,,,,21_SU,23,F,21,2021_Nov_05_1142,Partial repeat,2021.2.3,120.10269052272326,
7,7,0,1,1,2,3,2,3,0,1,0,0,0,1,0,0,73,73,73,,,,,,,,,,,,,,,,,,,,,,,,,,,,,,,,21_SU,23,F,21,2021_Nov_05_1142,Partial repeat,2021.2.3,120.10269052272326,
7,7,0,1,1,3,3,2,3,0,1,1,0,0,1,0,0,74,74,74,0,0,0,0,,,,,,,460.453573488011,None,0.8116997336904967,460.94482089103167,None,"[93. 87. 93. 87. 93. 87. 87. 93. 87. 87. 87. 93. 87. 93. 87. 87. 87. 93.
 93. 87. 87. 87. 93. 87. 93. 87. 87. 93. 87. 87. 87. 87. 93. 87.]",461.84406131275773,None,s,1,0.5860971618212716,461.84406131275773,None,None,None,,,,,,,21_SU,23,F,21,2021_Nov_05_1142,Partial repeat,2021.2.3,120.10269052272326,
7,7,0,1,1,3,3,2,3,0,1,1,0,0,1,0,0,74,74,74,1,0,1,0,,,,,,,,,0.971905300263751,462.49347572165334,None,"[87. 87. 93. 87. 87. 87. 93. 93. 87. 93. 87. 93. 93. 87. 87. 87. 87. 87.
 87. 87. 87. 93. 87. 93. 93. 93. 87. 87. 87. 87. 87. 87. 93. 93.]",463.5426048878044,None,l,1,0.6476337780213726,463.5426048878044,None,None,None,,,,,,,21_SU,23,F,21,2021_Nov_05_1142,Partial repeat,2021.2.3,120.10269052272326,
7,7,0,1,1,3,3,2,3,0,1,1,0,0,1,0,0,74,74,74,,,,,,,,,,,,,,,,,,,,,,,,,,,,,,,,21_SU,23,F,21,2021_Nov_05_1142,Partial repeat,2021.2.3,120.10269052272326,
7,7,0,1,1,3,3,3,2,0,1,1,0,0,1,0,0,75,75,75,0,0,0,0,,,,,,,464.2086948043752,None,0.8159023139726658,464.7082467673672,None,"[87. 93. 87. 93. 93. 93. 93. 87. 87. 87. 87. 93. 93. 87. 87. 93. 87. 87.
 87. 93. 87. 93. 93. 93. 93. 93. 87. 87. 93. 87. 87. 93. 87. 87.]",465.5991707627154,None,s,1,0.5590619609274654,465.5991707627154,None,None,None,,,,,,,21_SU,23,F,21,2021_Nov_05_1142,Partial repeat,2021.2.3,120.10269052272326,
7,7,0,1,1,3,3,3,2,0,1,1,0,0,1,0,0,75,75,75,1,0,1,0,,,,,,,,,0.9458243052281488,466.231976693095,None,"[93. 87. 87. 93. 87. 87. 87. 87. 93. 93. 87. 93. 93. 87. 93. 87. 93. 93.
 87. 87. 87. 93. 87. 87. 87. 87. 93. 87. 93. 87. 93. 93. 87. 93.]",467.2561001345066,None,l,1,0.7423665048636394,467.2561001345066,None,None,None,,,,,,,21_SU,23,F,21,2021_Nov_05_1142,Partial repeat,2021.2.3,120.10269052272326,
7,7,0,1,1,3,3,3,2,0,1,1,0,0,1,0,0,75,75,75,,,,,,,,,,,,,,,,,,,,,,,,,,,,,,,,21_SU,23,F,21,2021_Nov_05_1142,Partial repeat,2021.2.3,120.10269052272326,
7,7,0,1,1,2,2,3,2,1,0,1,0,0,1,0,0,76,76,76,0,0,0,0,,,,,,,468.022106152378,None,0.9965242491598655,470.7197895733416,None,"[93. 93. 87. 93. 93. 87. 93. 87. 93. 87. 87. 93. 87. 87. 87. 87. 87. 93.
 93. 93. 87. 87. 93. 93. 87. 93. 93. 93. 93. 87. 87. 87. 93. 87.]",471.7938904685825,None,l,1,0.6035449480305033,471.7938904685825,None,None,None,,,,,,,21_SU,23,F,21,2021_Nov_05_1142,Partial repeat,2021.2.3,120.10269052272326,
7,7,0,1,1,2,2,3,2,1,0,1,0,0,1,0,0,76,76,76,1,0,1,0,,,,,,,,,0.9930203986971757,472.4599720465967,None,"[87. 87. 87. 93. 87. 87. 93. 87. 93. 87. 87. 93. 93. 93. 87. 87. 93. 93.
 93. 93. 93. 87. 87. 93. 87. 87. 87. 93. 93. 93. 87. 93. 93. 87.]",473.53406267899936,None,s,1,0.6873625055641241,473.53406267899936,None,None,None,,,,,,,21_SU,23,F,21,2021_Nov_05_1142,Partial repeat,2021.2.3,120.10269052272326,
7,7,0,1,1,2,2,3,2,1,0,1,0,0,1,0,0,76,76,76,,,,,,,,,,,,,,,,,,,,,,,,,,,,,,,,21_SU,23,F,21,2021_Nov_05_1142,Partial repeat,2021.2.3,120.10269052272326,
7,7,0,1,1,3,2,3,2,0,0,0,0,1,1,0,0,77,77,77,0,0,0,0,,,,,,,474.2417937387718,None,0.7916477144671676,474.7580083808907,None,"[87. 87. 93. 87. 93. 87. 87. 93. 87. 93. 87. 93. 87. 93. 87. 93. 87. 87.
 87. 87. 87. 87. 93. 93. 87. 93. 87. 87. 87. 87. 87. 93. 93. 87.]",475.6322616792704,None,s,1,0.6051247836066977,475.6322616792704,None,None,None,,,,,,,21_SU,23,F,21,2021_Nov_05_1142,Partial repeat,2021.2.3,120.10269052272326,
7,7,0,1,1,3,2,3,2,0,0,0,0,1,1,0,0,77,77,77,1,0,1,0,,,,,,,,,0.9181194702192291,476.29835095441285,None,"[87. 87. 93. 93. 87. 93. 93. 87. 87. 93. 87. 93. 93. 87. 93. 93. 87. 93.
 93. 93. 87. 93. 93. 87. 93. 87. 93. 87. 93. 87. 87. 87. 93. 87.]",477.2974914417564,None,s,1,0.6359691008501613,477.2974914417564,None,None,None,,,,,,,21_SU,23,F,21,2021_Nov_05_1142,Partial repeat,2021.2.3,120.10269052272326,
7,7,0,1,1,3,2,3,2,0,0,0,0,1,1,0,0,77,77,77,,,,,,,,,,,,,,,,,,,,,,,,,,,,,,,,21_SU,23,F,21,2021_Nov_05_1142,Partial repeat,2021.2.3,120.10269052272326,
7,7,0,1,1,3,3,2,2,1,1,1,1,1,1,0,0,78,78,78,0,0,0,0,,,,,,,477.94694048772817,None,0.9905190633298321,478.67133454734085,None,"[93. 93. 93. 87. 93. 93. 93. 93. 87. 93. 87. 93. 93. 93. 87. 93. 87. 93.
 87. 93. 87. 87. 87. 93. 87. 87. 93. 93. 93. 93. 87. 87. 93. 93.]",479.7370830962727,None,l,1,0.9964355596521273,479.7370830962727,None,None,None,,,,,,,21_SU,23,F,21,2021_Nov_05_1142,Partial repeat,2021.2.3,120.10269052272326,
7,7,0,1,1,3,3,2,2,1,1,1,1,1,1,0,0,78,78,78,1,0,1,0,,,,,,,,,0.8954398915967271,480.79449373101033,None,"[93. 87. 93. 87. 87. 87. 87. 93. 87. 93. 87. 87. 87. 93. 93. 93. 87. 93.
 93. 93. 87. 93. 87. 93. 87. 87. 93. 93. 93. 93. 93. 93. 93. 93.]",481.7686602442691,None,l,1,0.6128620010813393,481.7686602442691,None,None,None,,,,,,,21_SU,23,F,21,2021_Nov_05_1142,Partial repeat,2021.2.3,120.10269052272326,
7,7,0,1,1,3,3,2,2,1,1,1,1,1,1,0,0,78,78,78,,,,,,,,,,,,,,,,,,,,,,,,,,,,,,,,21_SU,23,F,21,2021_Nov_05_1142,Partial repeat,2021.2.3,120.10269052272326,
7,7,0,1,1,3,2,3,2,1,1,0,0,1,1,0,0,79,79,79,0,0,0,0,,,,,,,482.40145142182064,None,0.7704116602184604,482.9343595315777,None,"[87. 93. 93. 87. 87. 87. 93. 87. 93. 87. 87. 87. 87. 87. 87. 87. 93. 87.
 87. 93. 93. 87. 87. 87. 93. 93. 93. 93. 87. 87. 87. 87. 87. 87.]",483.7836221787629,None,l,1,0.5819381468490974,483.7836221787629,None,None,None,,,,,,,21_SU,23,F,21,2021_Nov_05_1142,Partial repeat,2021.2.3,120.10269052272326,
7,7,0,1,1,3,2,3,2,1,1,0,0,1,1,0,0,79,79,79,1,0,1,0,,,,,,,,,0.7252834365231124,484.42472080270727,None,"[87. 93. 87. 87. 93. 93. 87. 93. 87. 93. 87. 87. 87. 93. 93. 87. 87. 93.
 87. 93. 93. 93. 87. 87. 93. 93. 87. 93. 93. 87. 93. 93. 93. 87.]",485.22405891381914,None,l,1,0.5654759137696601,485.22405891381914,None,None,None,,,,,,,21_SU,23,F,21,2021_Nov_05_1142,Partial repeat,2021.2.3,120.10269052272326,
7,7,0,1,1,3,2,3,2,1,1,0,0,1,1,0,0,79,79,79,,,,,,,,,,,,,,,,,,,,,,,,,,,,,,,,21_SU,23,F,21,2021_Nov_05_1142,Partial repeat,2021.2.3,120.10269052272326,
7,7,0,1,1,3,3,3,3,1,1,1,1,1,1,0,0,80,80,80,0,0,0,0,,,,,,,485.8068960496412,None,0.8581532007427892,486.4480036535706,None,"[87. 93. 87. 93. 87. 87. 93. 93. 87. 93. 87. 87. 87. 87. 87. 87. 93. 93.
 93. 87. 87. 93. 87. 87. 93. 87. 87. 87. 93. 93. 93. 93. 93. 87.]",487.3805328721892,None,l,1,0.6330791498994586,487.3805328721892,None,None,None,,,,,,,21_SU,23,F,21,2021_Nov_05_1142,Partial repeat,2021.2.3,120.10269052272326,
7,7,0,1,1,3,3,3,3,1,1,1,1,1,1,0,0,80,80,80,1,0,1,0,,,,,,,,,0.9465220695130253,488.06331465283165,None,"[87. 93. 87. 87. 93. 93. 93. 87. 93. 93. 93. 93. 87. 93. 93. 87. 87. 93.
 93. 87. 93. 93. 93. 87. 87. 93. 93. 87. 93. 93. 93. 87. 93. 87.]",489.08742718997655,None,l,1,0.7812479068716129,489.08742718997655,None,None,None,,,,,,,21_SU,23,F,21,2021_Nov_05_1142,Partial repeat,2021.2.3,120.10269052272326,
7,7,0,1,1,3,3,3,3,1,1,1,1,1,1,0,0,80,80,80,,,,,,,,,,,,,,,,,,,,,,,,,,,,,,,,21_SU,23,F,21,2021_Nov_05_1142,Partial repeat,2021.2.3,120.10269052272326,
7,7,0,1,1,3,3,3,3,0,0,1,1,1,1,0,0,81,81,81,0,0,0,0,,,,,,,489.8950448453934,None,0.8248246537153415,490.40293985399785,None,"[87. 93. 87. 93. 93. 87. 87. 87. 93. 93. 93. 87. 87. 93. 93. 93. 93. 93.
 93. 87. 87. 87. 93. 93. 93. 93. 93. 87. 87. 87. 87. 93. 93. 93.]",491.3021972735487,None,s,1,0.5344750882532026,491.3021972735487,None,None,None,,,,,,,21_SU,23,F,21,2021_Nov_05_1142,Partial repeat,2021.2.3,120.10269052272326,
7,7,0,1,1,3,3,3,3,0,0,1,1,1,1,0,0,81,81,81,1,0,1,0,,,,,,,,,0.7697061370134952,491.9099997241856,None,"[87. 87. 93. 93. 93. 93. 87. 93. 93. 87. 87. 93. 87. 87. 87. 87. 93. 93.
 87. 87. 87. 93. 87. 93. 87. 93. 87. 87. 93. 87. 93. 93. 93. 87.]",492.76759996485,None,s,1,0.4770965248835637,492.76759996485,None,None,None,,,,,,,21_SU,23,F,21,2021_Nov_05_1142,Partial repeat,2021.2.3,120.10269052272326,
7,7,0,1,1,3,3,3,3,0,0,1,1,1,1,0,0,81,81,81,,,,,,,,,,,,,,,,,,,,,,,,,,,,,,,,21_SU,23,F,21,2021_Nov_05_1142,Partial repeat,2021.2.3,120.10269052272326,
7,7,0,1,1,2,3,2,2,1,0,0,1,0,1,0,0,82,82,82,0,0,0,0,,,,,,,493.27551453698925,None,0.7777820947302291,493.77506970711784,None,"[87. 93. 93. 87. 93. 87. 87. 93. 87. 93. 87. 93. 93. 87. 87. 93. 93. 93.
 93. 93. 93. 87. 87. 87. 93. 93. 93. 87. 93. 93. 93. 87. 87. 93.]",494.6326641749356,None,l,1,0.6440805911870484,494.6326641749356,None,None,None,,,,,,,21_SU,23,F,21,2021_Nov_05_1142,Partial repeat,2021.2.3,120.10269052272326,
7,7,0,1,1,2,3,2,2,1,0,0,1,0,1,0,0,82,82,82,1,0,1,0,,,,,,,,,0.9981564342941194,495.33207656333525,None,"[93. 93. 87. 87. 93. 87. 87. 87. 93. 93. 87. 93. 93. 87. 93. 93. 87. 87.
 87. 93. 93. 93. 93. 87. 87. 87. 93. 87. 87. 93. 87. 93. 93. 87.]",496.40616046074956,None,s,1,0.9186073300470525,496.40616046074956,None,None,None,,,,,,,21_SU,23,F,21,2021_Nov_05_1142,Partial repeat,2021.2.3,120.10269052272326,
7,7,0,1,1,2,3,2,2,1,0,0,1,0,1,0,0,82,82,82,,,,,,,,,,,,,,,,,,,,,,,,,,,,,,,,21_SU,23,F,21,2021_Nov_05_1142,Partial repeat,2021.2.3,120.10269052272326,
7,7,0,1,1,2,3,3,3,1,0,0,1,0,1,0,0,83,83,83,0,0,0,0,,,,,,,497.338682302955,None,0.7918595724415018,497.86323902854474,None,"[87. 93. 87. 93. 87. 87. 87. 87. 87. 93. 87. 93. 87. 87. 87. 93. 87. 87.
 93. 93. 87. 87. 93. 93. 87. 93. 87. 87. 87. 87. 87. 87. 93. 93.]",498.7291736555517,None,l,1,0.46838594139535417,498.7291736555517,None,None,None,,,,,,,21_SU,23,F,21,2021_Nov_05_1142,Partial repeat,2021.2.3,120.10269052272326,
7,7,0,1,1,2,3,3,3,1,0,0,1,0,1,0,0,83,83,83,1,0,1,0,,,,,,,,,0.9823535308238114,499.26205001465587,None,"[93. 87. 93. 93. 87. 93. 87. 93. 87. 87. 93. 87. 87. 93. 93. 93. 93. 87.
 87. 87. 87. 93. 93. 87. 87. 87. 87. 87. 87. 93. 93. 87. 87. 87.]",500.31949560718476,None,s,1,0.493344521223662,500.31949560718476,None,None,None,,,,,,,21_SU,23,F,21,2021_Nov_05_1142,Partial repeat,2021.2.3,120.10269052272326,
7,7,0,1,1,2,3,3,3,1,0,0,1,0,1,0,0,83,83,83,,,,,,,,,,,,,,,,,,,,,,,,,,,,,,,,21_SU,23,F,21,2021_Nov_05_1142,Partial repeat,2021.2.3,120.10269052272326,
7,7,0,1,1,3,3,3,2,0,0,1,0,1,1,0,0,84,84,84,0,0,0,0,,,,,,,500.835688440774,None,0.8946099834602821,501.33527407870224,None,"[93. 93. 87. 87. 93. 87. 93. 93. 87. 87. 87. 87. 87. 87. 93. 93. 93. 87.
 93. 87. 87. 87. 93. 87. 93. 93. 93. 87. 87. 87. 87. 93. 93. 93.]",502.3094409126743,None,s,1,0.5185397877476134,502.3094409126743,None,None,None,,,,,,,21_SU,23,F,21,2021_Nov_05_1142,Partial repeat,2021.2.3,120.10269052272326,
7,7,0,1,1,3,3,3,2,0,0,1,0,1,1,0,0,84,84,84,1,0,1,0,,,,,,,,,0.8191540164471427,502.9005957577274,None,"[87. 93. 87. 87. 87. 87. 93. 87. 87. 87. 87. 87. 87. 93. 93. 87. 93. 93.
 87. 87. 93. 87. 87. 87. 87. 87. 87. 87. 87. 93. 87. 87. 93. 93.]",503.7998230301919,None,s,1,0.5160840831167661,503.7998230301919,None,None,None,,,,,,,21_SU,23,F,21,2021_Nov_05_1142,Partial repeat,2021.2.3,120.10269052272326,
7,7,0,1,1,3,3,3,2,0,0,1,0,1,1,0,0,84,84,84,,,,,,,,,,,,,,,,,,,,,,,,,,,,,,,,21_SU,23,F,21,2021_Nov_05_1142,Partial repeat,2021.2.3,120.10269052272326,
7,7,0,1,1,3,2,2,2,1,0,0,1,0,1,0,0,85,85,85,0,0,0,0,,,,,,,504.33271125570263,None,0.826535316078938,505.00711984364625,None,"[87. 93. 93. 93. 93. 87. 93. 93. 87. 93. 93. 87. 87. 87. 87. 93. 87. 87.
 93. 93. 93. 87. 93. 87. 87. 87. 87. 87. 93. 87. 87. 93. 87. 93.]",505.9147010659881,None,l,1,0.6092251079762718,505.9147010659881,None,None,None,,,,,,,21_SU,23,F,21,2021_Nov_05_1142,Partial repeat,2021.2.3,120.10269052272326,
7,7,0,1,1,3,2,2,2,1,0,0,1,0,1,0,0,85,85,85,1,0,1,0,,,,,,,,,0.7801409058176235,506.58077783329736,None,"[93. 87. 93. 87. 93. 87. 93. 87. 87. 93. 93. 87. 87. 87. 87. 93. 93. 87.
 93. 87. 93. 93. 93. 87. 87. 87. 87. 93. 93. 93. 87. 87. 93. 87.]",507.4383835260933,None,s,1,0.6215501346132442,507.4383835260933,None,None,None,,,,,,,21_SU,23,F,21,2021_Nov_05_1142,Partial repeat,2021.2.3,120.10269052272326,
7,7,0,1,1,3,2,2,2,1,0,0,1,0,1,0,0,85,85,85,,,,,,,,,,,,,,,,,,,,,,,,,,,,,,,,21_SU,23,F,21,2021_Nov_05_1142,Partial repeat,2021.2.3,120.10269052272326,
7,7,0,1,1,2,2,3,2,1,1,1,0,1,1,0,0,86,86,86,0,0,0,0,,,,,,,508.07950716570576,None,0.7823681591428585,508.5457700110901,None,"[93. 93. 93. 93. 87. 87. 93. 87. 87. 87. 93. 87. 93. 93. 93. 87. 93. 93.
 87. 93. 87. 87. 93. 87. 87. 93. 87. 93. 93. 87. 93. 87. 87. 93.]",509.4033773074543,None,l,1,0.5925919345072543,509.4033773074543,None,None,None,,,,,,,21_SU,23,F,21,2021_Nov_05_1142,Partial repeat,2021.2.3,120.10269052272326,
7,7,0,1,1,2,2,3,2,1,1,1,0,1,1,0,0,86,86,86,1,0,1,0,,,,,,,,,0.87736832326291,510.0528209012946,None,"[87. 93. 87. 93. 87. 87. 93. 87. 87. 93. 93. 87. 87. 87. 93. 93. 93. 87.
 87. 87. 93. 87. 93. 87. 93. 93. 87. 87. 93. 93. 93. 87. 93. 87.]",511.0103301875597,None,l,1,0.5696750179513401,511.0103301875597,None,None,None,,,,,,,21_SU,23,F,21,2021_Nov_05_1142,Partial repeat,2021.2.3,120.10269052272326,
7,7,0,1,1,2,2,3,2,1,1,1,0,1,1,0,0,86,86,86,,,,,,,,,,,,,,,,,,,,,,,,,,,,,,,,21_SU,23,F,21,2021_Nov_05_1142,Partial repeat,2021.2.3,120.10269052272326,
7,7,0,1,1,2,2,2,2,0,1,1,1,0,1,0,0,87,87,87,0,0,0,0,,,,,,,511.601501389011,None,0.8378270939951715,512.0677552544121,None,"[93. 93. 87. 87. 93. 87. 93. 93. 93. 87. 87. 93. 93. 87. 87. 87. 87. 93.
 87. 93. 87. 93. 93. 93. 93. 93. 87. 93. 93. 87. 93. 87. 93. 87.]",512.9836487338553,None,s,1,0.5963741109108014,512.9836487338553,None,None,None,,,,,,,21_SU,23,F,21,2021_Nov_05_1142,Partial repeat,2021.2.3,120.10269052272326,
7,7,0,1,1,2,2,2,2,0,1,1,1,0,1,0,0,87,87,87,1,0,1,0,,,,,,,,,0.7393434922613404,513.6414177340548,None,"[93. 87. 93. 93. 93. 87. 93. 87. 93. 93. 87. 87. 93. 87. 93. 87. 93. 93.
 87. 93. 87. 87. 93. 87. 87. 87. 87. 93. 87. 87. 87. 87. 87. 87.]",514.4657173114183,None,l,1,0.7943445706141574,514.4657173114183,None,None,None,,,,,,,21_SU,23,F,21,2021_Nov_05_1142,Partial repeat,2021.2.3,120.10269052272326,
7,7,0,1,1,2,2,2,2,0,1,1,1,0,1,0,0,87,87,87,,,,,,,,,,,,,,,,,,,,,,,,,,,,,,,,21_SU,23,F,21,2021_Nov_05_1142,Partial repeat,2021.2.3,120.10269052272326,
7,7,0,1,1,3,2,3,2,1,0,0,0,0,1,0,0,88,88,88,0,0,0,0,,,,,,,515.2816847474342,None,0.9801160860533666,515.7479501585285,None,"[93. 87. 87. 93. 93. 93. 93. 93. 93. 93. 87. 87. 87. 93. 93. 93. 93. 87.
 93. 87. 93. 93. 93. 87. 87. 87. 87. 87. 87. 93. 93. 93. 93. 93.]",516.8136922931872,None,l,1,0.5742368493056347,516.8136922931872,None,None,None,,,,,,,21_SU,23,F,21,2021_Nov_05_1142,Partial repeat,2021.2.3,120.10269052272326,
7,7,0,1,1,3,2,3,2,1,0,0,0,0,1,0,0,88,88,88,1,0,1,0,,,,,,,,,0.7320988142608267,517.4381554986676,None,"[87. 93. 93. 87. 93. 93. 87. 93. 87. 93. 87. 87. 87. 87. 93. 93. 87. 87.
 87. 93. 87. 93. 93. 93. 87. 87. 93. 87. 93. 93. 87. 87. 87. 87.]",518.2457968868957,None,s,1,0.7263199167127823,518.2457968868957,None,None,None,,,,,,,21_SU,23,F,21,2021_Nov_05_1142,Partial repeat,2021.2.3,120.10269052272326,
7,7,0,1,1,3,2,3,2,1,0,0,0,0,1,0,0,88,88,88,,,,,,,,,,,,,,,,,,,,,,,,,,,,,,,,21_SU,23,F,21,2021_Nov_05_1142,Partial repeat,2021.2.3,120.10269052272326,
7,7,0,1,1,3,2,2,3,0,1,0,0,0,1,0,0,89,89,89,0,0,0,0,,,,,,,519.0034967412294,None,0.9074632771570101,519.45310588747,None,"[87. 93. 93. 93. 87. 87. 93. 93. 93. 93. 87. 93. 87. 93. 93. 93. 93. 93.
 93. 87. 87. 93. 87. 93. 87. 93. 93. 93. 93. 87. 93. 93. 93. 87.]",520.435601655653,None,s,1,0.679545109668652,520.435601655653,None,None,None,,,,,,,21_SU,23,F,21,2021_Nov_05_1142,Partial repeat,2021.2.3,120.10269052272326,
7,7,0,1,1,3,2,2,3,0,1,0,0,0,1,0,0,89,89,89,1,0,1,0,,,,,,,,,0.8261729379702352,521.1766336994397,None,"[87. 93. 87. 93. 87. 87. 93. 93. 93. 87. 87. 93. 93. 87. 93. 87. 87. 87.
 93. 93. 93. 87. 87. 93. 93. 87. 87. 87. 87. 93. 93. 87. 93. 87.]",522.0841985653833,None,l,1,0.614973900649602,522.0841985653833,None,None,None,,,,,,,21_SU,23,F,21,2021_Nov_05_1142,Partial repeat,2021.2.3,120.10269052272326,
7,7,0,1,1,3,2,2,3,0,1,0,0,0,1,0,0,89,89,89,,,,,,,,,,,,,,,,,,,,,,,,,,,,,,,,21_SU,23,F,21,2021_Nov_05_1142,Partial repeat,2021.2.3,120.10269052272326,
7,7,0,1,1,2,2,2,3,0,1,1,0,0,1,0,0,90,90,90,0,0,0,0,,,,,,,522.7169878186533,None,0.9885212967107546,523.4580214660082,None,"[87. 93. 93. 87. 87. 87. 93. 93. 87. 93. 93. 93. 87. 87. 93. 87. 93. 87.
 87. 87. 87. 87. 93. 87. 93. 93. 87. 93. 87. 93. 93. 87. 87. 93.]",524.5321069669908,None,s,1,0.5990860657684607,524.5321069669908,None,None,None,,,,,,,21_SU,23,F,21,2021_Nov_05_1142,Partial repeat,2021.2.3,120.10269052272326,
7,7,0,1,1,2,2,2,3,0,1,1,0,0,1,0,0,90,90,90,1,0,1,0,,,,,,,,,0.7347758141190003,525.1815258658798,None,"[87. 93. 93. 93. 87. 87. 87. 93. 87. 93. 93. 93. 87. 93. 93. 93. 87. 87.
 87. 93. 93. 87. 93. 87. 93. 87. 87. 93. 93. 93. 93. 93. 87. 87.]",525.9975240904087,None,l,1,0.9097017526446507,525.9975240904087,None,None,None,,,,,,,21_SU,23,F,21,2021_Nov_05_1142,Partial repeat,2021.2.3,120.10269052272326,
7,7,0,1,1,2,2,2,3,0,1,1,0,0,1,0,0,90,90,90,,,,,,,,,,,,,,,,,,,,,,,,,,,,,,,,21_SU,23,F,21,2021_Nov_05_1142,Partial repeat,2021.2.3,120.10269052272326,
7,7,0,1,1,3,3,2,2,0,0,1,1,1,1,0,0,91,91,91,0,0,0,0,,,,,,,526.9300558747373,None,0.7384963091817782,527.3796675866879,None,"[87. 87. 93. 87. 87. 93. 87. 93. 87. 93. 93. 93. 87. 93. 93. 87. 87. 93.
 93. 93. 93. 87. 93. 87. 93. 93. 93. 87. 87. 87. 87. 87. 93. 87.]",528.1956449648269,None,s,1,0.5356819338221612,528.1956449648269,None,None,None,,,,,,,21_SU,23,F,21,2021_Nov_05_1142,Partial repeat,2021.2.3,120.10269052272326,
7,7,0,1,1,3,3,2,2,0,0,1,1,1,1,0,0,91,91,91,1,0,1,0,,,,,,,,,0.782069040256091,528.7951232919595,None,"[87. 93. 87. 93. 93. 93. 87. 93. 87. 93. 87. 87. 93. 87. 93. 93. 87. 87.
 93. 93. 87. 87. 87. 87. 87. 87. 87. 93. 87. 93. 87. 87. 93. 87.]",529.6527244947638,None,s,1,0.7745812316506999,529.6527244947638,None,None,None,,,,,,,21_SU,23,F,21,2021_Nov_05_1142,Partial repeat,2021.2.3,120.10269052272326,
7,7,0,1,1,3,3,2,2,0,0,1,1,1,1,0,0,91,91,91,,,,,,,,,,,,,,,,,,,,,,,,,,,,,,,,21_SU,23,F,21,2021_Nov_05_1142,Partial repeat,2021.2.3,120.10269052272326,
7,7,0,1,1,2,3,3,2,0,0,0,0,1,1,0,0,92,92,92,0,0,0,0,,,,,,,530.4520478530458,None,0.9781740852207408,531.3595902690331,None,"[93. 87. 93. 87. 87. 87. 93. 93. 93. 93. 93. 87. 87. 93. 87. 87. 87. 87.
 87. 87. 93. 93. 93. 87. 87. 87. 87. 93. 87. 93. 87. 87. 93. 93.]",532.4170413136953,None,s,1,0.6504509269680057,532.4170413136953,None,None,None,,,,,,,21_SU,23,F,21,2021_Nov_05_1142,Partial repeat,2021.2.3,120.10269052272326,
7,7,0,1,1,2,3,3,2,0,0,0,0,1,1,0,0,92,92,92,1,0,1,0,,,,,,,,,0.7866564253456177,533.1330887998438,None,"[87. 87. 87. 87. 87. 87. 87. 93. 93. 93. 93. 87. 87. 87. 87. 93. 93. 87.
 93. 87. 87. 93. 93. 87. 87. 87. 87. 87. 87. 93. 93. 87. 93. 93.]",533.9990170125775,None,s,1,0.5394734109186174,533.9990170125775,None,None,None,,,,,,,21_SU,23,F,21,2021_Nov_05_1142,Partial repeat,2021.2.3,120.10269052272326,
7,7,0,1,1,2,3,3,2,0,0,0,0,1,1,0,0,92,92,92,,,,,,,,,,,,,,,,,,,,,,,,,,,,,,,,21_SU,23,F,21,2021_Nov_05_1142,Partial repeat,2021.2.3,120.10269052272326,
7,7,0,1,1,3,3,2,2,1,0,1,1,0,1,0,0,93,93,93,0,0,0,0,,,,,,,534.5568574036433,None,0.7917778686797334,535.2479171250206,None,"[87. 93. 93. 93. 93. 87. 87. 93. 87. 93. 87. 93. 93. 87. 87. 93. 93. 87.
 93. 87. 87. 87. 93. 93. 93. 93. 93. 87. 93. 93. 87. 87. 87. 93.]",536.1138533555959,None,l,1,1.0165542493696194,536.1138533555959,None,None,None,,,,,,,21_SU,23,F,21,2021_Nov_05_1142,Partial repeat,2021.2.3,120.10269052272326,
7,7,0,1,1,3,3,2,2,1,0,1,1,0,1,0,0,93,93,93,1,0,1,0,,,,,,,,,0.9362740820721037,537.2045960835721,None,"[93. 87. 87. 93. 87. 87. 87. 93. 93. 87. 93. 93. 87. 87. 87. 87. 93. 87.
 93. 93. 93. 87. 87. 87. 87. 87. 87. 87. 87. 93. 87. 87. 87. 87.]",538.2204040607476,None,s,1,0.6060256683276748,538.2204040607476,None,None,None,,,,,,,21_SU,23,F,21,2021_Nov_05_1142,Partial repeat,2021.2.3,120.10269052272326,
7,7,0,1,1,3,3,2,2,1,0,1,1,0,1,0,0,93,93,93,,,,,,,,,,,,,,,,,,,,,,,,,,,,,,,,21_SU,23,F,21,2021_Nov_05_1142,Partial repeat,2021.2.3,120.10269052272326,
7,7,0,1,1,3,2,2,3,1,1,0,0,1,1,0,0,94,94,94,0,0,0,0,,,,,,,538.84485764482,None,0.7488568806819957,539.3777388146291,None,"[87. 93. 93. 93. 93. 93. 87. 87. 93. 93. 93. 87. 93. 93. 93. 93. 93. 93.
 93. 87. 87. 87. 93. 93. 87. 93. 93. 93. 87. 87. 93. 93. 87. 93.]",540.2020361469977,None,l,1,0.6411495888851277,540.2020361469977,None,None,None,,,,,,,21_SU,23,F,21,2021_Nov_05_1142,Partial repeat,2021.2.3,120.10269052272326,
7,7,0,1,1,3,2,2,3,1,1,0,0,1,1,0,0,94,94,94,1,0,1,0,,,,,,,,,0.8263168197206695,540.9097614339234,None,"[93. 93. 87. 87. 87. 93. 93. 93. 87. 87. 87. 87. 93. 93. 93. 87. 87. 93.
 93. 87. 93. 87. 93. 87. 93. 93. 87. 93. 93. 93. 87. 93. 87. 87.]",541.8173218098773,None,l,1,0.5611504483977114,541.8173218098773,None,None,None,,,,,,,21_SU,23,F,21,2021_Nov_05_1142,Partial repeat,2021.2.3,120.10269052272326,
7,7,0,1,1,3,2,2,3,1,1,0,0,1,1,0,0,94,94,94,,,,,,,,,,,,,,,,,,,,,,,,,,,,,,,,21_SU,23,F,21,2021_Nov_05_1142,Partial repeat,2021.2.3,120.10269052272326,
7,7,0,1,1,3,2,3,3,1,0,0,1,0,1,0,0,95,95,95,0,0,0,0,,,,,,,542.4001413064461,None,0.9638546510879331,543.4076325365304,None,"[93. 87. 87. 87. 87. 93. 87. 87. 87. 93. 93. 87. 93. 87. 87. 93. 93. 93.
 87. 93. 87. 93. 87. 93. 93. 87. 87. 87. 93. 87. 87. 93. 87. 87.]",544.4484035835258,None,l,1,0.6661713493076604,544.4484035835258,None,None,None,,,,,,,21_SU,23,F,21,2021_Nov_05_1142,Partial repeat,2021.2.3,120.10269052272326,
7,7,0,1,1,3,2,3,3,1,0,0,1,0,1,0,0,95,95,95,1,0,1,0,,,,,,,,,0.9177328106502736,545.1727828903104,None,"[87. 93. 87. 93. 87. 87. 93. 93. 87. 87. 87. 87. 87. 87. 87. 87. 87. 93.
 87. 87. 87. 87. 93. 93. 93. 87. 93. 87. 93. 93. 87. 93. 87. 87.]",546.1719365269155,None,s,1,0.6066379107387547,546.1719365269155,None,None,None,,,,,,,21_SU,23,F,21,2021_Nov_05_1142,Partial repeat,2021.2.3,120.10269052272326,
7,7,0,1,1,3,2,3,3,1,0,0,1,0,1,0,0,95,95,95,,,,,,,,,,,,,,,,,,,,,,,,,,,,,,,,21_SU,23,F,21,2021_Nov_05_1142,Partial repeat,2021.2.3,120.10269052272326,
7,7,0,1,1,2,3,2,2,1,1,0,1,1,1,0,0,96,96,96,0,0,0,0,,,,,,,546.7963894695595,None,0.8664860641985986,547.7039450348066,None,"[87. 93. 93. 93. 93. 93. 93. 87. 87. 93. 93. 87. 93. 87. 93. 93. 87. 93.
 93. 93. 87. 87. 87. 87. 93. 87. 87. 93. 93. 87. 93. 93. 93. 87.]",548.6448221097444,None,l,1,0.6777070995822214,548.6448221097444,None,None,None,,,,,,,21_SU,23,F,21,2021_Nov_05_1142,Partial repeat,2021.2.3,120.10269052272326,
7,7,0,1,1,2,3,2,2,1,1,0,1,1,1,0,0,96,96,96,1,0,1,0,,,,,,,,,0.8782473505462342,549.3858394007011,None,"[93. 87. 93. 93. 87. 93. 87. 87. 93. 93. 87. 93. 87. 87. 87. 87. 93. 87.
 87. 87. 93. 87. 93. 93. 93. 93. 93. 87. 93. 93. 87. 93. 93. 87.]",550.3433672883593,None,l,1,0.6113068604581713,550.3433672883593,None,None,None,,,,,,,21_SU,23,F,21,2021_Nov_05_1142,Partial repeat,2021.2.3,120.10269052272326,
7,7,0,1,1,2,3,2,2,1,1,0,1,1,1,0,0,96,96,96,,,,,,,,,,,,,,,,,,,,,,,,,,,,,,,,21_SU,23,F,21,2021_Nov_05_1142,Partial repeat,2021.2.3,120.10269052272326,
7,7,0,1,1,2,2,3,3,0,1,1,1,0,1,0,0,97,97,97,0,0,0,0,,,,,,,550.9678250417082,None,0.7603645995562915,551.4840361559773,None,"[87. 93. 93. 93. 93. 87. 93. 87. 93. 87. 87. 93. 93. 87. 93. 87. 93. 87.
 87. 93. 93. 87. 93. 93. 93. 93. 93. 87. 87. 87. 87. 93. 87. 93.]",552.3250045060277,None,s,1,0.548652236376256,552.3250045060277,None,None,None,,,,,,,21_SU,23,F,21,2021_Nov_05_1142,Partial repeat,2021.2.3,120.10269052272326,
7,7,0,1,1,2,2,3,3,0,1,1,1,0,1,0,0,97,97,97,1,0,1,0,,,,,,,,,0.8372500221059885,552.9244786638819,None,"[87. 87. 87. 87. 93. 93. 87. 87. 93. 93. 93. 87. 87. 93. 93. 93. 87. 87.
 93. 93. 93. 93. 87. 87. 87. 93. 93. 93. 93. 93. 87. 87. 93. 93.]",553.8403901032898,None,l,1,0.6492963577284172,553.8403901032898,None,None,None,,,,,,,21_SU,23,F,21,2021_Nov_05_1142,Partial repeat,2021.2.3,120.10269052272326,
7,7,0,1,1,2,2,3,3,0,1,1,1,0,1,0,0,97,97,97,,,,,,,,,,,,,,,,,,,,,,,,,,,,,,,,21_SU,23,F,21,2021_Nov_05_1142,Partial repeat,2021.2.3,120.10269052272326,
7,7,0,1,1,2,2,3,2,0,1,1,0,0,1,0,0,98,98,98,0,0,0,0,,,,,,,554.506471681304,None,0.8359521892579563,554.9810608951893,None,"[87. 87. 93. 93. 87. 93. 87. 87. 87. 87. 93. 87. 87. 93. 87. 87. 87. 87.
 93. 87. 87. 93. 93. 93. 93. 87. 87. 93. 93. 87. 93. 87. 93. 87.]",555.9052538031838,None,s,1,0.5844663327688977,555.9052538031838,None,None,None,,,,,,,21_SU,23,F,21,2021_Nov_05_1142,Partial repeat,2021.2.3,120.10269052272326,
7,7,0,1,1,2,2,3,2,0,1,1,0,0,1,0,0,98,98,98,1,0,1,0,,,,,,,,,0.8518273655169668,556.5464091934509,None,"[93. 87. 93. 87. 87. 87. 87. 93. 87. 87. 93. 93. 87. 93. 93. 87. 93. 87.
 93. 93. 87. 93. 93. 93. 87. 93. 87. 93. 87. 93. 93. 87. 93. 87.]",557.4789249420946,None,l,1,0.6590348285508298,557.4789249420946,None,None,None,,,,,,,21_SU,23,F,21,2021_Nov_05_1142,Partial repeat,2021.2.3,120.10269052272326,
7,7,0,1,1,2,2,3,2,0,1,1,0,0,1,0,0,98,98,98,,,,,,,,,,,,,,,,,,,,,,,,,,,,,,,,21_SU,23,F,21,2021_Nov_05_1142,Partial repeat,2021.2.3,120.10269052272326,
7,7,0,1,1,2,3,3,2,1,0,0,0,0,1,0,0,99,99,99,0,0,0,0,,,,,,,558.1616637471025,None,0.8990701369863436,558.7195336438263,None,"[93. 87. 93. 87. 93. 87. 87. 87. 93. 93. 87. 93. 87. 93. 93. 93. 87. 93.
 93. 87. 87. 93. 87. 93. 93. 87. 87. 87. 87. 93. 93. 93. 87. 93.]",559.693686687112,None,l,1,0.8440914313096073,559.693686687112,None,None,None,,,,,,,21_SU,23,F,21,2021_Nov_05_1142,Partial repeat,2021.2.3,120.10269052272326,
7,7,0,1,1,2,3,3,2,1,0,0,0,0,1,0,0,99,99,99,1,0,1,0,,,,,,,,,0.894994205693813,560.6012457802108,None,"[93. 93. 87. 87. 87. 87. 93. 87. 93. 87. 93. 93. 93. 93. 93. 93. 93. 87.
 87. 87. 93. 87. 87. 87. 93. 93. 87. 93. 93. 87. 87. 93. 87. 93.]",561.5754206320244,None,s,1,0.594380554687632,561.5754206320244,None,None,None,,,,,,,21_SU,23,F,21,2021_Nov_05_1142,Partial repeat,2021.2.3,120.10269052272326,
7,7,0,1,1,2,3,3,2,1,0,0,0,0,1,0,0,99,99,99,,,,,,,,,,,,,,,,,,,,,,,,,,,,,,,,21_SU,23,F,21,2021_Nov_05_1142,Partial repeat,2021.2.3,120.10269052272326,
7,7,0,1,1,2,2,2,3,1,1,1,0,1,1,0,0,100,100,100,0,0,0,0,,,,,,,562.191567731842,None,0.9841583079299754,562.7160927067789,None,"[93. 93. 93. 87. 87. 87. 93. 87. 93. 87. 93. 93. 93. 93. 93. 87. 93. 87.
 93. 93. 87. 87. 93. 87. 93. 87. 93. 87. 93. 93. 87. 93. 87. 87.]",563.7901929605914,None,l,1,0.6036385964243891,563.7901929605914,None,None,None,,,,,,,21_SU,23,F,21,2021_Nov_05_1142,Partial repeat,2021.2.3,120.10269052272326,
7,7,0,1,1,2,2,2,3,1,1,1,0,1,1,0,0,100,100,100,1,0,1,0,,,,,,,,,0.8727284440998138,564.4646076420931,None,"[87. 93. 93. 87. 93. 93. 87. 93. 93. 93. 93. 87. 93. 87. 87. 87. 87. 87.
 93. 93. 87. 93. 87. 93. 93. 87. 93. 87. 87. 93. 87. 87. 87. 93.]",565.4137956912755,None,l,1,0.5791383164405488,565.4137956912755,None,None,None,,,,,,,21_SU,23,F,21,2021_Nov_05_1142,Partial repeat,2021.2.3,120.10269052272326,
7,7,0,1,1,2,2,2,3,1,1,1,0,1,1,0,0,100,100,100,,,,,,,,,,,,,,,,,,,,,,,,,,,,,,,,21_SU,23,F,21,2021_Nov_05_1142,Partial repeat,2021.2.3,120.10269052272326,
7,7,0,1,1,3,3,3,3,0,1,1,1,0,1,0,0,101,101,101,0,0,0,0,,,,,,,566.0216263647171,None,0.9760115965704214,566.6210963532931,None,"[87. 93. 93. 93. 93. 87. 93. 87. 87. 93. 87. 87. 87. 93. 93. 87. 87. 87.
