prime_tar_pos,probe_tar_pos,dimension,tar_color,tar_shape,prime_dist_color,probe_dist_color,prime_dist_shape,probe_dist_shape,prime_tar_ori,probe_tar_ori,col_rep,shape_rep,resp_rep,pos_fixed,sparse,MainLoop.thisRepN,MainLoop.thisTrialN,MainLoop.thisN,MainLoop.thisIndex,PrimeProbe.thisRepN,PrimeProbe.thisTrialN,PrimeProbe.thisN,PrimeProbe.thisIndex,Instruction.started,Instruction.stopped,instruction_key.keys,instruction_key.rt,instruction_key.started,instruction_key.stopped,PairStartText.started,PairStartText.stopped,fixdur,FixCross.started,FixCross.stopped,dist_ori,SearchFixCross.started,SearchFixCross.stopped,key_resp.keys,key_resp.corr,key_resp.rt,key_resp.started,key_resp.stopped,feedback_text.started,feedback_text.stopped,text_finish.started,text_finish.stopped,finish_key.keys,finish_key.rt,finish_key.started,finish_key.stopped,participant,age,gender,group,date,expName,psychopyVersion,frameRate,
,,,,,,,,,,,,,,,,,,,,,,,,54.2873770945007,None,space,4.043334661808331,54.2873770945007,None,,,,,,,,,,,,,,,,,,,,,,22_XHM,23,F,22,2021_Nov_05_1343,Partial repeat,2021.2.3,120.10130268372438,
8,8,0,1,1,2,3,3,3,1,0,0,1,0,1,0,0,0,0,0,0,0,0,0,,,,,,,128.49155143958706,None,0.759028167065987,140.39706373799345,None,"[87. 87. 93. 93. 93. 87. 93. 87. 87. 87. 87. 87. 93. 93. 87. 87. 87. 87.
 87. 93. 87. 93. 87. 87. 93. 93. 93. 87. 87. 87. 87. 87. 87. 93.]",141.24634017586504,None,l,1,0.7447399650009174,141.24634017586504,None,None,None,,,,,,,22_XHM,23,F,22,2021_Nov_05_1343,Partial repeat,2021.2.3,120.10130268372438,
8,8,0,1,1,2,3,3,3,1,0,0,1,0,1,0,0,0,0,0,1,0,1,0,,,,,,,,,0.9125994378259277,142.0623076118809,None,"[87. 93. 87. 93. 87. 87. 93. 87. 87. 87. 93. 87. 87. 87. 93. 93. 93. 87.
 93. 93. 93. 93. 87. 87. 93. 93. 93. 93. 87. 93. 93. 87. 93. 93.]",143.0614590034911,None,s,1,1.5856627737102826,143.0614590034911,None,None,None,,,,,,,22_XHM,23,F,22,2021_Nov_05_1343,Partial repeat,2021.2.3,120.10130268372438,
8,8,0,1,1,2,3,3,3,1,0,0,1,0,1,0,0,0,0,0,,,,,,,,,,,,,,,,,,,,,,,,,,,,,,,,22_XHM,23,F,22,2021_Nov_05_1343,Partial repeat,2021.2.3,120.10130268372438,
8,8,0,1,1,2,2,2,3,0,1,1,0,0,1,0,0,1,1,1,0,0,0,0,,,,,,,144.6767366485292,None,0.7661187165112049,145.74249193244577,None,"[93. 93. 87. 87. 87. 93. 93. 87. 87. 93. 93. 87. 87. 87. 93. 93. 87. 93.
 93. 87. 87. 93. 87. 87. 93. 93. 87. 93. 87. 87. 87. 93. 93. 87.]",146.59176869103248,None,l,0,0.9664265597475605,146.59176869103248,None,147.57425900708222,None,,,,,,,22_XHM,23,F,22,2021_Nov_05_1343,Partial repeat,2021.2.3,120.10130268372438,
8,8,0,1,1,2,2,2,3,0,1,1,0,0,1,0,0,1,1,1,1,0,1,0,,,,,,,,,0.96313895506663,148.13211254740781,None,"[87. 93. 93. 93. 93. 87. 87. 93. 93. 87. 87. 93. 93. 93. 87. 93. 87. 87.
 87. 93. 87. 93. 87. 93. 93. 87. 93. 93. 93. 93. 93. 93. 87. 93.]",149.18122054645755,None,l,1,1.0809995968338626,149.18122054645755,None,None,None,,,,,,,22_XHM,23,F,22,2021_Nov_05_1343,Partial repeat,2021.2.3,120.10130268372438,
8,8,0,1,1,2,2,2,3,0,1,1,0,0,1,0,0,1,1,1,,,,,,,,,,,,,,,,,,,,,,,,,,,,,,,,22_XHM,23,F,22,2021_Nov_05_1343,Partial repeat,2021.2.3,120.10130268372438,
8,8,0,1,1,2,2,2,2,0,0,1,1,1,1,0,0,2,2,2,0,0,0,0,,,,,,,150.28027938009836,None,0.7569282563819264,151.27942275386522,None,"[87. 87. 93. 93. 93. 87. 93. 93. 87. 87. 93. 87. 87. 93. 93. 93. 87. 93.
 87. 87. 93. 87. 93. 93. 87. 93. 93. 87. 93. 93. 93. 93. 87. 93.]",152.12037442680412,None,s,1,1.1179002711687644,152.12037442680412,None,None,None,,,,,,,22_XHM,23,F,22,2021_Nov_05_1343,Partial repeat,2021.2.3,120.10130268372438,
8,8,0,1,1,2,2,2,2,0,0,1,1,1,1,0,0,2,2,2,1,0,1,0,,,,,,,,,0.728221357071272,153.31102010682298,None,"[87. 87. 93. 87. 93. 87. 87. 93. 93. 93. 93. 93. 93. 87. 93. 87. 93. 93.
 87. 87. 87. 87. 87. 87. 87. 87. 87. 87. 87. 87. 93. 87. 93. 93.]",154.1269981263904,None,s,1,0.7593103080962464,154.1269981263904,None,None,None,,,,,,,22_XHM,23,F,22,2021_Nov_05_1343,Partial repeat,2021.2.3,120.10130268372438,
8,8,0,1,1,2,2,2,2,0,0,1,1,1,1,0,0,2,2,2,,,,,,,,,,,,,,,,,,,,,,,,,,,,,,,,22_XHM,23,F,22,2021_Nov_05_1343,Partial repeat,2021.2.3,120.10130268372438,
8,8,0,1,1,2,3,2,2,0,0,0,1,1,1,0,0,3,3,3,0,0,0,0,,,,,,,154.90133820989104,None,0.9448521787954427,155.54244260668384,None,"[87. 87. 93. 93. 87. 93. 93. 93. 87. 93. 87. 87. 87. 93. 93. 87. 87. 87.
 87. 87. 87. 93. 87. 87. 87. 93. 93. 93. 87. 87. 93. 87. 93. 87.]",156.56657727307356,None,l,0,0.9437642898519698,156.56657727307356,None,157.532414531408,None,,,,,,,22_XHM,23,F,22,2021_Nov_05_1343,Partial repeat,2021.2.3,120.10130268372438,
8,8,0,1,1,2,3,2,2,0,0,0,1,1,1,0,0,3,3,3,1,0,1,0,,,,,,,,,0.9548605841556768,158.09027576886183,None,"[93. 87. 93. 93. 87. 87. 93. 87. 87. 87. 93. 87. 87. 87. 93. 87. 93. 93.
 87. 87. 93. 93. 93. 93. 87. 93. 93. 87. 87. 93. 87. 87. 87. 93.]",159.13106541725028,None,s,1,1.1000063722331106,159.13106541725028,None,None,None,,,,,,,22_XHM,23,F,22,2021_Nov_05_1343,Partial repeat,2021.2.3,120.10130268372438,
8,8,0,1,1,2,3,2,2,0,0,0,1,1,1,0,0,3,3,3,,,,,,,,,,,,,,,,,,,,,,,,,,,,,,,,22_XHM,23,F,22,2021_Nov_05_1343,Partial repeat,2021.2.3,120.10130268372438,
8,8,0,1,1,3,2,2,3,0,1,0,0,0,1,0,0,4,4,4,0,0,0,0,,,,,,,160.25508411357623,None,0.9713370678907352,160.80461192682742,None,"[93. 93. 93. 87. 87. 93. 93. 87. 93. 93. 93. 93. 87. 93. 93. 87. 93. 87.
 93. 93. 87. 93. 87. 93. 87. 87. 93. 93. 93. 93. 93. 87. 87. 87.]",161.8620555950729,None,l,0,1.279395002162346,161.8620555950729,None,163.15260967926588,None,,,,,,,22_XHM,23,F,22,2021_Nov_05_1343,Partial repeat,2021.2.3,120.10130268372438,
8,8,0,1,1,3,2,2,3,0,1,0,0,0,1,0,0,4,4,4,1,0,1,0,,,,,,,,,0.9391887653808402,163.71047765170806,None,"[93. 87. 87. 87. 87. 93. 93. 87. 93. 87. 87. 87. 87. 87. 93. 87. 93. 87.
 87. 93. 87. 87. 93. 93. 87. 87. 93. 93. 87. 93. 87. 93. 87. 93.]",164.72627408319022,None,l,1,0.767193450294144,164.72627408319022,None,None,None,,,,,,,22_XHM,23,F,22,2021_Nov_05_1343,Partial repeat,2021.2.3,120.10130268372438,
8,8,0,1,1,3,2,2,3,0,1,0,0,0,1,0,0,4,4,4,,,,,,,,,,,,,,,,,,,,,,,,,,,,,,,,22_XHM,23,F,22,2021_Nov_05_1343,Partial repeat,2021.2.3,120.10130268372438,
8,8,0,1,1,3,3,3,2,0,0,1,0,1,1,0,0,5,5,5,0,0,0,0,,,,,,,165.50893380020534,None,0.7661181695105739,166.08343398397483,None,"[93. 87. 87. 87. 93. 93. 87. 93. 93. 87. 87. 87. 87. 87. 87. 87. 93. 93.
 93. 87. 93. 93. 87. 93. 87. 87. 93. 93. 87. 93. 87. 93. 87. 87.]",166.93271298755644,None,s,1,1.2487838437646133,166.93271298755644,None,None,None,,,,,,,22_XHM,23,F,22,2021_Nov_05_1343,Partial repeat,2021.2.3,120.10130268372438,
8,8,0,1,1,3,3,3,2,0,0,1,0,1,1,0,0,5,5,5,1,0,1,0,,,,,,,,,0.755154272285044,168.24825195009907,None,"[93. 93. 93. 93. 87. 93. 87. 87. 93. 93. 93. 93. 93. 87. 93. 93. 93. 93.
 93. 93. 93. 93. 93. 87. 93. 93. 93. 87. 87. 87. 93. 93. 93. 87.]",169.08921548944272,None,s,1,1.5080901529072435,169.08921548944272,None,None,None,,,,,,,22_XHM,23,F,22,2021_Nov_05_1343,Partial repeat,2021.2.3,120.10130268372438,
8,8,0,1,1,3,3,3,2,0,0,1,0,1,1,0,0,5,5,5,,,,,,,,,,,,,,,,,,,,,,,,,,,,,,,,22_XHM,23,F,22,2021_Nov_05_1343,Partial repeat,2021.2.3,120.10130268372438,
8,8,0,1,1,3,3,3,3,0,0,1,1,1,1,0,0,6,6,6,0,0,0,0,,,,,,,170.62123041160885,None,0.8322577008262813,171.32895537782315,None,"[87. 93. 87. 87. 87. 93. 87. 87. 93. 93. 93. 87. 93. 93. 93. 93. 93. 87.
 93. 87. 93. 93. 87. 93. 87. 87. 93. 87. 93. 93. 93. 93. 87. 87.]",172.24483987728127,None,l,0,1.6007491451091482,172.24483987728127,None,173.86844998438028,None,,,,,,,22_XHM,23,F,22,2021_Nov_05_1343,Partial repeat,2021.2.3,120.10130268372438,
8,8,0,1,1,3,3,3,3,0,0,1,1,1,1,0,0,6,6,6,1,0,1,0,,,,,,,,,0.9508289252714508,174.4263240503824,None,"[87. 93. 93. 93. 93. 93. 87. 87. 93. 93. 93. 87. 87. 93. 93. 93. 93. 93.
 93. 87. 87. 87. 93. 87. 87. 87. 93. 87. 87. 87. 93. 87. 93. 93.]",175.4670874002495,None,s,1,0.7145656186330598,175.4670874002495,None,None,None,,,,,,,22_XHM,23,F,22,2021_Nov_05_1343,Partial repeat,2021.2.3,120.10130268372438,
8,8,0,1,1,3,3,3,3,0,0,1,1,1,1,0,0,6,6,6,,,,,,,,,,,,,,,,,,,,,,,,,,,,,,,,22_XHM,23,F,22,2021_Nov_05_1343,Partial repeat,2021.2.3,120.10130268372438,
8,8,0,1,1,2,3,3,3,0,0,0,1,1,1,0,0,7,7,7,0,0,0,0,,,,,,,176.2081162368995,None,0.792915495957184,176.8658874820958,None,"[93. 93. 87. 87. 87. 93. 87. 87. 87. 87. 87. 87. 93. 93. 87. 87. 93. 93.
 87. 93. 87. 87. 87. 87. 93. 93. 93. 93. 87. 93. 93. 87. 93. 93.]",177.74014078047549,None,s,1,0.8891284698529489,177.74014078047549,None,None,None,,,,,,,22_XHM,23,F,22,2021_Nov_05_1343,Partial repeat,2021.2.3,120.10130268372438,
8,8,0,1,1,2,3,3,3,0,0,0,1,1,1,0,0,7,7,7,1,0,1,0,,,,,,,,,0.7148218628893044,178.70598060451812,None,"[93. 87. 87. 87. 87. 87. 93. 87. 93. 87. 93. 93. 93. 87. 93. 87. 87. 87.
 87. 87. 93. 87. 87. 93. 87. 93. 87. 87. 93. 87. 87. 93. 93. 93.]",179.5052994728103,None,s,1,1.2834109788345813,179.5052994728103,None,None,None,,,,,,,22_XHM,23,F,22,2021_Nov_05_1343,Partial repeat,2021.2.3,120.10130268372438,
8,8,0,1,1,2,3,3,3,0,0,0,1,1,1,0,0,7,7,7,,,,,,,,,,,,,,,,,,,,,,,,,,,,,,,,22_XHM,23,F,22,2021_Nov_05_1343,Partial repeat,2021.2.3,120.10130268372438,
8,8,0,1,1,2,3,2,3,1,1,0,0,1,1,0,0,8,8,8,0,0,0,0,,,,,,,180.8125078975736,None,0.9502779390626303,181.65346213622252,None,"[87. 93. 93. 93. 93. 93. 93. 87. 93. 87. 87. 93. 93. 93. 93. 87. 93. 87.
 93. 93. 93. 87. 87. 93. 93. 87. 87. 93. 93. 93. 93. 87. 93. 93.]",182.6942379939228,None,l,1,0.8625041031828005,182.6942379939228,None,None,None,,,,,,,22_XHM,23,F,22,2021_Nov_05_1343,Partial repeat,2021.2.3,120.10130268372438,
8,8,0,1,1,2,3,2,3,1,1,0,0,1,1,0,0,8,8,8,1,0,1,0,,,,,,,,,0.8212998269618104,183.626771702533,None,"[87. 93. 87. 93. 93. 87. 87. 93. 87. 93. 93. 93. 93. 87. 87. 93. 93. 87.
 93. 87. 93. 87. 93. 87. 87. 87. 87. 87. 93. 87. 93. 87. 93. 87.]",184.53433496491016,None,l,1,0.6864598754837061,184.53433496491016,None,None,None,,,,,,,22_XHM,23,F,22,2021_Nov_05_1343,Partial repeat,2021.2.3,120.10130268372438,
8,8,0,1,1,2,3,2,3,1,1,0,0,1,1,0,0,8,8,8,,,,,,,,,,,,,,,,,,,,,,,,,,,,,,,,22_XHM,23,F,22,2021_Nov_05_1343,Partial repeat,2021.2.3,120.10130268372438,
8,8,0,1,1,3,3,3,2,0,1,1,0,0,1,0,0,9,9,9,0,0,0,0,,,,,,,185.24205961040934,None,0.7715281265465654,185.77493917665015,None,"[93. 93. 93. 87. 87. 87. 87. 93. 87. 93. 87. 93. 87. 87. 93. 93. 87. 93.
 93. 87. 87. 93. 87. 87. 87. 87. 93. 93. 93. 93. 87. 93. 93. 93.]",186.63253909659943,None,s,1,0.8601888711436914,186.63253909659943,None,None,None,,,,,,,22_XHM,23,F,22,2021_Nov_05_1343,Partial repeat,2021.2.3,120.10130268372438,
8,8,0,1,1,3,3,3,2,0,1,1,0,0,1,0,0,9,9,9,1,0,1,0,,,,,,,,,0.7184304284392274,187.56507569163477,None,"[93. 87. 87. 93. 93. 87. 87. 87. 93. 93. 93. 93. 87. 87. 93. 93. 87. 93.
 93. 93. 93. 87. 87. 93. 87. 93. 87. 87. 93. 93. 93. 93. 87. 87.]",188.37272189056785,None,l,1,0.8321280279105849,188.37272189056785,None,None,None,,,,,,,22_XHM,23,F,22,2021_Nov_05_1343,Partial repeat,2021.2.3,120.10130268372438,
8,8,0,1,1,3,3,3,2,0,1,1,0,0,1,0,0,9,9,9,,,,,,,,,,,,,,,,,,,,,,,,,,,,,,,,22_XHM,23,F,22,2021_Nov_05_1343,Partial repeat,2021.2.3,120.10130268372438,
8,8,0,1,1,3,3,2,3,1,0,1,0,0,1,0,0,10,10,10,0,0,0,0,,,,,,,189.23032213123224,None,0.8048352050094085,189.67993031533115,None,"[87. 87. 87. 87. 87. 93. 93. 93. 93. 87. 87. 93. 87. 93. 93. 87. 87. 93.
 87. 93. 87. 93. 93. 93. 87. 93. 87. 87. 93. 87. 93. 93. 87. 93.]",190.56252473504173,None,l,1,0.674340426316121,190.56252473504173,None,None,None,,,,,,,22_XHM,23,F,22,2021_Nov_05_1343,Partial repeat,2021.2.3,120.10130268372438,
8,8,0,1,1,3,3,2,3,1,0,1,0,0,1,0,0,10,10,10,1,0,1,0,,,,,,,,,0.8267479367474673,191.3118728844911,None,"[87. 87. 93. 87. 87. 87. 93. 93. 87. 93. 93. 93. 93. 93. 93. 87. 93. 87.
 93. 87. 93. 87. 87. 93. 93. 87. 87. 93. 87. 87. 87. 87. 87. 87.]",192.2194255633167,None,s,1,1.2740692308307189,192.2194255633167,None,None,None,,,,,,,22_XHM,23,F,22,2021_Nov_05_1343,Partial repeat,2021.2.3,120.10130268372438,
8,8,0,1,1,3,3,2,3,1,0,1,0,0,1,0,0,10,10,10,,,,,,,,,,,,,,,,,,,,,,,,,,,,,,,,22_XHM,23,F,22,2021_Nov_05_1343,Partial repeat,2021.2.3,120.10130268372438,
8,8,0,1,1,3,2,2,3,1,1,0,0,1,1,0,0,11,11,11,0,0,0,0,,,,,,,193.50166129685022,None,0.8964238357633298,200.80375497988098,None,"[87. 93. 93. 87. 87. 87. 87. 87. 87. 93. 93. 87. 93. 87. 87. 93. 87. 87.
 87. 93. 93. 93. 93. 87. 87. 87. 93. 87. 93. 93. 87. 87. 87. 93.]",201.78625171020394,None,l,1,0.6031682883804024,201.78625171020394,None,None,None,,,,,,,22_XHM,23,F,22,2021_Nov_05_1343,Partial repeat,2021.2.3,120.10130268372438,
8,8,0,1,1,3,2,2,3,1,1,0,0,1,1,0,0,11,11,11,1,0,1,0,,,,,,,,,0.9898365217801119,202.44402006897872,None,"[93. 87. 93. 93. 93. 93. 87. 93. 93. 87. 87. 93. 87. 93. 93. 87. 87. 87.
 93. 87. 93. 87. 93. 87. 93. 87. 87. 87. 93. 93. 93. 87. 87. 87.]",203.5097920300068,None,l,1,0.5422878523640975,203.5097920300068,None,None,None,,,,,,,22_XHM,23,F,22,2021_Nov_05_1343,Partial repeat,2021.2.3,120.10130268372438,
8,8,0,1,1,3,2,2,3,1,1,0,0,1,1,0,0,11,11,11,,,,,,,,,,,,,,,,,,,,,,,,,,,,,,,,22_XHM,23,F,22,2021_Nov_05_1343,Partial repeat,2021.2.3,120.10130268372438,
8,8,0,1,1,2,3,2,2,1,1,0,1,1,1,0,0,12,12,12,0,0,0,0,,,,,,,204.07596231742536,None,0.7921852724289689,204.74205832755433,None,"[93. 87. 93. 87. 87. 87. 93. 87. 87. 87. 93. 87. 93. 87. 93. 93. 93. 93.
 93. 93. 93. 87. 87. 87. 93. 87. 87. 93. 87. 93. 93. 87. 87. 87.]",205.62463574944013,None,l,1,0.6034684763835685,205.62463574944013,None,None,None,,,,,,,22_XHM,23,F,22,2021_Nov_05_1343,Partial repeat,2021.2.3,120.10130268372438,
8,8,0,1,1,2,3,2,2,1,1,0,1,1,1,0,0,12,12,12,1,0,1,0,,,,,,,,,0.9310094126810909,206.29906069378012,None,"[87. 93. 87. 93. 93. 93. 87. 87. 87. 87. 87. 87. 93. 87. 93. 87. 93. 93.
 87. 93. 87. 87. 87. 93. 93. 93. 93. 87. 93. 87. 87. 87. 87. 87.]",207.30650862751827,None,l,1,0.6816773931222997,207.30650862751827,None,None,None,,,,,,,22_XHM,23,F,22,2021_Nov_05_1343,Partial repeat,2021.2.3,120.10130268372438,
8,8,0,1,1,2,3,2,2,1,1,0,1,1,1,0,0,12,12,12,,,,,,,,,,,,,,,,,,,,,,,,,,,,,,,,22_XHM,23,F,22,2021_Nov_05_1343,Partial repeat,2021.2.3,120.10130268372438,
8,8,0,1,1,2,2,3,3,1,1,1,1,1,1,0,0,13,13,13,0,0,0,0,,,,,,,208.00592999590117,None,0.9147872863386728,208.61374431294462,None,"[93. 87. 93. 87. 87. 87. 93. 93. 87. 87. 87. 87. 87. 93. 93. 93. 93. 87.
 87. 93. 93. 87. 87. 93. 87. 93. 87. 93. 87. 93. 87. 93. 87. 87.]",209.6045702981919,None,l,1,0.5436521683495812,209.6045702981919,None,None,None,,,,,,,22_XHM,23,F,22,2021_Nov_05_1343,Partial repeat,2021.2.3,120.10130268372438,
8,8,0,1,1,2,2,3,3,1,1,1,1,1,1,0,0,13,13,13,1,0,1,0,,,,,,,,,0.9214342397527943,210.22070553160484,None,"[93. 87. 93. 93. 87. 93. 93. 93. 87. 87. 93. 87. 93. 93. 87. 93. 87. 93.
 93. 87. 87. 93. 87. 87. 87. 87. 87. 87. 93. 87. 93. 93. 87. 87.]",211.22818361242753,None,l,1,0.503027366792594,211.22818361242753,None,None,None,,,,,,,22_XHM,23,F,22,2021_Nov_05_1343,Partial repeat,2021.2.3,120.10130268372438,
8,8,0,1,1,2,2,3,3,1,1,1,1,1,1,0,0,13,13,13,,,,,,,,,,,,,,,,,,,,,,,,,,,,,,,,22_XHM,23,F,22,2021_Nov_05_1343,Partial repeat,2021.2.3,120.10130268372438,
8,8,0,1,1,3,3,2,3,1,1,1,0,1,1,0,0,14,14,14,0,0,0,0,,,,,,,211.7527278301859,None,0.8221934422313527,212.1107584686033,None,"[93. 93. 93. 93. 87. 87. 93. 87. 93. 87. 87. 93. 93. 87. 93. 93. 87. 87.
 93. 87. 93. 93. 87. 93. 93. 93. 87. 93. 93. 87. 87. 93. 93. 93.]",213.01831756170213,None,l,1,0.44102796075276274,213.01831756170213,None,None,None,,,,,,,22_XHM,23,F,22,2021_Nov_05_1343,Partial repeat,2021.2.3,120.10130268372438,
8,8,0,1,1,3,3,2,3,1,1,1,0,1,1,0,0,14,14,14,1,0,1,0,,,,,,,,,0.9664624801421505,213.5262122495933,None,"[87. 93. 93. 87. 87. 93. 87. 93. 87. 93. 87. 87. 93. 93. 93. 93. 87. 93.
 93. 93. 93. 93. 87. 93. 87. 87. 93. 87. 93. 93. 87. 93. 93. 93.]",214.56699388014022,None,l,1,0.49284727323174593,214.56699388014022,None,None,None,,,,,,,22_XHM,23,F,22,2021_Nov_05_1343,Partial repeat,2021.2.3,120.10130268372438,
8,8,0,1,1,3,3,2,3,1,1,1,0,1,1,0,0,14,14,14,,,,,,,,,,,,,,,,,,,,,,,,,,,,,,,,22_XHM,23,F,22,2021_Nov_05_1343,Partial repeat,2021.2.3,120.10130268372438,
8,8,0,1,1,3,2,2,3,0,0,0,0,1,1,0,0,15,15,15,0,0,0,0,,,,,,,215.083218143669,None,0.8866502412174506,215.6493948453608,None,"[93. 87. 93. 93. 87. 87. 93. 93. 87. 87. 87. 87. 87. 93. 93. 93. 93. 93.
 93. 87. 87. 87. 93. 93. 87. 87. 87. 93. 93. 87. 87. 87. 87. 93.]",216.62357803573104,None,l,0,0.3716983228969184,216.62357803573104,None,217.0148993953262,None,,,,,,,22_XHM,23,F,22,2021_Nov_05_1343,Partial repeat,2021.2.3,120.10130268372438,
8,8,0,1,1,3,2,2,3,0,0,0,0,1,1,0,0,15,15,15,1,0,1,0,,,,,,,,,0.8298495411042646,217.547777678712,None,"[87. 87. 87. 93. 87. 87. 93. 93. 87. 87. 87. 93. 87. 93. 87. 87. 87. 93.
 93. 87. 87. 93. 93. 93. 93. 87. 87. 93. 93. 93. 87. 93. 87. 93.]",218.46366249888524,None,s,1,0.8516623773066385,218.46366249888524,None,None,None,,,,,,,22_XHM,23,F,22,2021_Nov_05_1343,Partial repeat,2021.2.3,120.10130268372438,
8,8,0,1,1,3,2,2,3,0,0,0,0,1,1,0,0,15,15,15,,,,,,,,,,,,,,,,,,,,,,,,,,,,,,,,22_XHM,23,F,22,2021_Nov_05_1343,Partial repeat,2021.2.3,120.10130268372438,
8,8,0,1,1,3,3,2,3,0,1,1,0,0,1,0,0,16,16,16,0,0,0,0,,,,,,,219.34624216576594,None,0.7480399363306236,219.95405487924108,None,"[87. 87. 87. 93. 93. 87. 87. 87. 87. 87. 87. 93. 87. 87. 93. 93. 87. 93.
 87. 87. 87. 87. 87. 93. 87. 93. 93. 87. 87. 87. 93. 87. 93. 93.]",220.78668018367898,None,s,1,0.7366531696170568,220.78668018367898,None,None,None,,,,,,,22_XHM,23,F,22,2021_Nov_05_1343,Partial repeat,2021.2.3,120.10130268372438,
8,8,0,1,1,3,3,2,3,0,1,1,0,0,1,0,0,16,16,16,1,0,1,0,,,,,,,,,0.7184719181790337,221.5859932791227,None,"[93. 93. 87. 93. 87. 93. 93. 93. 93. 93. 87. 93. 87. 87. 87. 93. 87. 87.
 93. 87. 93. 93. 87. 93. 93. 93. 93. 93. 93. 87. 93. 93. 87. 93.]",222.3936397987709,None,l,1,0.8417115940283111,222.3936397987709,None,None,None,,,,,,,22_XHM,23,F,22,2021_Nov_05_1343,Partial repeat,2021.2.3,120.10130268372438,
8,8,0,1,1,3,3,2,3,0,1,1,0,0,1,0,0,16,16,16,,,,,,,,,,,,,,,,,,,,,,,,,,,,,,,,22_XHM,23,F,22,2021_Nov_05_1343,Partial repeat,2021.2.3,120.10130268372438,
8,8,0,1,1,3,3,2,2,1,1,1,1,1,1,0,0,17,17,17,0,0,0,0,,,,,,,223.25955935223465,None,0.7216242467932442,223.8923514919279,None,"[93. 93. 93. 93. 93. 87. 87. 87. 93. 87. 93. 93. 87. 87. 87. 93. 87. 87.
 87. 87. 93. 87. 87. 87. 87. 87. 87. 93. 93. 87. 87. 87. 93. 87.]",224.70000025656918,None,l,1,0.567705694178585,224.70000025656918,None,None,None,,,,,,,22_XHM,23,F,22,2021_Nov_05_1343,Partial repeat,2021.2.3,120.10130268372438,
8,8,0,1,1,3,3,2,2,1,1,1,1,1,1,0,0,17,17,17,1,0,1,0,,,,,,,,,0.7004419451105386,225.34111010549532,None,"[87. 87. 93. 93. 87. 93. 93. 93. 87. 93. 87. 87. 87. 87. 87. 93. 93. 93.
 87. 87. 87. 87. 93. 87. 93. 87. 87. 87. 87. 87. 87. 87. 93. 87.]",226.1321260173827,None,l,1,0.7183631892894482,226.1321260173827,None,None,None,,,,,,,22_XHM,23,F,22,2021_Nov_05_1343,Partial repeat,2021.2.3,120.10130268372438,
8,8,0,1,1,3,3,2,2,1,1,1,1,1,1,0,0,17,17,17,,,,,,,,,,,,,,,,,,,,,,,,,,,,,,,,22_XHM,23,F,22,2021_Nov_05_1343,Partial repeat,2021.2.3,120.10130268372438,
8,8,0,1,1,2,3,2,3,0,0,0,0,1,1,0,0,18,18,18,0,0,0,0,,,,,,,226.8648111669936,None,0.9386035536323339,227.3727132312979,None,"[93. 87. 93. 93. 93. 93. 87. 87. 93. 93. 93. 93. 93. 87. 87. 87. 87. 87.
 87. 93. 87. 87. 87. 87. 87. 87. 87. 87. 93. 87. 87. 93. 93. 87.]",228.39683154129125,None,l,0,0.5016534293972654,228.39683154129125,None,228.92140462327916,None,,,,,,,22_XHM,23,F,22,2021_Nov_05_1343,Partial repeat,2021.2.3,120.10130268372438,
8,8,0,1,1,2,3,2,3,0,0,0,0,1,1,0,0,18,18,18,1,0,1,0,,,,,,,,,0.8580947297613304,229.47091287299736,None,"[87. 93. 87. 93. 87. 87. 87. 93. 87. 87. 87. 93. 93. 87. 93. 93. 93. 87.
 87. 93. 93. 87. 93. 87. 93. 93. 87. 93. 93. 87. 93. 87. 87. 87.]",230.41178449580184,None,s,1,0.7592516174918273,230.41178449580184,None,None,None,,,,,,,22_XHM,23,F,22,2021_Nov_05_1343,Partial repeat,2021.2.3,120.10130268372438,
8,8,0,1,1,2,3,2,3,0,0,0,0,1,1,0,0,18,18,18,,,,,,,,,,,,,,,,,,,,,,,,,,,,,,,,22_XHM,23,F,22,2021_Nov_05_1343,Partial repeat,2021.2.3,120.10130268372438,
8,8,0,1,1,3,2,3,2,1,1,0,0,1,1,0,0,19,19,19,0,0,0,0,,,,,,,231.20277154345968,None,0.777225710014256,231.76062508378527,None,"[87. 93. 93. 87. 87. 87. 93. 87. 87. 87. 87. 93. 87. 93. 87. 93. 93. 87.
 87. 93. 93. 93. 93. 87. 87. 93. 93. 87. 93. 87. 87. 93. 93. 87.]",232.6265565036556,None,l,1,0.6396295849754097,232.6265565036556,None,None,None,,,,,,,22_XHM,23,F,22,2021_Nov_05_1343,Partial repeat,2021.2.3,120.10130268372438,
8,8,0,1,1,3,2,3,2,1,1,0,0,1,1,0,0,19,19,19,1,0,1,0,,,,,,,,,0.975269862551655,233.33428018701306,None,"[87. 87. 87. 93. 87. 93. 93. 93. 93. 93. 87. 87. 93. 93. 93. 87. 93. 93.
 93. 87. 87. 87. 87. 93. 93. 87. 93. 93. 93. 87. 93. 93. 87. 93.]",234.4000399609231,None,l,1,0.659551677208583,234.4000399609231,None,None,None,,,,,,,22_XHM,23,F,22,2021_Nov_05_1343,Partial repeat,2021.2.3,120.10130268372438,
8,8,0,1,1,3,2,3,2,1,1,0,0,1,1,0,0,19,19,19,,,,,,,,,,,,,,,,,,,,,,,,,,,,,,,,22_XHM,23,F,22,2021_Nov_05_1343,Partial repeat,2021.2.3,120.10130268372438,
8,8,0,1,1,3,2,2,2,0,1,0,1,0,1,0,0,20,20,20,0,0,0,0,,,,,,,235.0827909530508,None,0.8556022617178517,235.74888311461655,None,"[93. 87. 93. 87. 93. 93. 87. 93. 93. 93. 93. 93. 93. 87. 87. 93. 87. 87.
 93. 93. 93. 87. 87. 87. 93. 93. 87. 87. 87. 93. 93. 93. 93. 93.]",236.68142131321838,None,s,1,0.6811690619415458,236.68142131321838,None,None,None,,,,,,,22_XHM,23,F,22,2021_Nov_05_1343,Partial repeat,2021.2.3,120.10130268372438,
8,8,0,1,1,3,2,2,2,0,1,0,1,0,1,0,0,20,20,20,1,0,1,0,,,,,,,,,0.7365683703175977,237.43075278555807,None,"[87. 93. 93. 93. 93. 93. 93. 93. 87. 93. 87. 93. 87. 87. 93. 87. 93. 87.
 93. 87. 87. 93. 93. 93. 87. 87. 87. 87. 87. 87. 87. 93. 93. 93.]",238.2550786614429,None,l,1,0.643564741800219,238.2550786614429,None,None,None,,,,,,,22_XHM,23,F,22,2021_Nov_05_1343,Partial repeat,2021.2.3,120.10130268372438,
8,8,0,1,1,3,2,2,2,0,1,0,1,0,1,0,0,20,20,20,,,,,,,,,,,,,,,,,,,,,,,,,,,,,,,,22_XHM,23,F,22,2021_Nov_05_1343,Partial repeat,2021.2.3,120.10130268372438,
8,8,0,1,1,2,3,2,3,1,0,0,0,0,1,0,0,21,21,21,0,0,0,0,,,,,,,238.92950007793297,None,0.8776655762704547,239.53732658209628,None,"[87. 87. 93. 87. 87. 93. 93. 87. 93. 87. 93. 87. 87. 87. 93. 87. 87. 93.
 87. 87. 93. 87. 87. 87. 93. 93. 93. 93. 87. 93. 93. 93. 87. 87.]",240.50315550187406,None,l,1,0.506548161545652,240.50315550187406,None,None,None,,,,,,,22_XHM,23,F,22,2021_Nov_05_1343,Partial repeat,2021.2.3,120.10130268372438,
8,8,0,1,1,2,3,2,3,1,0,0,0,0,1,0,0,21,21,21,1,0,1,0,,,,,,,,,0.8133915664686272,241.07766947633172,None,"[93. 87. 93. 93. 93. 93. 87. 93. 87. 87. 93. 93. 87. 87. 93. 93. 87. 93.
 93. 87. 87. 87. 93. 93. 87. 93. 87. 87. 87. 93. 93. 93. 93. 87.]",241.97689835236451,None,s,1,0.5848241074418183,241.97689835236451,None,None,None,,,,,,,22_XHM,23,F,22,2021_Nov_05_1343,Partial repeat,2021.2.3,120.10130268372438,
8,8,0,1,1,2,3,2,3,1,0,0,0,0,1,0,0,21,21,21,,,,,,,,,,,,,,,,,,,,,,,,,,,,,,,,22_XHM,23,F,22,2021_Nov_05_1343,Partial repeat,2021.2.3,120.10130268372438,
8,8,0,1,1,3,3,2,2,1,0,1,1,0,1,0,0,22,22,22,0,0,0,0,,,,,,,242.5763959223168,None,0.7666362215123106,243.07595590315213,None,"[87. 87. 87. 87. 87. 93. 93. 87. 87. 93. 93. 87. 93. 93. 87. 87. 87. 87.
 93. 93. 87. 93. 93. 93. 93. 93. 93. 87. 93. 87. 87. 93. 87. 93.]",243.9169034068127,None,l,1,0.9808185860365484,243.9169034068127,None,None,None,,,,,,,22_XHM,23,F,22,2021_Nov_05_1343,Partial repeat,2021.2.3,120.10130268372438,
8,8,0,1,1,3,3,2,2,1,0,1,1,0,1,0,0,22,22,22,1,0,1,0,,,,,,,,,0.8186327202901965,244.97433713293503,None,"[93. 93. 87. 93. 93. 93. 93. 93. 87. 87. 87. 93. 93. 93. 93. 87. 87. 87.
 93. 93. 93. 93. 93. 87. 87. 93. 93. 87. 93. 87. 93. 93. 93. 87.]",245.87354965256964,None,s,1,1.105160561746743,245.87354965256964,None,None,None,,,,,,,22_XHM,23,F,22,2021_Nov_05_1343,Partial repeat,2021.2.3,120.10130268372438,
8,8,0,1,1,3,3,2,2,1,0,1,1,0,1,0,0,22,22,22,,,,,,,,,,,,,,,,,,,,,,,,,,,,,,,,22_XHM,23,F,22,2021_Nov_05_1343,Partial repeat,2021.2.3,120.10130268372438,
8,8,0,1,1,2,2,2,3,0,0,1,0,1,1,0,0,23,23,23,0,0,0,0,,,,,,,246.99760394811346,None,0.7615272827353603,247.59707361597611,None,"[87. 93. 87. 93. 93. 87. 93. 93. 93. 87. 87. 87. 87. 87. 93. 93. 93. 93.
 87. 87. 93. 93. 93. 87. 87. 93. 93. 87. 87. 93. 87. 93. 93. 93.]",248.44636673095738,None,s,1,0.8034254366084497,248.44636673095738,None,None,None,,,,,,,22_XHM,23,F,22,2021_Nov_05_1343,Partial repeat,2021.2.3,120.10130268372438,
8,8,0,1,1,2,2,2,3,0,0,1,0,1,1,0,0,23,23,23,1,0,1,0,,,,,,,,,0.8330825503305306,249.31228500156794,None,"[93. 87. 87. 87. 93. 87. 93. 87. 87. 87. 93. 93. 87. 87. 87. 87. 87. 93.
 93. 93. 93. 87. 93. 87. 93. 93. 87. 93. 93. 87. 93. 93. 93. 93.]",250.2198501882267,None,s,1,0.5826487065660331,250.2198501882267,None,None,None,,,,,,,22_XHM,23,F,22,2021_Nov_05_1343,Partial repeat,2021.2.3,120.10130268372438,
8,8,0,1,1,2,2,2,3,0,0,1,0,1,1,0,0,23,23,23,,,,,,,,,,,,,,,,,,,,,,,,,,,,,,,,22_XHM,23,F,22,2021_Nov_05_1343,Partial repeat,2021.2.3,120.10130268372438,
8,8,0,1,1,3,3,2,2,0,1,1,1,0,1,0,0,24,24,24,0,0,0,0,,,,,,,250.8110050332798,None,0.7298392838079747,251.98499893843655,None,"[87. 93. 93. 93. 93. 87. 93. 93. 93. 93. 93. 93. 93. 87. 87. 87. 87. 87.
 87. 87. 87. 87. 93. 87. 87. 87. 93. 87. 87. 93. 93. 87. 87. 87.]",252.79264417522973,None,s,1,0.5852137745605432,252.79264417522973,None,None,None,,,,,,,22_XHM,23,F,22,2021_Nov_05_1343,Partial repeat,2021.2.3,120.10130268372438,
8,8,0,1,1,3,3,2,2,0,1,1,1,0,1,0,0,24,24,24,1,0,1,0,,,,,,,,,0.7479859383305155,253.45877674671829,None,"[87. 93. 87. 87. 93. 87. 87. 93. 93. 87. 87. 93. 93. 93. 93. 93. 87. 93.
 87. 87. 93. 87. 87. 87. 93. 93. 87. 93. 87. 87. 87. 87. 87. 87.]",254.29136452765488,None,l,1,0.5587228247786697,254.29136452765488,None,None,None,,,,,,,22_XHM,23,F,22,2021_Nov_05_1343,Partial repeat,2021.2.3,120.10130268372438,
8,8,0,1,1,3,3,2,2,0,1,1,1,0,1,0,0,24,24,24,,,,,,,,,,,,,,,,,,,,,,,,,,,,,,,,22_XHM,23,F,22,2021_Nov_05_1343,Partial repeat,2021.2.3,120.10130268372438,
8,8,0,1,1,2,3,2,2,1,0,0,1,0,1,0,0,25,25,25,0,0,0,0,,,,,,,254.87420390847183,None,0.967884482318827,256.44786253955135,None,"[93. 87. 93. 93. 93. 87. 93. 93. 87. 87. 87. 87. 93. 93. 93. 93. 93. 93.
 93. 87. 93. 87. 87. 93. 87. 93. 87. 93. 87. 93. 87. 87. 93. 93.]",257.50528728569043,None,l,1,0.6556925295244582,257.50528728569043,None,None,None,,,,,,,22_XHM,23,F,22,2021_Nov_05_1343,Partial repeat,2021.2.3,120.10130268372438,
8,8,0,1,1,2,3,2,2,1,0,0,1,0,1,0,0,25,25,25,1,0,1,0,,,,,,,,,0.8631167404126419,258.22966883746994,None,"[87. 93. 93. 93. 87. 93. 87. 87. 87. 87. 87. 93. 87. 87. 93. 93. 87. 87.
 87. 87. 87. 87. 87. 93. 93. 93. 93. 93. 87. 87. 93. 87. 87. 93.]",259.178877412327,None,s,1,0.6620827495535195,259.178877412327,None,None,None,,,,,,,22_XHM,23,F,22,2021_Nov_05_1343,Partial repeat,2021.2.3,120.10130268372438,
8,8,0,1,1,2,3,2,2,1,0,0,1,0,1,0,0,25,25,25,,,,,,,,,,,,,,,,,,,,,,,,,,,,,,,,22_XHM,23,F,22,2021_Nov_05_1343,Partial repeat,2021.2.3,120.10130268372438,
8,8,0,1,1,3,2,2,2,0,0,0,1,1,1,0,0,26,26,26,0,0,0,0,,,,,,,259.8699320022861,None,0.7136354635140126,260.5277080581873,None,"[87. 93. 87. 87. 87. 87. 93. 87. 93. 93. 93. 87. 93. 93. 93. 87. 93. 93.
 93. 87. 93. 87. 93. 93. 87. 87. 87. 93. 87. 93. 87. 87. 87. 87.]",261.31868869157006,None,s,1,0.714322838377484,261.31868869157006,None,None,None,,,,,,,22_XHM,23,F,22,2021_Nov_05_1343,Partial repeat,2021.2.3,120.10130268372438,
8,8,0,1,1,3,2,2,2,0,0,0,1,1,1,0,0,26,26,26,1,0,1,0,,,,,,,,,0.8246478143675382,262.10135931285004,None,"[87. 93. 93. 87. 87. 93. 87. 93. 87. 93. 87. 87. 87. 87. 93. 87. 93. 93.
 87. 87. 93. 87. 93. 93. 93. 87. 87. 93. 93. 87. 87. 93. 93. 87.]",263.00893508306035,None,l,0,0.7693698133098223,263.00893508306035,None,263.7915803679607,None,,,,,,,22_XHM,23,F,22,2021_Nov_05_1343,Partial repeat,2021.2.3,120.10130268372438,
8,8,0,1,1,3,2,2,2,0,0,0,1,1,1,0,0,26,26,26,,,,,,,,,,,,,,,,,,,,,,,,,,,,,,,,22_XHM,23,F,22,2021_Nov_05_1343,Partial repeat,2021.2.3,120.10130268372438,
8,8,0,1,1,2,3,3,2,0,0,0,0,1,1,0,0,27,27,27,0,0,0,0,,,,,,,264.2911554223374,None,0.8954398140405591,265.08214407356354,None,"[87. 87. 93. 87. 87. 87. 87. 87. 93. 87. 93. 87. 87. 87. 87. 93. 87. 87.
 93. 93. 93. 93. 87. 93. 87. 93. 87. 87. 87. 87. 93. 93. 93. 93.]",266.0563096246806,None,s,1,0.600757804380919,266.0563096246806,None,None,None,,,,,,,22_XHM,23,F,22,2021_Nov_05_1343,Partial repeat,2021.2.3,120.10130268372438,
8,8,0,1,1,2,3,3,2,0,0,0,0,1,1,0,0,27,27,27,1,0,1,0,,,,,,,,,0.9231537202352671,266.72240371052794,None,"[93. 87. 87. 93. 93. 93. 93. 87. 87. 87. 93. 93. 87. 87. 87. 87. 93. 87.
 87. 87. 87. 87. 93. 93. 87. 93. 93. 87. 87. 93. 87. 87. 93. 93.]",267.7298766599324,None,s,1,0.6226487578805973,267.7298766599324,None,None,None,,,,,,,22_XHM,23,F,22,2021_Nov_05_1343,Partial repeat,2021.2.3,120.10130268372438,
8,8,0,1,1,2,3,3,2,0,0,0,0,1,1,0,0,27,27,27,,,,,,,,,,,,,,,,,,,,,,,,,,,,,,,,22_XHM,23,F,22,2021_Nov_05_1343,Partial repeat,2021.2.3,120.10130268372438,
8,8,0,1,1,3,2,3,2,0,0,0,0,1,1,0,0,28,28,28,0,0,0,0,,,,,,,268.362671686049,None,0.7899721726329888,268.82893709714335,None,"[87. 87. 93. 87. 87. 87. 93. 93. 93. 87. 93. 87. 87. 87. 87. 87. 93. 93.
 93. 93. 93. 93. 87. 87. 87. 93. 87. 87. 87. 93. 93. 93. 93. 87.]",269.69486947915357,None,s,1,0.5456094839246362,269.69486947915357,None,None,None,,,,,,,22_XHM,23,F,22,2021_Nov_05_1343,Partial repeat,2021.2.3,120.10130268372438,
8,8,0,1,1,3,2,3,2,0,0,0,0,1,1,0,0,28,28,28,1,0,1,0,,,,,,,,,0.9594772931435037,270.31101465468964,None,"[87. 93. 93. 93. 87. 87. 93. 87. 93. 87. 87. 87. 87. 87. 93. 87. 93. 93.
 93. 87. 93. 93. 87. 93. 93. 87. 93. 87. 87. 93. 93. 93. 87. 87.]",271.3601149566093,None,s,1,0.5610364532512904,271.3601149566093,None,None,None,,,,,,,22_XHM,23,F,22,2021_Nov_05_1343,Partial repeat,2021.2.3,120.10130268372438,
8,8,0,1,1,3,2,3,2,0,0,0,0,1,1,0,0,28,28,28,,,,,,,,,,,,,,,,,,,,,,,,,,,,,,,,22_XHM,23,F,22,2021_Nov_05_1343,Partial repeat,2021.2.3,120.10130268372438,
8,8,0,1,1,3,3,3,2,1,1,1,0,1,1,0,0,29,29,29,0,0,0,0,,,,,,,271.94294920600805,None,0.8792656021983577,272.8921366137638,None,"[87. 87. 87. 93. 93. 93. 93. 93. 87. 93. 93. 93. 93. 93. 93. 93. 93. 87.
 93. 87. 93. 87. 87. 87. 87. 93. 93. 87. 93. 87. 87. 87. 87. 93.]",273.85798156922465,None,l,1,0.6542358480000985,273.85798156922465,None,None,None,,,,,,,22_XHM,23,F,22,2021_Nov_05_1343,Partial repeat,2021.2.3,120.10130268372438,
8,8,0,1,1,3,3,3,2,1,1,1,0,1,1,0,0,29,29,29,1,0,1,0,,,,,,,,,0.8344070540428109,274.57403226251154,None,"[87. 87. 87. 87. 87. 87. 87. 87. 87. 87. 87. 93. 87. 93. 93. 87. 93. 93.
 87. 93. 87. 93. 93. 87. 93. 87. 87. 93. 87. 87. 87. 93. 87. 87.]",275.4899167619715,None,l,1,0.6383194696027203,275.4899167619715,None,None,None,,,,,,,22_XHM,23,F,22,2021_Nov_05_1343,Partial repeat,2021.2.3,120.10130268372438,
8,8,0,1,1,3,3,3,2,1,1,1,0,1,1,0,0,29,29,29,,,,,,,,,,,,,,,,,,,,,,,,,,,,,,,,22_XHM,23,F,22,2021_Nov_05_1343,Partial repeat,2021.2.3,120.10130268372438,
8,8,0,1,1,3,2,3,3,0,0,0,1,1,1,0,0,30,30,30,0,0,0,0,,,,,,,276.1560092442505,None,0.7762954331182101,276.8387547842449,None,"[87. 87. 93. 93. 93. 93. 93. 87. 87. 87. 93. 87. 87. 93. 93. 87. 93. 87.
 93. 87. 93. 93. 93. 87. 87. 93. 87. 87. 93. 87. 87. 87. 93. 87.]",277.7046887698252,None,s,1,0.6955851417569647,277.7046887698252,None,None,None,,,,,,,22_XHM,23,F,22,2021_Nov_05_1343,Partial repeat,2021.2.3,120.10130268372438,
8,8,0,1,1,3,2,3,3,0,0,0,1,1,1,0,0,30,30,30,1,0,1,0,,,,,,,,,0.9438338051111034,278.47902051477104,None,"[87. 87. 87. 93. 87. 87. 87. 87. 87. 93. 93. 93. 87. 87. 87. 87. 93. 93.
 93. 87. 93. 87. 93. 87. 87. 87. 87. 87. 87. 87. 87. 87. 87. 93.]",279.50315293616404,None,s,1,0.5931164802932472,279.50315293616404,None,None,None,,,,,,,22_XHM,23,F,22,2021_Nov_05_1343,Partial repeat,2021.2.3,120.10130268372438,
8,8,0,1,1,3,2,3,3,0,0,0,1,1,1,0,0,30,30,30,,,,,,,,,,,,,,,,,,,,,,,,,,,,,,,,22_XHM,23,F,22,2021_Nov_05_1343,Partial repeat,2021.2.3,120.10130268372438,
8,8,0,1,1,2,3,3,2,1,1,0,0,1,1,0,0,31,31,31,0,0,0,0,,,,,,,280.11930356383345,None,0.7817765687401049,280.7687256698573,None,"[87. 93. 93. 93. 87. 87. 87. 87. 93. 93. 87. 87. 87. 87. 93. 93. 87. 87.
 93. 93. 87. 87. 93. 93. 87. 93. 93. 87. 93. 93. 87. 87. 87. 87.]",281.62633585264484,None,l,1,0.6779981658110046,281.62633585264484,None,None,None,,,,,,,22_XHM,23,F,22,2021_Nov_05_1343,Partial repeat,2021.2.3,120.10130268372438,
8,8,0,1,1,2,3,3,2,1,1,0,0,1,1,0,0,31,31,31,1,0,1,0,,,,,,,,,0.9487330918738139,282.37569201993756,None,"[93. 93. 87. 93. 87. 93. 87. 87. 93. 87. 87. 87. 87. 87. 93. 87. 93. 87.
 87. 93. 87. 87. 93. 93. 93. 93. 93. 87. 87. 93. 87. 87. 93. 87.]",283.39981834777245,None,l,1,0.6485418973661581,283.39981834777245,None,None,None,,,,,,,22_XHM,23,F,22,2021_Nov_05_1343,Partial repeat,2021.2.3,120.10130268372438,
8,8,0,1,1,2,3,3,2,1,1,0,0,1,1,0,0,31,31,31,,,,,,,,,,,,,,,,,,,,,,,,,,,,,,,,22_XHM,23,F,22,2021_Nov_05_1343,Partial repeat,2021.2.3,120.10130268372438,
8,8,0,1,1,2,3,3,2,1,0,0,0,0,1,0,0,32,32,32,0,0,0,0,,,,,,,284.0659146786147,None,0.7473517769203121,284.5571614402088,None,"[87. 93. 93. 87. 93. 93. 87. 93. 87. 93. 93. 87. 93. 87. 87. 87. 87. 87.
 93. 93. 87. 93. 93. 93. 93. 93. 93. 87. 87. 93. 87. 87. 87. 93.]",285.381459414004,None,l,1,0.44231498474255204,285.381459414004,None,None,None,,,,,,,22_XHM,23,F,22,2021_Nov_05_1343,Partial repeat,2021.2.3,120.10130268372438,
8,8,0,1,1,2,3,3,2,1,0,0,0,0,1,0,0,32,32,32,1,0,1,0,,,,,,,,,0.8161897611039535,285.89767790468613,None,"[87. 93. 93. 93. 87. 87. 93. 87. 87. 87. 93. 93. 87. 87. 93. 93. 87. 93.
 87. 93. 93. 87. 87. 87. 87. 87. 93. 93. 93. 93. 87. 93. 93. 87.]",286.7885922786245,None,s,1,0.6358252793288557,286.7885922786245,None,None,None,,,,,,,22_XHM,23,F,22,2021_Nov_05_1343,Partial repeat,2021.2.3,120.10130268372438,
8,8,0,1,1,2,3,3,2,1,0,0,0,0,1,0,0,32,32,32,,,,,,,,,,,,,,,,,,,,,,,,,,,,,,,,22_XHM,23,F,22,2021_Nov_05_1343,Partial repeat,2021.2.3,120.10130268372438,
8,8,0,1,1,2,2,3,2,0,0,1,0,1,1,0,0,33,33,33,0,0,0,0,,,,,,,287.45468315733524,None,0.9212527788177681,287.9209485684296,None,"[93. 93. 93. 93. 93. 93. 87. 87. 93. 93. 87. 93. 87. 93. 87. 87. 93. 87.
 87. 87. 93. 93. 93. 87. 87. 87. 93. 87. 93. 93. 93. 93. 87. 93.]",288.9284292149623,None,s,1,0.5910206164098781,288.9284292149623,None,None,None,,,,,,,22_XHM,23,F,22,2021_Nov_05_1343,Partial repeat,2021.2.3,120.10130268372438,
8,8,0,1,1,2,2,3,2,0,0,1,0,1,1,0,0,33,33,33,1,0,1,0,,,,,,,,,0.7642424326524495,289.59451913153134,None,"[87. 87. 87. 87. 93. 87. 87. 87. 87. 93. 87. 87. 93. 87. 93. 87. 87. 87.
 93. 93. 93. 93. 87. 87. 87. 87. 87. 87. 87. 93. 93. 93. 87. 87.]",290.44380166296287,None,s,1,0.7556756599842629,290.44380166296287,None,None,None,,,,,,,22_XHM,23,F,22,2021_Nov_05_1343,Partial repeat,2021.2.3,120.10130268372438,
8,8,0,1,1,2,2,3,2,0,0,1,0,1,1,0,0,33,33,33,,,,,,,,,,,,,,,,,,,,,,,,,,,,,,,,22_XHM,23,F,22,2021_Nov_05_1343,Partial repeat,2021.2.3,120.10130268372438,
8,8,0,1,1,3,2,2,2,1,1,0,1,1,1,0,0,34,34,34,0,0,0,0,,,,,,,291.2181407843236,None,0.8259398671697675,291.8176175078879,None,"[93. 93. 87. 87. 87. 87. 93. 87. 93. 93. 93. 87. 93. 87. 93. 93. 87. 93.
 87. 93. 93. 93. 93. 93. 93. 87. 93. 93. 87. 87. 93. 87. 87. 93.]",292.72517852526835,None,l,1,0.7943184510149877,292.72517852526835,None,None,None,,,,,,,22_XHM,23,F,22,2021_Nov_05_1343,Partial repeat,2021.2.3,120.10130268372438,
8,8,0,1,1,3,2,2,2,1,1,0,1,1,1,0,0,34,34,34,1,0,1,0,,,,,,,,,0.7439106148199177,293.5911012858687,None,"[87. 87. 93. 87. 93. 87. 87. 87. 87. 87. 93. 87. 93. 93. 87. 87. 87. 93.
 93. 93. 87. 93. 87. 87. 87. 93. 87. 87. 93. 93. 93. 87. 87. 93.]",294.4154027875138,None,l,1,0.7050910951656988,294.4154027875138,None,None,None,,,,,,,22_XHM,23,F,22,2021_Nov_05_1343,Partial repeat,2021.2.3,120.10130268372438,
8,8,0,1,1,3,2,2,2,1,1,0,1,1,1,0,0,34,34,34,,,,,,,,,,,,,,,,,,,,,,,,,,,,,,,,22_XHM,23,F,22,2021_Nov_05_1343,Partial repeat,2021.2.3,120.10130268372438,
8,8,0,1,1,3,2,3,3,1,0,0,1,0,1,0,0,35,35,35,0,0,0,0,,,,,,,295.13978145287,None,0.8626282704403668,295.6476803100395,None,"[87. 93. 93. 87. 87. 93. 87. 87. 93. 93. 93. 93. 93. 93. 87. 93. 87. 93.
 93. 93. 87. 87. 93. 87. 93. 87. 87. 87. 93. 93. 93. 93. 87. 93.]",296.59687284921347,None,l,1,0.5227069994853082,296.59687284921347,None,None,None,,,,,,,22_XHM,23,F,22,2021_Nov_05_1343,Partial repeat,2021.2.3,120.10130268372438,
8,8,0,1,1,3,2,3,3,1,0,0,1,0,1,0,0,35,35,35,1,0,1,0,,,,,,,,,0.7231368858665587,297.1963627220375,None,"[87. 93. 87. 93. 87. 87. 93. 93. 87. 93. 87. 93. 87. 87. 87. 87. 87. 93.
 87. 87. 93. 87. 93. 93. 87. 87. 93. 87. 87. 87. 93. 93. 87. 87.]",298.00399962027404,None,s,1,0.9876080945923604,298.00399962027404,None,None,None,,,,,,,22_XHM,23,F,22,2021_Nov_05_1343,Partial repeat,2021.2.3,120.10130268372438,
8,8,0,1,1,3,2,3,3,1,0,0,1,0,1,0,0,35,35,35,,,,,,,,,,,,,,,,,,,,,,,,,,,,,,,,22_XHM,23,F,22,2021_Nov_05_1343,Partial repeat,2021.2.3,120.10130268372438,
8,8,0,1,1,3,3,3,2,1,0,1,0,0,1,0,0,36,36,36,0,0,0,0,,,,,,,299.01147449396194,None,0.9205640589393427,299.5027177277043,None,"[87. 93. 87. 87. 87. 93. 87. 93. 87. 87. 87. 93. 87. 93. 87. 87. 93. 87.
 87. 87. 93. 87. 87. 87. 87. 93. 87. 87. 87. 87. 93. 93. 93. 87.]",300.5101954878137,None,l,1,0.7374254481528624,300.5101954878137,None,None,None,,,,,,,22_XHM,23,F,22,2021_Nov_05_1343,Partial repeat,2021.2.3,120.10130268372438,
8,8,0,1,1,3,3,3,2,1,0,1,0,0,1,0,0,36,36,36,1,0,1,0,,,,,,,,,0.9937193338851866,301.32616067883464,None,"[87. 87. 93. 93. 87. 87. 93. 87. 93. 87. 87. 87. 93. 87. 93. 93. 87. 93.
 93. 87. 87. 93. 87. 93. 93. 87. 93. 87. 87. 93. 87. 93. 87. 93.]",302.40858826328986,None,s,1,0.9350809670268063,302.40858826328986,None,None,None,,,,,,,22_XHM,23,F,22,2021_Nov_05_1343,Partial repeat,2021.2.3,120.10130268372438,
8,8,0,1,1,3,3,3,2,1,0,1,0,0,1,0,0,36,36,36,,,,,,,,,,,,,,,,,,,,,,,,,,,,,,,,22_XHM,23,F,22,2021_Nov_05_1343,Partial repeat,2021.2.3,120.10130268372438,
8,8,0,1,1,2,3,2,2,0,1,0,1,0,1,0,0,37,37,37,0,0,0,0,,,,,,,303.3744082030862,None,0.8495201644285989,303.8656616996668,None,"[93. 87. 93. 93. 93. 93. 87. 87. 93. 93. 93. 87. 93. 87. 87. 93. 93. 93.
 93. 93. 93. 93. 87. 93. 93. 87. 87. 93. 93. 93. 87. 93. 93. 87.]",304.7898671154944,None,s,1,0.5848314838567603,304.7898671154944,None,None,None,,,,,,,22_XHM,23,F,22,2021_Nov_05_1343,Partial repeat,2021.2.3,120.10130268372438,
8,8,0,1,1,2,3,2,2,0,1,0,1,0,1,0,0,37,37,37,1,0,1,0,,,,,,,,,0.8196546114289281,305.43930750219806,None,"[87. 87. 93. 93. 93. 93. 93. 87. 87. 87. 87. 87. 87. 87. 93. 87. 87. 93.
 93. 87. 93. 93. 93. 93. 87. 93. 87. 87. 93. 87. 93. 87. 87. 93.]",306.3468688402918,None,s,0,0.5798578561425529,306.3468688402918,None,306.94635678883424,None,,,,,,,22_XHM,23,F,22,2021_Nov_05_1343,Partial repeat,2021.2.3,120.10130268372438,
8,8,0,1,1,2,3,2,2,0,1,0,1,0,1,0,0,37,37,37,,,,,,,,,,,,,,,,,,,,,,,,,,,,,,,,22_XHM,23,F,22,2021_Nov_05_1343,Partial repeat,2021.2.3,120.10130268372438,
8,8,0,1,1,2,2,3,3,1,0,1,1,0,1,0,0,38,38,38,0,0,0,0,,,,,,,307.4459292775009,None,0.8137306983304166,308.5116800714277,None,"[87. 87. 87. 93. 93. 93. 87. 87. 87. 87. 87. 93. 93. 93. 93. 93. 93. 93.
 93. 93. 87. 87. 87. 93. 93. 93. 87. 93. 93. 93. 93. 93. 93. 93.]",309.40259540750776,None,l,1,0.6757839585789043,309.40259540750776,None,None,None,,,,,,,22_XHM,23,F,22,2021_Nov_05_1343,Partial repeat,2021.2.3,120.10130268372438,
8,8,0,1,1,2,2,3,3,1,0,1,1,0,1,0,0,38,38,38,1,0,1,0,,,,,,,,,0.8344985357663736,310.15194804694875,None,"[93. 87. 87. 93. 93. 93. 93. 93. 93. 87. 93. 93. 93. 93. 87. 93. 93. 87.
 87. 87. 93. 87. 93. 93. 87. 87. 87. 93. 87. 93. 93. 93. 87. 93.]",311.0761608391913,None,s,1,1.034657753258216,311.0761608391913,None,None,None,,,,,,,22_XHM,23,F,22,2021_Nov_05_1343,Partial repeat,2021.2.3,120.10130268372438,
8,8,0,1,1,2,2,3,3,1,0,1,1,0,1,0,0,38,38,38,,,,,,,,,,,,,,,,,,,,,,,,,,,,,,,,22_XHM,23,F,22,2021_Nov_05_1343,Partial repeat,2021.2.3,120.10130268372438,
8,8,0,1,1,2,2,2,2,1,1,1,1,1,1,0,0,39,39,39,0,0,0,0,,,,,,,312.1335871888987,None,0.757317308887047,312.5748728530616,None,"[93. 93. 87. 93. 87. 93. 87. 87. 93. 87. 87. 87. 87. 93. 87. 87. 87. 87.
 87. 87. 87. 93. 87. 87. 87. 93. 87. 87. 87. 93. 87. 93. 93. 87.]",313.4158274124238,None,l,1,0.7270170064566628,313.4158274124238,None,None,None,,,,,,,22_XHM,23,F,22,2021_Nov_05_1343,Partial repeat,2021.2.3,120.10130268372438,
8,8,0,1,1,2,2,2,2,1,1,1,1,1,1,0,0,39,39,39,1,0,1,0,,,,,,,,,0.8601020187324263,314.21514307357756,None,"[87. 93. 87. 93. 93. 87. 93. 93. 87. 87. 93. 93. 93. 93. 93. 87. 87. 87.
 87. 87. 93. 87. 87. 87. 87. 87. 93. 93. 93. 87. 87. 87. 87. 93.]",315.16434074416975,None,l,1,0.7705282311144401,315.16434074416975,None,None,None,,,,,,,22_XHM,23,F,22,2021_Nov_05_1343,Partial repeat,2021.2.3,120.10130268372438,
8,8,0,1,1,2,2,2,2,1,1,1,1,1,1,0,0,39,39,39,,,,,,,,,,,,,,,,,,,,,,,,,,,,,,,,22_XHM,23,F,22,2021_Nov_05_1343,Partial repeat,2021.2.3,120.10130268372438,
8,8,0,1,1,3,2,3,2,1,0,0,0,0,1,0,0,40,40,40,0,0,0,0,,,,,,,315.95531945327275,None,0.8019477961073506,316.413262023716,None,"[93. 87. 87. 93. 93. 93. 93. 87. 93. 93. 93. 87. 93. 93. 93. 93. 93. 93.
 93. 87. 93. 93. 93. 93. 93. 87. 93. 93. 93. 87. 93. 93. 87. 87.]",317.29584521844663,None,l,1,0.5924038545017538,317.29584521844663,None,None,None,,,,,,,22_XHM,23,F,22,2021_Nov_05_1343,Partial repeat,2021.2.3,120.10130268372438,
8,8,0,1,1,3,2,3,2,1,0,0,0,0,1,0,0,40,40,40,1,0,1,0,,,,,,,,,0.7475481838830551,317.953612935793,None,"[87. 93. 93. 93. 87. 93. 93. 87. 87. 93. 93. 87. 87. 93. 93. 93. 93. 87.
 93. 93. 93. 87. 93. 87. 93. 93. 87. 93. 93. 93. 87. 93. 93. 87.]",318.78623086381594,None,s,1,0.6037106152107299,318.78623086381594,None,None,None,,,,,,,22_XHM,23,F,22,2021_Nov_05_1343,Partial repeat,2021.2.3,120.10130268372438,
8,8,0,1,1,3,2,3,2,1,0,0,0,0,1,0,0,40,40,40,,,,,,,,,,,,,,,,,,,,,,,,,,,,,,,,22_XHM,23,F,22,2021_Nov_05_1343,Partial repeat,2021.2.3,120.10130268372438,
8,8,0,1,1,3,2,3,3,1,1,0,1,1,1,0,0,41,41,41,0,0,0,0,,,,,,,319.4190271727857,None,0.7478984737499943,319.91861056571906,None,"[93. 87. 93. 87. 87. 87. 87. 93. 87. 87. 87. 93. 93. 93. 87. 87. 87. 93.
 87. 93. 93. 93. 87. 87. 87. 87. 93. 87. 93. 93. 87. 93. 87. 87.]",320.75121277877224,None,l,1,0.5587536132934474,320.75121277877224,None,None,None,,,,,,,22_XHM,23,F,22,2021_Nov_05_1343,Partial repeat,2021.2.3,120.10130268372438,
8,8,0,1,1,3,2,3,3,1,1,0,1,1,1,0,0,41,41,41,1,0,1,0,,,,,,,,,0.820622758228894,321.3756859263776,None,"[87. 87. 87. 87. 93. 87. 93. 87. 93. 93. 93. 87. 87. 93. 87. 87. 93. 87.
 93. 87. 93. 87. 87. 93. 93. 93. 93. 93. 87. 93. 87. 87. 93. 87.]",322.27492185811207,None,l,1,0.7470465377737128,322.27492185811207,None,None,None,,,,,,,22_XHM,23,F,22,2021_Nov_05_1343,Partial repeat,2021.2.3,120.10130268372438,
8,8,0,1,1,3,2,3,3,1,1,0,1,1,1,0,0,41,41,41,,,,,,,,,,,,,,,,,,,,,,,,,,,,,,,,22_XHM,23,F,22,2021_Nov_05_1343,Partial repeat,2021.2.3,120.10130268372438,
8,8,0,1,1,2,3,3,2,0,1,0,0,0,1,0,0,42,42,42,0,0,0,0,,,,,,,323.04092883812336,None,0.8161735546610595,323.4239340920558,None,"[87. 93. 87. 87. 93. 87. 93. 87. 93. 87. 93. 87. 87. 87. 87. 87. 93. 87.
 87. 87. 93. 87. 93. 87. 93. 87. 87. 87. 93. 93. 93. 87. 87. 93.]",324.31484782456573,None,l,0,0.7711654891918442,324.31484782456573,None,325.09750625872584,None,,,,,,,22_XHM,23,F,22,2021_Nov_05_1343,Partial repeat,2021.2.3,120.10130268372438,
8,8,0,1,1,2,3,3,2,0,1,0,0,0,1,0,0,42,42,42,1,0,1,0,,,,,,,,,0.7646038642979478,325.63038293854515,None,"[87. 87. 93. 87. 93. 93. 93. 87. 87. 93. 93. 87. 93. 93. 87. 93. 93. 93.
 87. 93. 87. 87. 93. 93. 93. 87. 93. 87. 93. 87. 87. 93. 93. 93.]",326.471329480064,None,l,1,0.7587256470596913,326.471329480064,None,None,None,,,,,,,22_XHM,23,F,22,2021_Nov_05_1343,Partial repeat,2021.2.3,120.10130268372438,
8,8,0,1,1,2,3,3,2,0,1,0,0,0,1,0,0,42,42,42,,,,,,,,,,,,,,,,,,,,,,,,,,,,,,,,22_XHM,23,F,22,2021_Nov_05_1343,Partial repeat,2021.2.3,120.10130268372438,
8,8,0,1,1,2,2,3,3,0,1,1,1,0,1,0,0,43,43,43,0,0,0,0,,,,,,,327.25401196775056,None,0.9827948275160043,327.71195678319054,None,"[87. 93. 87. 87. 93. 93. 93. 87. 93. 87. 87. 93. 93. 93. 87. 93. 87. 87.
 87. 87. 87. 87. 87. 93. 87. 87. 87. 93. 87. 93. 87. 93. 87. 93.]",328.7776851271592,None,s,1,0.8844146202191041,328.7776851271592,None,None,None,,,,,,,22_XHM,23,F,22,2021_Nov_05_1343,Partial repeat,2021.2.3,120.10130268372438,
8,8,0,1,1,2,2,3,3,0,1,1,1,0,1,0,0,43,43,43,1,0,1,0,,,,,,,,,0.7879243547295399,329.74354259045504,None,"[87. 93. 87. 87. 93. 93. 93. 87. 93. 87. 87. 93. 87. 93. 87. 87. 87. 87.
 87. 93. 93. 93. 87. 87. 93. 87. 87. 87. 93. 93. 93. 87. 87. 87.]",330.6094637474871,None,l,1,0.6526249031958287,330.6094637474871,None,None,None,,,,,,,22_XHM,23,F,22,2021_Nov_05_1343,Partial repeat,2021.2.3,120.10130268372438,
8,8,0,1,1,2,2,3,3,0,1,1,1,0,1,0,0,43,43,43,,,,,,,,,,,,,,,,,,,,,,,,,,,,,,,,22_XHM,23,F,22,2021_Nov_05_1343,Partial repeat,2021.2.3,120.10130268372438,
8,8,0,1,1,3,2,2,3,1,0,0,0,0,1,0,0,44,44,44,0,0,0,0,,,,,,,331.28388163612726,None,0.9521314693385926,331.8833718296646,None,"[87. 87. 93. 87. 93. 93. 87. 93. 93. 93. 87. 93. 87. 87. 87. 87. 93. 93.
 87. 87. 93. 93. 87. 87. 87. 93. 87. 87. 93. 87. 93. 87. 87. 87.]",332.91583190241545,None,l,1,0.6987669421523606,332.91583190241545,None,None,None,,,,,,,22_XHM,23,F,22,2021_Nov_05_1343,Partial repeat,2021.2.3,120.10130268372438,
8,8,0,1,1,3,2,2,3,1,0,0,0,0,1,0,0,44,44,44,1,0,1,0,,,,,,,,,0.7740530637241467,333.6735016096609,None,"[87. 87. 87. 87. 93. 87. 87. 87. 93. 87. 93. 93. 93. 93. 87. 93. 93. 93.
 93. 93. 93. 87. 93. 93. 87. 87. 87. 87. 93. 93. 87. 93. 87. 87.]",334.5311082645985,None,s,1,0.5221188106006593,334.5311082645985,None,None,None,,,,,,,22_XHM,23,F,22,2021_Nov_05_1343,Partial repeat,2021.2.3,120.10130268372438,
8,8,0,1,1,3,2,2,3,1,0,0,0,0,1,0,0,44,44,44,,,,,,,,,,,,,,,,,,,,,,,,,,,,,,,,22_XHM,23,F,22,2021_Nov_05_1343,Partial repeat,2021.2.3,120.10130268372438,
8,8,0,1,1,2,3,3,3,1,1,0,1,1,1,0,0,45,45,45,0,0,0,0,,,,,,,335.0806380021331,None,0.7625083709057123,335.4636384453588,None,"[87. 87. 93. 87. 93. 87. 87. 93. 93. 87. 87. 87. 93. 87. 93. 87. 93. 87.
 93. 87. 87. 87. 93. 87. 87. 93. 93. 93. 93. 93. 87. 93. 93. 87.]",336.31291873179543,None,l,1,0.6444704372279375,336.31291873179543,None,None,None,,,,,,,22_XHM,23,F,22,2021_Nov_05_1343,Partial repeat,2021.2.3,120.10130268372438,
8,8,0,1,1,2,3,3,3,1,1,0,1,1,1,0,0,45,45,45,1,0,1,0,,,,,,,,,0.9807190800167783,337.0289658972306,None,"[93. 87. 93. 87. 87. 93. 87. 93. 87. 87. 93. 87. 87. 87. 87. 93. 87. 93.
 93. 93. 87. 87. 87. 87. 87. 93. 87. 87. 93. 87. 87. 93. 87. 93.]",338.08640379263124,None,l,1,0.6788150235479407,338.08640379263124,None,None,None,,,,,,,22_XHM,23,F,22,2021_Nov_05_1343,Partial repeat,2021.2.3,120.10130268372438,
8,8,0,1,1,2,3,3,3,1,1,0,1,1,1,0,0,45,45,45,,,,,,,,,,,,,,,,,,,,,,,,,,,,,,,,22_XHM,23,F,22,2021_Nov_05_1343,Partial repeat,2021.2.3,120.10130268372438,
8,8,0,1,1,2,3,2,3,0,1,0,0,0,1,0,0,46,46,46,0,0,0,0,,,,,,,338.7774757011266,None,0.8589383888236506,339.1438304630519,None,"[93. 93. 87. 87. 87. 87. 93. 87. 87. 93. 87. 87. 87. 87. 87. 93. 87. 93.
 93. 87. 87. 93. 93. 93. 93. 93. 93. 87. 93. 93. 87. 87. 87. 87.]",340.1013670099783,None,s,1,1.0959063685768342,340.1013670099783,None,None,None,,,,,,,22_XHM,23,F,22,2021_Nov_05_1343,Partial repeat,2021.2.3,120.10130268372438,
8,8,0,1,1,2,3,2,3,0,1,0,0,0,1,0,0,46,46,46,1,0,1,0,,,,,,,,,0.8611459490051969,341.2753365408971,None,"[87. 93. 93. 87. 93. 87. 87. 93. 93. 93. 87. 87. 93. 93. 87. 93. 87. 87.
 87. 87. 93. 87. 87. 87. 93. 93. 93. 93. 87. 93. 93. 87. 87. 87.]",342.2245329286343,None,l,1,0.5887679235365795,342.2245329286343,None,None,None,,,,,,,22_XHM,23,F,22,2021_Nov_05_1343,Partial repeat,2021.2.3,120.10130268372438,
8,8,0,1,1,2,3,2,3,0,1,0,0,0,1,0,0,46,46,46,,,,,,,,,,,,,,,,,,,,,,,,,,,,,,,,22_XHM,23,F,22,2021_Nov_05_1343,Partial repeat,2021.2.3,120.10130268372438,
8,8,0,1,1,2,2,2,2,0,1,1,1,0,1,0,0,47,47,47,0,0,0,0,,,,,,,342.8323440385411,None,0.8203081279887978,343.49843363439686,None,"[93. 87. 87. 87. 93. 93. 87. 93. 93. 93. 93. 87. 93. 87. 93. 87. 93. 87.
 87. 93. 87. 87. 93. 87. 87. 93. 93. 87. 87. 87. 87. 93. 93. 93.]",344.3976708489863,None,s,1,0.7036677678624983,344.3976708489863,None,None,None,,,,,,,22_XHM,23,F,22,2021_Nov_05_1343,Partial repeat,2021.2.3,120.10130268372438,
8,8,0,1,1,2,2,2,2,0,1,1,1,0,1,0,0,47,47,47,1,0,1,0,,,,,,,,,0.9700040626604838,345.1720353067267,None,"[93. 87. 87. 87. 87. 87. 93. 93. 93. 87. 93. 87. 87. 87. 93. 93. 87. 93.
 87. 87. 87. 93. 93. 93. 87. 93. 93. 87. 93. 87. 93. 93. 93. 93.]",346.22111315868824,None,l,1,0.592218802708885,346.22111315868824,None,None,None,,,,,,,22_XHM,23,F,22,2021_Nov_05_1343,Partial repeat,2021.2.3,120.10130268372438,
8,8,0,1,1,2,2,2,2,0,1,1,1,0,1,0,0,47,47,47,,,,,,,,,,,,,,,,,,,,,,,,,,,,,,,,22_XHM,23,F,22,2021_Nov_05_1343,Partial repeat,2021.2.3,120.10130268372438,
8,8,0,1,1,2,2,2,3,1,1,1,0,1,1,0,0,48,48,48,0,0,0,0,,,,,,,346.8289265135918,None,0.8392084076153387,347.50334632651175,None,"[93. 93. 87. 93. 87. 87. 93. 87. 93. 93. 87. 87. 93. 87. 87. 87. 87. 93.
 87. 87. 93. 93. 93. 87. 93. 93. 93. 87. 93. 87. 93. 93. 93. 87.]",348.41923499525,None,l,1,0.6021631717158016,348.41923499525,None,None,None,,,,,,,22_XHM,23,F,22,2021_Nov_05_1343,Partial repeat,2021.2.3,120.10130268372438,
8,8,0,1,1,2,2,2,3,1,1,1,0,1,1,0,0,48,48,48,1,0,1,0,,,,,,,,,0.9375175136600091,349.1019843838094,None,"[93. 87. 87. 87. 93. 87. 87. 87. 93. 87. 93. 87. 87. 93. 93. 93. 93. 93.
 87. 93. 93. 93. 93. 87. 87. 87. 87. 87. 87. 93. 87. 93. 87. 87.]",350.1261010902326,None,l,1,0.7023191668486106,350.1261010902326,None,None,None,,,,,,,22_XHM,23,F,22,2021_Nov_05_1343,Partial repeat,2021.2.3,120.10130268372438,
8,8,0,1,1,2,2,2,3,1,1,1,0,1,1,0,0,48,48,48,,,,,,,,,,,,,,,,,,,,,,,,,,,,,,,,22_XHM,23,F,22,2021_Nov_05_1343,Partial repeat,2021.2.3,120.10130268372438,
8,8,0,1,1,2,2,3,2,0,1,1,0,0,1,0,0,49,49,49,0,0,0,0,,,,,,,350.84217808204085,None,0.7323318332783556,351.2251689038567,None,"[87. 87. 87. 93. 87. 93. 93. 87. 93. 93. 93. 87. 93. 87. 93. 93. 93. 93.
 87. 87. 87. 93. 93. 87. 93. 87. 93. 93. 93. 87. 87. 93. 87. 93.]",352.04115686554906,None,s,1,0.5157122341734066,352.04115686554906,None,None,None,,,,,,,22_XHM,23,F,22,2021_Nov_05_1343,Partial repeat,2021.2.3,120.10130268372438,
8,8,0,1,1,2,2,3,2,0,1,1,0,0,1,0,0,49,49,49,1,0,1,0,,,,,,,,,0.9297449242317024,352.6156461450537,None,"[93. 87. 93. 93. 93. 87. 93. 93. 93. 87. 93. 87. 87. 87. 87. 87. 87. 87.
 93. 87. 87. 93. 87. 93. 87. 87. 93. 87. 93. 93. 93. 93. 87. 87.]",353.6231242258764,None,s,0,0.6613470323754882,353.6231242258764,None,354.30586752087584,None,,,,,,,22_XHM,23,F,22,2021_Nov_05_1343,Partial repeat,2021.2.3,120.10130268372438,
8,8,0,1,1,2,2,3,2,0,1,1,0,0,1,0,0,49,49,49,,,,,,,,,,,,,,,,,,,,,,,,,,,,,,,,22_XHM,23,F,22,2021_Nov_05_1343,Partial repeat,2021.2.3,120.10130268372438,
8,8,0,1,1,2,2,3,3,0,0,1,1,1,1,0,0,50,50,50,0,0,0,0,,,,,,,354.80544225453923,None,0.7171300807201174,355.0885326900243,None,"[93. 87. 93. 93. 93. 93. 93. 87. 87. 87. 87. 87. 87. 93. 87. 87. 87. 87.
 93. 93. 93. 93. 93. 87. 93. 93. 93. 93. 87. 87. 87. 93. 87. 87.]",355.88784931331975,None,l,0,0.7006703778297378,355.88784931331975,None,356.6038974408966,None,,,,,,,22_XHM,23,F,22,2021_Nov_05_1343,Partial repeat,2021.2.3,120.10130268372438,
8,8,0,1,1,2,2,3,3,0,0,1,1,1,1,0,0,50,50,50,1,0,1,0,,,,,,,,,0.9213987427423853,357.1367744414274,None,"[87. 87. 87. 93. 87. 87. 93. 93. 87. 93. 87. 93. 93. 87. 93. 93. 87. 87.
 87. 93. 93. 87. 93. 93. 93. 87. 87. 93. 87. 87. 93. 93. 87. 93.]",358.1442746514949,None,s,1,0.9895868979838269,358.1442746514949,None,None,None,,,,,,,22_XHM,23,F,22,2021_Nov_05_1343,Partial repeat,2021.2.3,120.10130268372438,
8,8,0,1,1,2,2,3,3,0,0,1,1,1,1,0,0,50,50,50,,,,,,,,,,,,,,,,,,,,,,,,,,,,,,,,22_XHM,23,F,22,2021_Nov_05_1343,Partial repeat,2021.2.3,120.10130268372438,
8,8,0,1,1,3,2,2,2,1,0,0,1,0,1,0,0,51,51,51,0,0,0,0,,,,,,,359.1434055174286,None,0.8756801395129726,359.8095028104126,None,"[87. 87. 87. 93. 93. 93. 93. 93. 93. 93. 87. 93. 87. 87. 93. 87. 87. 93.
 93. 87. 87. 87. 93. 93. 93. 87. 93. 87. 87. 93. 93. 93. 87. 87.]",360.7753365408971,None,l,1,1.2212691759250447,360.7753365408971,None,None,None,,,,,,,22_XHM,23,F,22,2021_Nov_05_1343,Partial repeat,2021.2.3,120.10130268372438,
8,8,0,1,1,3,2,2,2,1,0,0,1,0,1,0,0,51,51,51,1,0,1,0,,,,,,,,,0.9204463443599312,362.07422180429603,None,"[93. 87. 87. 87. 93. 87. 87. 87. 93. 93. 87. 93. 87. 93. 87. 87. 93. 87.
 87. 87. 93. 93. 93. 87. 93. 93. 93. 87. 93. 87. 93. 93. 87. 93.]",363.0733680644862,None,s,1,1.0187121899161866,363.0733680644862,None,None,None,,,,,,,22_XHM,23,F,22,2021_Nov_05_1343,Partial repeat,2021.2.3,120.10130268372438,
8,8,0,1,1,3,2,2,2,1,0,0,1,0,1,0,0,51,51,51,,,,,,,,,,,,,,,,,,,,,,,,,,,,,,,,22_XHM,23,F,22,2021_Nov_05_1343,Partial repeat,2021.2.3,120.10130268372438,
8,8,0,1,1,2,3,3,3,0,1,0,1,0,1,0,0,52,52,52,0,0,0,0,,,,,,,364.1141464878965,None,0.8177143385656105,364.52213341304014,None,"[87. 87. 93. 87. 87. 87. 93. 87. 87. 87. 93. 87. 87. 93. 87. 93. 87. 87.
 87. 93. 93. 87. 87. 87. 93. 93. 93. 87. 93. 87. 87. 93. 87. 93.]",365.4213696654879,None,s,1,0.9423278132890118,365.4213696654879,None,None,None,,,,,,,22_XHM,23,F,22,2021_Nov_05_1343,Partial repeat,2021.2.3,120.10130268372438,
8,8,0,1,1,2,3,3,3,0,1,0,1,0,1,0,0,52,52,52,1,0,1,0,,,,,,,,,0.959731707882446,366.4371596826986,None,"[87. 87. 87. 93. 93. 87. 93. 87. 93. 87. 87. 93. 87. 87. 93. 93. 87. 93.
 87. 87. 87. 87. 93. 93. 93. 87. 93. 87. 87. 93. 93. 87. 87. 93.]",367.4862776238697,None,l,1,1.0055414413127437,367.4862776238697,None,None,None,,,,,,,22_XHM,23,F,22,2021_Nov_05_1343,Partial repeat,2021.2.3,120.10130268372438,
8,8,0,1,1,2,3,3,3,0,1,0,1,0,1,0,0,52,52,52,,,,,,,,,,,,,,,,,,,,,,,,,,,,,,,,22_XHM,23,F,22,2021_Nov_05_1343,Partial repeat,2021.2.3,120.10130268372438,
8,8,0,1,1,2,2,2,2,1,0,1,1,0,1,0,0,53,53,53,0,0,0,0,,,,,,,368.5020596232371,None,0.9006218388143641,368.89340567778527,None,"[93. 93. 87. 87. 87. 93. 87. 93. 87. 87. 93. 93. 93. 87. 93. 93. 93. 87.
 93. 93. 87. 93. 93. 87. 93. 87. 93. 87. 87. 93. 93. 93. 93. 93.]",369.87590240811005,None,l,1,0.9518530095174356,369.87590240811005,None,None,None,,,,,,,22_XHM,23,F,22,2021_Nov_05_1343,Partial repeat,2021.2.3,120.10130268372438,
8,8,0,1,1,2,2,2,2,1,0,1,1,0,1,0,0,53,53,53,1,0,1,0,,,,,,,,,0.9883547376627704,370.90833746519456,None,"[87. 93. 93. 87. 87. 87. 87. 87. 93. 93. 87. 87. 87. 87. 87. 87. 93. 93.
 87. 93. 87. 87. 93. 93. 93. 93. 87. 87. 87. 93. 93. 87. 93. 93.]",371.98243387044204,None,s,1,0.7813481484608928,371.98243387044204,None,None,None,,,,,,,22_XHM,23,F,22,2021_Nov_05_1343,Partial repeat,2021.2.3,120.10130268372438,
8,8,0,1,1,2,2,2,2,1,0,1,1,0,1,0,0,53,53,53,,,,,,,,,,,,,,,,,,,,,,,,,,,,,,,,22_XHM,23,F,22,2021_Nov_05_1343,Partial repeat,2021.2.3,120.10130268372438,
8,8,0,1,1,3,3,2,2,0,0,1,1,1,1,0,0,54,54,54,0,0,0,0,,,,,,,372.7817469658876,None,0.9994137869102853,373.0814821205331,None,"[93. 87. 87. 87. 93. 87. 87. 93. 87. 93. 93. 87. 93. 87. 87. 93. 93. 87.
 87. 93. 87. 93. 87. 87. 93. 93. 93. 87. 87. 93. 93. 93. 87. 87.]",374.16389302787684,None,s,1,0.5676389857344475,374.16389302787684,None,None,None,,,,,,,22_XHM,23,F,22,2021_Nov_05_1343,Partial repeat,2021.2.3,120.10130268372438,
8,8,0,1,1,3,3,2,2,0,0,1,1,1,1,0,0,54,54,54,1,0,1,0,,,,,,,,,0.7451327304956139,374.8133324524388,None,"[87. 93. 93. 87. 87. 87. 93. 87. 93. 87. 87. 93. 87. 93. 87. 93. 93. 87.
 93. 93. 93. 93. 93. 87. 87. 93. 93. 87. 93. 93. 93. 87. 93. 87.]",375.645959360445,None,s,1,0.7342590420139459,375.645959360445,None,None,None,,,,,,,22_XHM,23,F,22,2021_Nov_05_1343,Partial repeat,2021.2.3,120.10130268372438,
8,8,0,1,1,3,3,2,2,0,0,1,1,1,1,0,0,54,54,54,,,,,,,,,,,,,,,,,,,,,,,,,,,,,,,,22_XHM,23,F,22,2021_Nov_05_1343,Partial repeat,2021.2.3,120.10130268372438,
8,8,0,1,1,3,3,3,3,1,1,1,1,1,1,0,0,55,55,55,0,0,0,0,,,,,,,376.4036412548103,None,0.9702079979454564,376.678402435371,None,"[87. 87. 93. 93. 93. 93. 93. 93. 93. 93. 93. 93. 93. 87. 87. 87. 87. 93.
 87. 93. 93. 87. 93. 87. 93. 93. 87. 93. 93. 87. 93. 87. 93. 87.]",377.7275216593971,None,l,1,0.8123339004359877,377.7275216593971,None,None,None,,,,,,,22_XHM,23,F,22,2021_Nov_05_1343,Partial repeat,2021.2.3,120.10130268372438,
8,8,0,1,1,3,3,3,3,1,1,1,1,1,1,0,0,55,55,55,1,0,1,0,,,,,,,,,0.9006642104514231,378.61841358337733,None,"[93. 93. 87. 93. 87. 87. 93. 93. 93. 87. 93. 87. 93. 93. 87. 93. 93. 93.
 93. 93. 93. 93. 93. 93. 93. 93. 87. 87. 87. 93. 93. 87. 87. 87.]",379.60923892719984,None,l,1,0.6266522267196706,379.60923892719984,None,None,None,,,,,,,22_XHM,23,F,22,2021_Nov_05_1343,Partial repeat,2021.2.3,120.10130268372438,
8,8,0,1,1,3,3,3,3,1,1,1,1,1,1,0,0,55,55,55,,,,,,,,,,,,,,,,,,,,,,,,,,,,,,,,22_XHM,23,F,22,2021_Nov_05_1343,Partial repeat,2021.2.3,120.10130268372438,
8,8,0,1,1,3,2,3,3,0,1,0,1,0,1,0,0,56,56,56,0,0,0,0,,,,,,,380.25867738962006,None,0.8997409547080417,380.63335242648645,None,"[87. 87. 87. 93. 87. 87. 93. 87. 93. 87. 87. 93. 87. 93. 93. 93. 87. 93.
 87. 93. 93. 87. 87. 93. 87. 93. 87. 87. 93. 93. 87. 87. 93. 87.]",381.61585428822946,None,s,1,0.747707849375729,381.61585428822946,None,None,None,,,,,,,22_XHM,23,F,22,2021_Nov_05_1343,Partial repeat,2021.2.3,120.10130268372438,
8,8,0,1,1,3,2,3,3,0,1,0,1,0,1,0,0,56,56,56,1,0,1,0,,,,,,,,,0.9168437877073298,382.4401493756013,None,"[93. 93. 93. 93. 87. 87. 87. 87. 87. 93. 93. 87. 87. 93. 87. 93. 93. 87.
 93. 93. 93. 93. 87. 87. 93. 87. 93. 93. 93. 87. 93. 93. 87. 87.]",383.4392962772181,None,l,1,0.6196465571429144,383.4392962772181,None,None,None,,,,,,,22_XHM,23,F,22,2021_Nov_05_1343,Partial repeat,2021.2.3,120.10130268372438,
8,8,0,1,1,3,2,3,3,0,1,0,1,0,1,0,0,56,56,56,,,,,,,,,,,,,,,,,,,,,,,,,,,,,,,,22_XHM,23,F,22,2021_Nov_05_1343,Partial repeat,2021.2.3,120.10130268372438,
8,8,0,1,1,3,3,3,3,0,1,1,1,0,1,0,0,57,57,57,0,0,0,0,,,,,,,384.08873634320844,None,0.7064021611723312,384.40513417698094,None,"[93. 87. 93. 87. 93. 93. 93. 93. 93. 87. 93. 87. 93. 93. 87. 87. 93. 93.
 87. 87. 93. 87. 93. 87. 87. 93. 93. 87. 87. 93. 93. 87. 93. 93.]",385.19613437389853,None,s,1,0.5908557695802301,385.19613437389853,None,None,None,,,,,,,22_XHM,23,F,22,2021_Nov_05_1343,Partial repeat,2021.2.3,120.10130268372438,
8,8,0,1,1,3,3,3,3,0,1,1,1,0,1,0,0,57,57,57,1,0,1,0,,,,,,,,,0.7644642410694323,385.8622310254559,None,"[93. 93. 87. 87. 93. 93. 93. 93. 93. 93. 87. 87. 93. 87. 87. 87. 87. 93.
 87. 87. 87. 93. 87. 93. 87. 93. 93. 87. 87. 87. 87. 93. 87. 87.]",386.71149944548597,None,s,0,0.6274944208362285,386.71149944548597,None,387.3526147465418,None,,,,,,,22_XHM,23,F,22,2021_Nov_05_1343,Partial repeat,2021.2.3,120.10130268372438,
8,8,0,1,1,3,3,3,3,0,1,1,1,0,1,0,0,57,57,57,,,,,,,,,,,,,,,,,,,,,,,,,,,,,,,,22_XHM,23,F,22,2021_Nov_05_1343,Partial repeat,2021.2.3,120.10130268372438,
8,8,0,1,1,3,2,3,2,0,1,0,0,0,1,0,0,58,58,58,0,0,0,0,,,,,,,387.8521881973502,None,0.7151621763834722,388.0936426210501,None,"[87. 93. 87. 93. 93. 87. 87. 87. 87. 93. 87. 93. 87. 93. 93. 87. 93. 87.
 93. 87. 93. 87. 87. 87. 87. 93. 93. 87. 87. 87. 87. 93. 87. 93.]",388.8846428179695,None,s,1,0.9984485376153316,388.8846428179695,None,None,None,,,,,,,22_XHM,23,F,22,2021_Nov_05_1343,Partial repeat,2021.2.3,120.10130268372438,
8,8,0,1,1,3,2,3,2,0,1,0,0,0,1,0,0,58,58,58,1,0,1,0,,,,,,,,,0.9398265708121984,389.9503929704679,None,"[93. 87. 87. 87. 93. 93. 93. 87. 87. 93. 87. 93. 87. 87. 93. 93. 87. 87.
 93. 93. 93. 87. 87. 87. 93. 87. 87. 93. 93. 87. 93. 87. 93. 93.]",390.9745205811578,None,l,1,0.9085627565837058,390.9745205811578,None,None,None,,,,,,,22_XHM,23,F,22,2021_Nov_05_1343,Partial repeat,2021.2.3,120.10130268372438,
8,8,0,1,1,3,2,3,2,0,1,0,0,0,1,0,0,58,58,58,,,,,,,,,,,,,,,,,,,,,,,,,,,,,,,,22_XHM,23,F,22,2021_Nov_05_1343,Partial repeat,2021.2.3,120.10130268372438,
8,8,0,1,1,2,2,3,2,1,0,1,0,0,1,0,0,59,59,59,0,0,0,0,,,,,,,391.9153806582708,None,0.8421318235688172,392.2484286633353,None,"[93. 87. 87. 93. 93. 93. 93. 87. 87. 93. 93. 93. 93. 87. 87. 93. 87. 93.
 93. 87. 87. 87. 93. 93. 93. 93. 87. 87. 93. 87. 87. 93. 93. 87.]",393.1809752004938,None,l,1,0.7501237855103682,393.1809752004938,None,None,None,,,,,,,22_XHM,23,F,22,2021_Nov_05_1343,Partial repeat,2021.2.3,120.10130268372438,
8,8,0,1,1,2,2,3,2,1,0,1,0,0,1,0,0,59,59,59,1,0,1,0,,,,,,,,,0.8913653833069698,394.0052561764642,None,"[93. 87. 87. 93. 93. 93. 93. 87. 93. 87. 87. 93. 87. 87. 93. 87. 93. 87.
 93. 87. 87. 93. 87. 87. 87. 93. 93. 93. 87. 87. 87. 87. 87. 93.]",394.9794342354144,None,s,1,0.871700888606938,394.9794342354144,None,None,None,,,,,,,22_XHM,23,F,22,2021_Nov_05_1343,Partial repeat,2021.2.3,120.10130268372438,
8,8,0,1,1,2,2,3,2,1,0,1,0,0,1,0,0,59,59,59,,,,,,,,,,,,,,,,,,,,,,,,,,,,,,,,22_XHM,23,F,22,2021_Nov_05_1343,Partial repeat,2021.2.3,120.10130268372438,
8,8,0,1,1,2,2,2,3,1,0,1,0,0,1,0,0,60,60,60,0,0,0,0,,,,,,,395.8620017151752,None,0.8477669727148851,396.53643018736693,None,"[93. 93. 93. 93. 93. 93. 87. 93. 93. 93. 93. 93. 87. 87. 93. 87. 87. 87.
 93. 87. 93. 87. 87. 93. 87. 93. 87. 87. 93. 93. 93. 93. 87. 93.]",397.46898121451704,None,l,1,0.7812076758709736,397.46898121451704,None,None,None,,,,,,,22_XHM,23,F,22,2021_Nov_05_1343,Partial repeat,2021.2.3,120.10130268372438,
8,8,0,1,1,2,2,2,3,1,0,1,0,0,1,0,0,60,60,60,1,0,1,0,,,,,,,,,0.9529369178263329,398.3182342402888,None,"[93. 87. 93. 93. 87. 93. 93. 93. 93. 87. 93. 93. 93. 87. 93. 93. 93. 93.
 87. 87. 87. 93. 87. 93. 93. 87. 93. 87. 93. 93. 87. 93. 93. 93.]",399.35901715369073,None,s,1,0.539179174686069,399.35901715369073,None,None,None,,,,,,,22_XHM,23,F,22,2021_Nov_05_1343,Partial repeat,2021.2.3,120.10130268372438,
8,8,0,1,1,2,2,2,3,1,0,1,0,0,1,0,0,60,60,60,,,,,,,,,,,,,,,,,,,,,,,,,,,,,,,,22_XHM,23,F,22,2021_Nov_05_1343,Partial repeat,2021.2.3,120.10130268372438,
8,8,0,1,1,3,3,3,3,1,0,1,1,0,1,0,0,61,61,61,0,0,0,0,,,,,,,399.9168828811362,None,0.8505406529726038,400.28322353166004,None,"[87. 93. 93. 93. 87. 93. 87. 87. 87. 93. 93. 93. 87. 87. 87. 87. 87. 87.
 93. 87. 93. 93. 93. 93. 87. 87. 93. 93. 93. 93. 93. 93. 93. 93.]",401.2240973994594,None,l,1,0.7232184736585623,401.2240973994594,None,None,None,,,,,,,22_XHM,23,F,22,2021_Nov_05_1343,Partial repeat,2021.2.3,120.10130268372438,
8,8,0,1,1,3,3,3,3,1,0,1,1,0,1,0,0,61,61,61,1,0,1,0,,,,,,,,,0.9765035767570116,402.0150735428524,None,"[87. 93. 93. 87. 87. 93. 87. 87. 93. 93. 93. 93. 87. 93. 93. 87. 87. 93.
 93. 87. 93. 87. 93. 87. 93. 87. 87. 87. 87. 93. 87. 93. 93. 87.]",403.08083652389905,None,s,1,0.7214462098745571,403.08083652389905,None,None,None,,,,,,,22_XHM,23,F,22,2021_Nov_05_1343,Partial repeat,2021.2.3,120.10130268372438,
8,8,0,1,1,3,3,3,3,1,0,1,1,0,1,0,0,61,61,61,,,,,,,,,,,,,,,,,,,,,,,,,,,,,,,,22_XHM,23,F,22,2021_Nov_05_1343,Partial repeat,2021.2.3,120.10130268372438,
8,8,0,1,1,2,2,3,2,1,1,1,0,1,1,0,0,62,62,62,0,0,0,0,,,,,,,403.82186792625726,None,0.8334583329664601,404.16323845125953,None,"[93. 93. 87. 87. 87. 93. 93. 87. 87. 93. 87. 87. 93. 87. 87. 87. 93. 87.
 87. 87. 87. 87. 87. 87. 93. 93. 87. 93. 87. 93. 87. 93. 87. 87.]",405.0791341756976,None,l,1,0.6431741125416011,405.0791341756976,None,None,None,,,,,,,22_XHM,23,F,22,2021_Nov_05_1343,Partial repeat,2021.2.3,120.10130268372438,
8,8,0,1,1,2,2,3,2,1,1,1,0,1,1,0,0,62,62,62,1,0,1,0,,,,,,,,,0.8472211944327083,405.7951819825612,None,"[93. 87. 93. 93. 93. 87. 87. 93. 87. 93. 87. 93. 87. 87. 93. 87. 87. 93.
 87. 87. 87. 87. 93. 93. 87. 87. 87. 93. 87. 93. 87. 87. 93. 87.]",406.71939894408206,None,l,1,1.1469232554354676,406.71939894408206,None,None,None,,,,,,,22_XHM,23,F,22,2021_Nov_05_1343,Partial repeat,2021.2.3,120.10130268372438,
8,8,0,1,1,2,2,3,2,1,1,1,0,1,1,0,0,62,62,62,,,,,,,,,,,,,,,,,,,,,,,,,,,,,,,,22_XHM,23,F,22,2021_Nov_05_1343,Partial repeat,2021.2.3,120.10130268372438,
8,8,0,1,1,3,3,2,3,0,0,1,0,1,1,0,0,63,63,63,0,0,0,0,,,,,,,407.8850603871779,None,0.747126441796458,408.2763894439013,None,"[93. 87. 87. 87. 87. 93. 87. 93. 87. 93. 87. 87. 93. 93. 93. 93. 87. 93.
 87. 87. 93. 87. 87. 87. 87. 87. 93. 93. 87. 87. 93. 87. 87. 87.]",409.1090410468605,None,s,1,1.5093431812474591,409.1090410468605,None,None,None,,,,,,,22_XHM,23,F,22,2021_Nov_05_1343,Partial repeat,2021.2.3,120.10130268372438,
8,8,0,1,1,3,3,2,3,0,0,1,0,1,1,0,0,63,63,63,1,0,1,0,,,,,,,,,0.948342393086947,410.6909894850796,None,"[93. 93. 93. 93. 93. 93. 87. 87. 93. 87. 93. 87. 93. 87. 87. 87. 87. 87.
 93. 87. 87. 87. 87. 93. 93. 93. 93. 87. 87. 93. 87. 87. 93. 87.]",411.72344474712554,None,s,1,0.7819940658064297,411.72344474712554,None,None,None,,,,,,,22_XHM,23,F,22,2021_Nov_05_1343,Partial repeat,2021.2.3,120.10130268372438,
8,8,0,1,1,3,3,2,3,0,0,1,0,1,1,0,0,63,63,63,,,,,,,,,,,,,,,,,,,,,,,,,,,,,,,,22_XHM,23,F,22,2021_Nov_05_1343,Partial repeat,2021.2.3,120.10130268372438,
3,5,0,1,1,3,2,2,2,1,0,0,1,0,0,0,0,64,64,64,0,0,0,0,,,,,,,413.5801877201284,None,0.7164399826526641,419.25867129606013,None,"[87. 87. 87. 87. 93. 87. 93. 87. 93. 87. 93. 87. 93. 93. 93. 87. 87. 87.
 87. 93. 93. 93. 87. 87. 87. 87. 87. 87. 93. 93. 87. 93. 87. 87.]",420.0579895229239,None,l,1,1.0235655500000576,420.0579895229239,None,None,None,,,,,,,22_XHM,23,F,22,2021_Nov_05_1343,Partial repeat,2021.2.3,120.10130268372438,
3,5,0,1,1,3,2,2,2,1,0,0,1,0,0,0,0,64,64,64,1,0,1,0,,,,,,,,,0.9367947583919762,421.1403981852727,None,"[93. 87. 87. 93. 87. 93. 87. 93. 87. 93. 93. 93. 93. 93. 93. 87. 93. 93.
 93. 87. 87. 93. 87. 93. 87. 87. 87. 87. 87. 87. 87. 87. 93. 93.]",422.1645229095393,None,s,1,1.7170569224799692,422.1645229095393,None,None,None,,,,,,,22_XHM,23,F,22,2021_Nov_05_1343,Partial repeat,2021.2.3,120.10130268372438,
3,5,0,1,1,3,2,2,2,1,0,0,1,0,0,0,0,64,64,64,,,,,,,,,,,,,,,,,,,,,,,,,,,,,,,,22_XHM,23,F,22,2021_Nov_05_1343,Partial repeat,2021.2.3,120.10130268372438,
2,5,0,1,1,3,2,2,3,0,1,0,0,0,0,0,0,65,65,65,0,0,0,0,,,,,,,423.89636971359505,None,0.7283858338208521,424.6956828090406,None,"[87. 93. 87. 93. 93. 87. 93. 93. 93. 93. 93. 87. 93. 87. 87. 87. 93. 87.
 93. 93. 93. 87. 93. 87. 87. 93. 87. 87. 87. 87. 87. 87. 87. 93.]",425.5116585836113,None,s,1,0.7699721135977597,425.5116585836113,None,None,None,,,,,,,22_XHM,23,F,22,2021_Nov_05_1343,Partial repeat,2021.2.3,120.10130268372438,
2,5,0,1,1,3,2,2,3,0,1,0,0,0,0,0,0,65,65,65,1,0,1,0,,,,,,,,,0.7951182904777969,426.35260544584526,None,"[87. 87. 87. 87. 93. 87. 93. 93. 87. 93. 87. 93. 87. 93. 93. 87. 93. 93.
 93. 93. 87. 93. 87. 87. 87. 87. 87. 87. 87. 87. 93. 93. 87. 93.]",427.22685874422496,None,l,1,0.6538336730482115,427.22685874422496,None,None,None,,,,,,,22_XHM,23,F,22,2021_Nov_05_1343,Partial repeat,2021.2.3,120.10130268372438,
2,5,0,1,1,3,2,2,3,0,1,0,0,0,0,0,0,65,65,65,,,,,,,,,,,,,,,,,,,,,,,,,,,,,,,,22_XHM,23,F,22,2021_Nov_05_1343,Partial repeat,2021.2.3,120.10130268372438,
8,4,0,1,1,2,2,3,2,0,0,1,0,1,0,0,0,66,66,66,0,0,0,0,,,,,,,427.90127887786,None,0.9261695944263356,428.25097801636,None,"[93. 87. 87. 87. 93. 93. 93. 93. 93. 87. 93. 87. 93. 93. 93. 87. 87. 93.
 93. 93. 87. 93. 93. 87. 87. 87. 87. 93. 93. 93. 87. 93. 93. 93.]",429.2584535314745,None,s,1,0.7182333002510859,429.2584535314745,None,None,None,,,,,,,22_XHM,23,F,22,2021_Nov_05_1343,Partial repeat,2021.2.3,120.10130268372438,
8,4,0,1,1,2,2,3,2,0,0,1,0,1,0,0,0,66,66,66,1,0,1,0,,,,,,,,,0.7763179787720467,430.0494392962755,None,"[87. 87. 93. 93. 87. 87. 93. 87. 93. 87. 87. 87. 93. 93. 87. 93. 93. 93.
 93. 93. 93. 87. 93. 87. 87. 87. 93. 93. 93. 87. 93. 93. 87. 87.]",430.9153854689757,None,s,1,0.7733303065160726,430.9153854689757,None,None,None,,,,,,,22_XHM,23,F,22,2021_Nov_05_1343,Partial repeat,2021.2.3,120.10130268372438,
8,4,0,1,1,2,2,3,2,0,0,1,0,1,0,0,0,66,66,66,,,,,,,,,,,,,,,,,,,,,,,,,,,,,,,,22_XHM,23,F,22,2021_Nov_05_1343,Partial repeat,2021.2.3,120.10130268372438,
8,7,0,1,1,2,2,2,3,1,0,1,0,0,0,0,0,67,67,67,0,0,0,0,,,,,,,431.7063661023585,None,0.790013314131453,432.13099838809285,None,"[93. 87. 93. 93. 93. 93. 87. 87. 87. 87. 87. 93. 93. 87. 87. 87. 93. 87.
 87. 87. 93. 93. 93. 93. 87. 87. 87. 93. 87. 87. 93. 93. 93. 87.]",433.00525329004086,None,s,0,0.6514523739915603,433.00525329004086,None,433.67967919652074,None,,,,,,,22_XHM,23,F,22,2021_Nov_05_1343,Partial repeat,2021.2.3,120.10130268372438,
8,7,0,1,1,2,2,2,3,1,0,1,0,0,0,0,0,67,67,67,1,0,1,0,,,,,,,,,0.904359389935597,434.2291980297905,None,"[87. 87. 87. 87. 93. 93. 87. 93. 87. 87. 93. 93. 93. 93. 93. 87. 87. 87.
 87. 87. 87. 93. 93. 93. 93. 93. 87. 87. 87. 87. 93. 87. 93. 93.]",435.220019525048,None,s,1,0.9007565856682049,435.220019525048,None,None,None,,,,,,,22_XHM,23,F,22,2021_Nov_05_1343,Partial repeat,2021.2.3,120.10130268372438,
8,7,0,1,1,2,2,2,3,1,0,1,0,0,0,0,0,67,67,67,,,,,,,,,,,,,,,,,,,,,,,,,,,,,,,,22_XHM,23,F,22,2021_Nov_05_1343,Partial repeat,2021.2.3,120.10130268372438,
7,3,0,1,1,2,2,2,3,0,0,1,0,1,0,0,0,68,68,68,0,0,0,0,,,,,,,436.1442316758621,None,0.9720599002648805,436.69376462053333,None,"[87. 93. 93. 87. 93. 87. 93. 87. 87. 93. 93. 93. 87. 87. 93. 93. 87. 93.
 93. 93. 93. 87. 87. 87. 93. 93. 93. 93. 93. 93. 87. 93. 87. 93.]",437.74286748816303,None,s,1,0.8268121987021004,437.74286748816303,None,None,None,,,,,,,22_XHM,23,F,22,2021_Nov_05_1343,Partial repeat,2021.2.3,120.10130268372438,
7,3,0,1,1,2,2,2,3,0,0,1,0,1,0,0,0,68,68,68,1,0,1,0,,,,,,,,,0.7675384896072344,438.64209828847925,None,"[87. 87. 87. 87. 93. 93. 87. 87. 87. 87. 93. 93. 93. 93. 87. 87. 93. 93.
 87. 87. 93. 93. 87. 93. 93. 87. 87. 87. 93. 87. 93. 87. 93. 93.]",439.49970077413855,None,s,1,0.9255384522602981,439.49970077413855,None,None,None,,,,,,,22_XHM,23,F,22,2021_Nov_05_1343,Partial repeat,2021.2.3,120.10130268372438,
7,3,0,1,1,2,2,2,3,0,0,1,0,1,0,0,0,68,68,68,,,,,,,,,,,,,,,,,,,,,,,,,,,,,,,,22_XHM,23,F,22,2021_Nov_05_1343,Partial repeat,2021.2.3,120.10130268372438,
5,3,0,1,1,2,2,3,2,0,1,1,0,0,0,0,0,69,69,69,0,0,0,0,,,,,,,440.44888561618245,None,0.8529025627263739,440.96511148328136,None,"[87. 87. 93. 93. 93. 87. 87. 87. 87. 93. 93. 87. 93. 87. 93. 87. 93. 87.
 87. 87. 93. 93. 87. 87. 93. 87. 93. 87. 87. 93. 93. 87. 87. 87.]",441.9059798989492,None,s,1,0.7589010774408962,441.9059798989492,None,None,None,,,,,,,22_XHM,23,F,22,2021_Nov_05_1343,Partial repeat,2021.2.3,120.10130268372438,
5,3,0,1,1,2,2,3,2,0,1,1,0,0,0,0,0,69,69,69,1,0,1,0,,,,,,,,,0.9409323275423105,442.7302631199145,None,"[87. 93. 87. 93. 93. 93. 93. 93. 87. 87. 87. 87. 93. 93. 93. 93. 93. 93.
 93. 87. 87. 87. 93. 87. 93. 87. 93. 87. 87. 87. 93. 87. 87. 87.]",443.74606981423494,None,l,1,0.789901582245875,443.74606981423494,None,None,None,,,,,,,22_XHM,23,F,22,2021_Nov_05_1343,Partial repeat,2021.2.3,120.10130268372438,
5,3,0,1,1,2,2,3,2,0,1,1,0,0,0,0,0,69,69,69,,,,,,,,,,,,,,,,,,,,,,,,,,,,,,,,22_XHM,23,F,22,2021_Nov_05_1343,Partial repeat,2021.2.3,120.10130268372438,
7,5,0,1,1,3,2,3,3,0,0,0,1,1,0,0,0,70,70,70,0,0,0,0,,,,,,,444.5537089574682,None,0.8513958172953386,444.99499590448613,None,"[87. 93. 87. 93. 93. 93. 93. 93. 87. 93. 87. 93. 87. 87. 87. 93. 87. 87.
 87. 93. 93. 87. 87. 93. 87. 87. 87. 93. 93. 87. 87. 93. 87. 87.]",445.93588067655037,None,s,1,0.8078686038988963,445.93588067655037,None,None,None,,,,,,,22_XHM,23,F,22,2021_Nov_05_1343,Partial repeat,2021.2.3,120.10130268372438,
7,5,0,1,1,3,2,3,3,0,0,0,1,1,0,0,0,70,70,70,1,0,1,0,,,,,,,,,0.9995532296727024,446.8017880428961,None,"[93. 87. 93. 93. 93. 87. 87. 93. 93. 87. 87. 87. 87. 93. 87. 87. 93. 87.
 93. 93. 87. 93. 87. 93. 93. 93. 87. 93. 93. 87. 87. 93. 93. 93.]",447.87586937460037,None,s,1,0.8041258752800786,447.87586937460037,None,None,None,,,,,,,22_XHM,23,F,22,2021_Nov_05_1343,Partial repeat,2021.2.3,120.10130268372438,
7,5,0,1,1,3,2,3,3,0,0,0,1,1,0,0,0,70,70,70,,,,,,,,,,,,,,,,,,,,,,,,,,,,,,,,22_XHM,23,F,22,2021_Nov_05_1343,Partial repeat,2021.2.3,120.10130268372438,
4,1,0,1,1,3,2,3,2,1,1,0,0,1,0,0,0,71,71,71,0,0,0,0,,,,,,,448.7001699141056,None,0.7026861582908364,449.28299422137934,None,"[87. 93. 87. 93. 93. 93. 93. 87. 93. 87. 87. 93. 87. 93. 87. 93. 93. 93.
 93. 93. 87. 87. 93. 87. 93. 87. 87. 93. 93. 93. 93. 93. 87. 87.]",450.07399281473045,None,l,1,0.6700168852257775,450.07399281473045,None,None,None,,,,,,,22_XHM,23,F,22,2021_Nov_05_1343,Partial repeat,2021.2.3,120.10130268372438,
4,1,0,1,1,3,2,3,2,1,1,0,0,1,0,0,0,71,71,71,1,0,1,0,,,,,,,,,0.8993399403835487,450.8067135635574,None,"[93. 93. 93. 93. 93. 87. 93. 93. 87. 87. 93. 87. 87. 93. 87. 93. 87. 93.
 87. 87. 93. 93. 87. 87. 93. 87. 93. 87. 93. 87. 93. 87. 93. 87.]",451.7891929753441,None,l,1,0.7788645417404041,451.7891929753441,None,None,None,,,,,,,22_XHM,23,F,22,2021_Nov_05_1343,Partial repeat,2021.2.3,120.10130268372438,
4,1,0,1,1,3,2,3,2,1,1,0,0,1,0,0,0,71,71,71,,,,,,,,,,,,,,,,,,,,,,,,,,,,,,,,22_XHM,23,F,22,2021_Nov_05_1343,Partial repeat,2021.2.3,120.10130268372438,
5,1,0,1,1,3,3,3,3,0,0,1,1,1,0,0,0,72,72,72,0,0,0,0,,,,,,,452.58017874014513,None,0.8482480334744598,452.94653093636043,None,"[93. 93. 93. 93. 87. 87. 93. 87. 93. 87. 87. 93. 93. 93. 93. 93. 93. 93.
 87. 93. 93. 93. 87. 93. 93. 87. 87. 93. 87. 93. 87. 93. 87. 93.]",453.8707648957061,None,s,1,0.8413187197729712,453.8707648957061,None,None,None,,,,,,,22_XHM,23,F,22,2021_Nov_05_1343,Partial repeat,2021.2.3,120.10130268372438,
5,1,0,1,1,3,3,3,3,0,0,1,1,1,0,0,0,72,72,72,1,0,1,0,,,,,,,,,0.7366270585622211,454.7782989731386,None,"[87. 93. 87. 87. 93. 93. 93. 87. 93. 93. 93. 87. 93. 87. 87. 87. 87. 87.
 93. 87. 93. 93. 87. 93. 87. 87. 87. 93. 87. 87. 93. 87. 87. 93.]",455.59426865414935,None,s,1,0.942739288937446,455.59426865414935,None,None,None,,,,,,,22_XHM,23,F,22,2021_Nov_05_1343,Partial repeat,2021.2.3,120.10130268372438,
5,1,0,1,1,3,3,3,3,0,0,1,1,1,0,0,0,72,72,72,,,,,,,,,,,,,,,,,,,,,,,,,,,,,,,,22_XHM,23,F,22,2021_Nov_05_1343,Partial repeat,2021.2.3,120.10130268372438,
4,6,0,1,1,2,2,3,3,0,0,1,1,1,0,0,0,73,73,73,0,0,0,0,,,,,,,456.5601107231887,None,0.8793314137905475,456.76827089786275,None,"[93. 87. 93. 93. 93. 93. 87. 87. 93. 87. 93. 87. 93. 93. 87. 87. 93. 87.
 87. 93. 93. 87. 87. 93. 87. 93. 87. 93. 87. 93. 93. 93. 87. 87.]",457.73410559048716,None,s,1,0.8352569105500152,457.73410559048716,None,None,None,,,,,,,22_XHM,23,F,22,2021_Nov_05_1343,Partial repeat,2021.2.3,120.10130268372438,
4,6,0,1,1,2,2,3,3,0,0,1,1,1,0,0,0,73,73,73,1,0,1,0,,,,,,,,,0.9519869104811867,458.6333376736584,None,"[87. 87. 93. 93. 87. 87. 87. 87. 87. 93. 93. 93. 87. 93. 93. 87. 87. 87.
 93. 93. 93. 93. 93. 87. 93. 87. 87. 87. 93. 93. 87. 93. 87. 87.]",459.6741170592086,None,s,1,0.7170857867113227,459.6741170592086,None,None,None,,,,,,,22_XHM,23,F,22,2021_Nov_05_1343,Partial repeat,2021.2.3,120.10130268372438,
4,6,0,1,1,2,2,3,3,0,0,1,1,1,0,0,0,73,73,73,,,,,,,,,,,,,,,,,,,,,,,,,,,,,,,,22_XHM,23,F,22,2021_Nov_05_1343,Partial repeat,2021.2.3,120.10130268372438,
8,2,0,1,1,3,3,3,3,0,1,1,1,0,0,0,0,74,74,74,0,0,0,0,,,,,,,460.4151458958586,None,0.9972470781455498,460.8064746318687,None,"[87. 93. 87. 93. 87. 87. 93. 93. 93. 93. 93. 87. 93. 87. 87. 87. 87. 87.
 87. 93. 93. 93. 93. 87. 87. 87. 87. 93. 93. 87. 93. 93. 93. 87.]",461.88056333998793,None,s,1,0.6066461075024563,461.88056333998793,None,None,None,,,,,,,22_XHM,23,F,22,2021_Nov_05_1343,Partial repeat,2021.2.3,120.10130268372438,
8,2,0,1,1,3,3,3,3,0,1,1,1,0,0,0,0,74,74,74,1,0,1,0,,,,,,,,,0.936116622318067,462.5633108042657,None,"[87. 93. 93. 87. 87. 87. 93. 87. 87. 93. 87. 87. 87. 93. 93. 93. 87. 87.
 93. 93. 87. 87. 87. 87. 93. 93. 87. 87. 87. 87. 93. 87. 93. 87.]",463.5874425842321,None,l,1,0.7877954555242468,463.5874425842321,None,None,None,,,,,,,22_XHM,23,F,22,2021_Nov_05_1343,Partial repeat,2021.2.3,120.10130268372438,
8,2,0,1,1,3,3,3,3,0,1,1,1,0,0,0,0,74,74,74,,,,,,,,,,,,,,,,,,,,,,,,,,,,,,,,22_XHM,23,F,22,2021_Nov_05_1343,Partial repeat,2021.2.3,120.10130268372438,
7,1,0,1,1,3,2,2,2,0,1,0,1,0,0,0,0,75,75,75,0,0,0,0,,,,,,,464.3950823688938,None,0.7479419235025746,464.7281319775266,None,"[93. 93. 87. 87. 93. 87. 93. 87. 93. 87. 93. 93. 93. 87. 93. 87. 87. 93.
 93. 87. 93. 87. 93. 87. 87. 93. 87. 93. 87. 87. 87. 87. 87. 93.]",465.56075118840454,None,s,1,0.8785067535609414,465.56075118840454,None,None,None,,,,,,,22_XHM,23,F,22,2021_Nov_05_1343,Partial repeat,2021.2.3,120.10130268372438,
7,1,0,1,1,3,2,2,2,0,1,0,1,0,0,0,0,75,75,75,1,0,1,0,,,,,,,,,0.7186073216460905,466.5099427654368,None,"[87. 87. 93. 93. 87. 93. 87. 93. 93. 87. 93. 87. 87. 93. 87. 93. 87. 87.
 87. 87. 93. 93. 93. 87. 87. 87. 93. 93. 93. 93. 87. 87. 87. 87.]",467.3175815879549,None,l,1,0.7857659793717175,467.3175815879549,None,None,None,,,,,,,22_XHM,23,F,22,2021_Nov_05_1343,Partial repeat,2021.2.3,120.10130268372438,
7,1,0,1,1,3,2,2,2,0,1,0,1,0,0,0,0,75,75,75,,,,,,,,,,,,,,,,,,,,,,,,,,,,,,,,22_XHM,23,F,22,2021_Nov_05_1343,Partial repeat,2021.2.3,120.10130268372438,
5,2,0,1,1,2,3,3,2,0,0,0,0,1,0,0,0,76,76,76,0,0,0,0,,,,,,,468.1252249004665,None,0.9955136731613139,469.1077120093796,None,"[93. 87. 87. 87. 87. 87. 93. 87. 93. 93. 93. 87. 87. 93. 93. 87. 93. 93.
 93. 93. 93. 93. 87. 87. 93. 87. 93. 87. 93. 93. 93. 87. 87. 87.]",470.19012387886505,None,s,1,0.6343666735228908,470.19012387886505,None,None,None,,,,,,,22_XHM,23,F,22,2021_Nov_05_1343,Partial repeat,2021.2.3,120.10130268372438,
5,2,0,1,1,2,3,3,2,0,0,0,0,1,0,0,0,76,76,76,1,0,1,0,,,,,,,,,0.8209894596156201,470.8895173451565,None,"[87. 93. 87. 93. 93. 93. 93. 93. 93. 87. 87. 93. 87. 93. 93. 93. 87. 87.
 93. 87. 93. 87. 93. 87. 93. 87. 93. 87. 93. 87. 87. 87. 93. 87.]",471.79707900396534,None,l,0,1.0102783823294885,471.79707900396534,None,472.82953266244294,None,,,,,,,22_XHM,23,F,22,2021_Nov_05_1343,Partial repeat,2021.2.3,120.10130268372438,
5,2,0,1,1,2,3,3,2,0,0,0,0,1,0,0,0,76,76,76,,,,,,,,,,,,,,,,,,,,,,,,,,,,,,,,22_XHM,23,F,22,2021_Nov_05_1343,Partial repeat,2021.2.3,120.10130268372438,
7,2,0,1,1,2,3,3,3,1,1,0,1,1,0,0,0,77,77,77,0,0,0,0,,,,,,,473.3291048303963,None,0.7096423154039475,473.8453306974934,None,"[93. 87. 87. 93. 93. 93. 87. 93. 93. 87. 93. 93. 93. 87. 93. 93. 93. 87.
 87. 93. 87. 93. 87. 87. 87. 87. 93. 87. 87. 87. 93. 93. 87. 93.]",474.6446508486388,None,l,1,0.7697800061032467,474.6446508486388,None,None,None,,,,,,,22_XHM,23,F,22,2021_Nov_05_1343,Partial repeat,2021.2.3,120.10130268372438,
7,2,0,1,1,2,3,3,3,1,1,0,1,1,0,0,0,77,77,77,1,0,1,0,,,,,,,,,0.8866743491112948,475.48559450373614,None,"[93. 93. 87. 87. 93. 93. 93. 93. 87. 87. 87. 93. 87. 87. 87. 87. 93. 93.
 87. 87. 87. 93. 87. 87. 87. 87. 93. 87. 93. 93. 87. 93. 93. 93.]",476.4514378556305,None,l,1,1.363008585798525,476.4514378556305,None,None,None,,,,,,,22_XHM,23,F,22,2021_Nov_05_1343,Partial repeat,2021.2.3,120.10130268372438,
7,2,0,1,1,2,3,3,3,1,1,0,1,1,0,0,0,77,77,77,,,,,,,,,,,,,,,,,,,,,,,,,,,,,,,,22_XHM,23,F,22,2021_Nov_05_1343,Partial repeat,2021.2.3,120.10130268372438,
6,5,0,1,1,2,2,2,3,0,1,1,0,0,0,0,0,78,78,78,0,0,0,0,,,,,,,477.83358616261467,None,0.8877358858983895,478.4330718661622,None,"[87. 87. 87. 87. 87. 87. 93. 93. 87. 87. 87. 87. 93. 93. 87. 93. 93. 93.
 93. 87. 87. 87. 93. 93. 87. 87. 93. 93. 93. 93. 93. 87. 93. 93.]",479.40724126584246,None,s,1,0.6952804637621739,479.40724126584246,None,None,None,,,,,,,22_XHM,23,F,22,2021_Nov_05_1343,Partial repeat,2021.2.3,120.10130268372438,
6,5,0,1,1,2,2,2,3,0,1,1,0,0,0,0,0,78,78,78,1,0,1,0,,,,,,,,,0.7089740132925727,480.1565987159902,None,"[87. 93. 93. 93. 87. 93. 87. 87. 87. 87. 87. 87. 93. 93. 93. 93. 93. 87.
 87. 87. 87. 87. 87. 87. 87. 93. 87. 87. 93. 87. 93. 87. 87. 87.]",480.9559294506871,None,l,1,0.6836699872019381,480.9559294506871,None,None,None,,,,,,,22_XHM,23,F,22,2021_Nov_05_1343,Partial repeat,2021.2.3,120.10130268372438,
6,5,0,1,1,2,2,2,3,0,1,1,0,0,0,0,0,78,78,78,,,,,,,,,,,,,,,,,,,,,,,,,,,,,,,,22_XHM,23,F,22,2021_Nov_05_1343,Partial repeat,2021.2.3,120.10130268372438,
2,7,0,1,1,3,2,3,3,0,1,0,1,0,0,0,0,79,79,79,0,0,0,0,,,,,,,481.65531810627544,None,0.9227153357538052,481.9883625834882,None,"[93. 87. 93. 93. 93. 93. 87. 93. 87. 93. 87. 87. 87. 87. 93. 93. 87. 93.
 87. 87. 87. 93. 93. 93. 87. 87. 87. 93. 93. 93. 87. 87. 93. 87.]",482.9958416264544,None,s,1,0.6907045210100478,482.9958416264544,None,None,None,,,,,,,22_XHM,23,F,22,2021_Nov_05_1343,Partial repeat,2021.2.3,120.10130268372438,
2,7,0,1,1,3,2,3,3,0,1,0,1,0,0,0,0,79,79,79,1,0,1,0,,,,,,,,,0.998696339758375,483.7618470028974,None,"[93. 93. 87. 87. 93. 93. 93. 93. 93. 93. 87. 93. 87. 93. 93. 93. 87. 87.
 93. 93. 87. 87. 93. 93. 87. 93. 93. 93. 93. 87. 93. 87. 93. 87.]",484.83593314530845,None,l,1,0.5466261462843249,484.83593314530845,None,None,None,,,,,,,22_XHM,23,F,22,2021_Nov_05_1343,Partial repeat,2021.2.3,120.10130268372438,
2,7,0,1,1,3,2,3,3,0,1,0,1,0,0,0,0,79,79,79,,,,,,,,,,,,,,,,,,,,,,,,,,,,,,,,22_XHM,23,F,22,2021_Nov_05_1343,Partial repeat,2021.2.3,120.10130268372438,
3,4,0,1,1,2,3,2,3,0,0,0,0,1,0,0,0,80,80,80,0,0,0,0,,,,,,,485.41045160975773,None,0.7235227475978494,485.7684687782021,None,"[93. 87. 93. 87. 87. 93. 87. 93. 87. 87. 87. 93. 87. 93. 87. 87. 87. 93.
 93. 87. 87. 87. 87. 93. 87. 93. 87. 87. 93. 87. 87. 93. 93. 93.]",486.56778764649243,None,s,1,1.358810443756738,486.56778764649243,None,None,None,,,,,,,22_XHM,23,F,22,2021_Nov_05_1343,Partial repeat,2021.2.3,120.10130268372438,
3,4,0,1,1,2,3,2,3,0,0,0,0,1,0,0,0,80,80,80,1,0,1,0,,,,,,,,,0.9925273053613779,487.99989576805456,None,"[93. 93. 87. 87. 87. 87. 93. 93. 87. 87. 93. 87. 87. 87. 93. 93. 87. 87.
 87. 87. 87. 87. 87. 93. 93. 87. 87. 87. 93. 93. 93. 87. 93. 87.]",489.08231822108974,None,s,1,0.7153882492148114,489.08231822108974,None,None,None,,,,,,,22_XHM,23,F,22,2021_Nov_05_1343,Partial repeat,2021.2.3,120.10130268372438,
3,4,0,1,1,2,3,2,3,0,0,0,0,1,0,0,0,80,80,80,,,,,,,,,,,,,,,,,,,,,,,,,,,,,,,,22_XHM,23,F,22,2021_Nov_05_1343,Partial repeat,2021.2.3,120.10130268372438,
8,6,0,1,1,2,3,3,3,1,0,0,1,0,0,0,0,81,81,81,0,0,0,0,,,,,,,489.81500882283217,None,0.8964212736984133,490.2729465825705,None,"[87. 87. 87. 87. 93. 87. 93. 93. 93. 87. 87. 93. 87. 93. 93. 87. 93. 87.
 87. 87. 93. 93. 93. 87. 93. 93. 87. 87. 87. 87. 93. 87. 93. 87.]",491.25543786076196,None,l,1,0.7022373848612915,491.25543786076196,None,None,None,,,,,,,22_XHM,23,F,22,2021_Nov_05_1343,Partial repeat,2021.2.3,120.10130268372438,
8,6,0,1,1,2,3,3,3,1,0,0,1,0,0,0,0,81,81,81,1,0,1,0,,,,,,,,,0.8463419185163203,492.0214486893383,None,"[93. 93. 93. 87. 93. 87. 87. 87. 87. 93. 87. 87. 87. 87. 93. 87. 87. 93.
 93. 87. 87. 93. 93. 93. 87. 93. 93. 93. 93. 87. 87. 87. 93. 87.]",492.9540183178815,None,s,1,0.6516871364037797,492.9540183178815,None,None,None,,,,,,,22_XHM,23,F,22,2021_Nov_05_1343,Partial repeat,2021.2.3,120.10130268372438,
8,6,0,1,1,2,3,3,3,1,0,0,1,0,0,0,0,81,81,81,,,,,,,,,,,,,,,,,,,,,,,,,,,,,,,,22_XHM,23,F,22,2021_Nov_05_1343,Partial repeat,2021.2.3,120.10130268372438,
2,6,0,1,1,3,3,3,2,0,0,1,0,1,0,0,0,82,82,82,0,0,0,0,,,,,,,493.63674140791954,None,0.94811529113709,493.8948533793264,None,"[87. 87. 87. 87. 93. 93. 93. 93. 87. 87. 87. 87. 93. 87. 93. 87. 87. 93.
 93. 93. 93. 93. 93. 87. 93. 93. 87. 87. 93. 93. 93. 93. 87. 93.]",494.9273047928091,None,s,1,0.6944414767822309,494.9273047928091,None,None,None,,,,,,,22_XHM,23,F,22,2021_Nov_05_1343,Partial repeat,2021.2.3,120.10130268372438,
2,6,0,1,1,3,3,3,2,0,0,1,0,1,0,0,0,82,82,82,1,0,1,0,,,,,,,,,0.876172254135259,495.6933136971038,None,"[93. 93. 87. 87. 87. 87. 87. 87. 87. 87. 87. 87. 93. 93. 87. 87. 93. 87.
 93. 87. 87. 93. 93. 93. 93. 87. 87. 87. 87. 87. 87. 87. 93. 87.]",496.6591589732798,None,s,1,0.6265912911203486,496.6591589732798,None,None,None,,,,,,,22_XHM,23,F,22,2021_Nov_05_1343,Partial repeat,2021.2.3,120.10130268372438,
2,6,0,1,1,3,3,3,2,0,0,1,0,1,0,0,0,82,82,82,,,,,,,,,,,,,,,,,,,,,,,,,,,,,,,,22_XHM,23,F,22,2021_Nov_05_1343,Partial repeat,2021.2.3,120.10130268372438,
4,8,0,1,1,2,3,3,3,0,1,0,1,0,0,0,0,83,83,83,0,0,0,0,,,,,,,497.31692669062613,None,0.7620475034783831,497.6499756578305,None,"[87. 87. 87. 93. 87. 87. 87. 93. 87. 87. 87. 87. 87. 87. 93. 87. 93. 87.
 87. 87. 87. 87. 87. 87. 93. 87. 93. 87. 93. 87. 93. 93. 93. 93.]",498.4992504921338,None,s,1,0.5945426940179459,498.4992504921338,None,None,None,,,,,,,22_XHM,23,F,22,2021_Nov_05_1343,Partial repeat,2021.2.3,120.10130268372438,
4,8,0,1,1,2,3,3,3,0,1,0,1,0,0,0,0,83,83,83,1,0,1,0,,,,,,,,,0.8151900079817133,499.16534297441285,None,"[87. 87. 87. 93. 87. 93. 87. 87. 87. 93. 93. 87. 93. 93. 87. 93. 93. 87.
 87. 93. 87. 87. 87. 87. 87. 87. 87. 93. 93. 93. 87. 93. 93. 87.]",500.0645805097156,None,l,1,0.5492361141914444,500.0645805097156,None,None,None,,,,,,,22_XHM,23,F,22,2021_Nov_05_1343,Partial repeat,2021.2.3,120.10130268372438,
4,8,0,1,1,2,3,3,3,0,1,0,1,0,0,0,0,83,83,83,,,,,,,,,,,,,,,,,,,,,,,,,,,,,,,,22_XHM,23,F,22,2021_Nov_05_1343,Partial repeat,2021.2.3,120.10130268372438,
1,7,0,1,1,3,3,2,3,1,0,1,0,0,0,0,0,84,84,84,0,0,0,0,,,,,,,500.6390890320399,None,0.7894721360188934,501.01376920032453,None,"[93. 93. 93. 93. 87. 93. 87. 87. 93. 93. 87. 87. 87. 93. 87. 93. 93. 87.
 93. 93. 93. 87. 87. 93. 87. 93. 87. 93. 93. 93. 87. 87. 93. 93.]",501.8880378929607,None,l,1,0.6777957954800513,501.8880378929607,None,None,None,,,,,,,22_XHM,23,F,22,2021_Nov_05_1343,Partial repeat,2021.2.3,120.10130268372438,
1,7,0,1,1,3,3,2,3,1,0,1,0,0,0,0,0,84,84,84,1,0,1,0,,,,,,,,,0.9860273758585661,502.64570663806626,None,"[87. 87. 87. 93. 87. 87. 93. 87. 93. 87. 93. 93. 87. 93. 87. 93. 93. 93.
 93. 93. 87. 87. 93. 87. 93. 87. 87. 93. 87. 87. 93. 87. 87. 93.]",503.71146160127137,None,s,1,0.7424170358335687,503.71146160127137,None,None,None,,,,,,,22_XHM,23,F,22,2021_Nov_05_1343,Partial repeat,2021.2.3,120.10130268372438,
1,7,0,1,1,3,3,2,3,1,0,1,0,0,0,0,0,84,84,84,,,,,,,,,,,,,,,,,,,,,,,,,,,,,,,,22_XHM,23,F,22,2021_Nov_05_1343,Partial repeat,2021.2.3,120.10130268372438,
6,4,0,1,1,2,2,2,2,0,1,1,1,0,0,0,0,85,85,85,0,0,0,0,,,,,,,504.4691444577784,None,0.87396996201519,504.743905317624,None,"[93. 93. 93. 87. 93. 93. 87. 87. 93. 93. 93. 93. 87. 87. 87. 87. 87. 93.
 93. 93. 87. 87. 93. 87. 87. 87. 93. 87. 87. 87. 87. 93. 93. 87.]",505.701426791009,None,s,1,0.6235117983869713,505.701426791009,None,None,None,,,,,,,22_XHM,23,F,22,2021_Nov_05_1343,Partial repeat,2021.2.3,120.10130268372438,
6,4,0,1,1,2,2,2,2,0,1,1,1,0,0,0,0,85,85,85,1,0,1,0,,,,,,,,,0.8746879716252458,506.3924868330996,None,"[87. 93. 87. 87. 93. 87. 93. 93. 93. 93. 93. 87. 87. 87. 87. 93. 93. 93.
 93. 87. 87. 93. 87. 87. 87. 87. 93. 93. 87. 93. 87. 87. 93. 87.]",507.3416867486867,None,s,0,0.743252494965418,507.3416867486867,None,508.10770174654135,None,,,,,,,22_XHM,23,F,22,2021_Nov_05_1343,Partial repeat,2021.2.3,120.10130268372438,
6,4,0,1,1,2,2,2,2,0,1,1,1,0,0,0,0,85,85,85,,,,,,,,,,,,,,,,,,,,,,,,,,,,,,,,22_XHM,23,F,22,2021_Nov_05_1343,Partial repeat,2021.2.3,120.10130268372438,
2,2,0,1,1,3,3,2,2,1,0,1,1,0,0,0,0,86,86,86,0,0,0,0,,,,,,,508.60727327306813,None,0.8398738302955661,509.5731217563807,None,"[93. 87. 87. 93. 93. 93. 93. 87. 87. 93. 93. 93. 87. 87. 93. 87. 87. 87.
 93. 93. 93. 87. 93. 93. 93. 93. 93. 93. 87. 87. 87. 87. 87. 93.]",510.4973252479267,None,l,1,0.6276849247606151,510.4973252479267,None,None,None,,,,,,,22_XHM,23,F,22,2021_Nov_05_1343,Partial repeat,2021.2.3,120.10130268372438,
2,2,0,1,1,3,3,2,2,1,0,1,1,0,0,0,0,86,86,86,1,0,1,0,,,,,,,,,0.7066367668515561,511.1883990807055,None,"[93. 93. 87. 87. 87. 87. 93. 93. 93. 87. 87. 87. 93. 93. 93. 87. 87. 93.
 87. 87. 93. 93. 93. 93. 87. 93. 93. 93. 93. 93. 93. 93. 87. 87.]",511.9710773991137,None,s,1,1.0579669026410556,511.9710773991137,None,None,None,,,,,,,22_XHM,23,F,22,2021_Nov_05_1343,Partial repeat,2021.2.3,120.10130268372438,
2,2,0,1,1,3,3,2,2,1,0,1,1,0,0,0,0,86,86,86,,,,,,,,,,,,,,,,,,,,,,,,,,,,,,,,22_XHM,23,F,22,2021_Nov_05_1343,Partial repeat,2021.2.3,120.10130268372438,
7,8,0,1,1,2,2,3,2,1,0,1,0,0,0,0,0,87,87,87,0,0,0,0,,,,,,,513.045144298705,None,0.7979699863300993,513.4531228852939,None,"[87. 93. 93. 87. 93. 87. 93. 87. 87. 93. 93. 87. 93. 93. 87. 87. 87. 87.
 93. 93. 93. 93. 87. 87. 87. 87. 87. 87. 93. 87. 87. 87. 87. 87.]",514.335720512141,None,l,1,0.6933475224268477,514.335720512141,None,None,None,,,,,,,22_XHM,23,F,22,2021_Nov_05_1343,Partial repeat,2021.2.3,120.10130268372438,
7,8,0,1,1,2,2,3,2,1,0,1,0,0,0,0,0,87,87,87,1,0,1,0,,,,,,,,,0.99500833187539,515.1017326235724,None,"[93. 93. 93. 93. 87. 87. 87. 87. 87. 87. 93. 93. 93. 93. 93. 87. 87. 93.
 93. 87. 87. 87. 93. 87. 93. 87. 87. 87. 93. 87. 93. 93. 87. 87.]",516.1758017681586,None,s,1,1.8932951819551818,516.1758017681586,None,None,None,,,,,,,22_XHM,23,F,22,2021_Nov_05_1343,Partial repeat,2021.2.3,120.10130268372438,
7,8,0,1,1,2,2,3,2,1,0,1,0,0,0,0,0,87,87,87,,,,,,,,,,,,,,,,,,,,,,,,,,,,,,,,22_XHM,23,F,22,2021_Nov_05_1343,Partial repeat,2021.2.3,120.10130268372438,
8,1,0,1,1,2,3,3,2,1,1,0,0,1,0,0,0,88,88,88,0,0,0,0,,,,,,,518.0991611413028,None,0.7438152823578971,518.6070564706224,None,"[93. 87. 93. 93. 87. 87. 87. 93. 93. 93. 87. 93. 87. 93. 87. 93. 87. 87.
 93. 93. 87. 93. 93. 93. 93. 93. 87. 87. 87. 93. 87. 87. 87. 87.]",519.439678888637,None,l,1,0.6614034779831854,519.439678888637,None,None,None,,,,,,,22_XHM,23,F,22,2021_Nov_05_1343,Partial repeat,2021.2.3,120.10130268372438,
8,1,0,1,1,2,3,3,2,1,1,0,0,1,0,0,0,88,88,88,1,0,1,0,,,,,,,,,0.9708295397190136,520.1723848846359,None,"[93. 93. 87. 93. 93. 93. 93. 93. 93. 87. 87. 87. 93. 87. 87. 87. 87. 93.
 93. 87. 93. 93. 87. 87. 93. 93. 93. 93. 87. 87. 87. 93. 93. 93.]",521.2298048200701,None,l,1,1.0474523047178081,521.2298048200701,None,None,None,,,,,,,22_XHM,23,F,22,2021_Nov_05_1343,Partial repeat,2021.2.3,120.10130268372438,
8,1,0,1,1,2,3,3,2,1,1,0,0,1,0,0,0,88,88,88,,,,,,,,,,,,,,,,,,,,,,,,,,,,,,,,22_XHM,23,F,22,2021_Nov_05_1343,Partial repeat,2021.2.3,120.10130268372438,
1,3,0,1,1,3,3,3,2,0,1,1,0,0,0,0,0,89,89,89,0,0,0,0,,,,,,,522.2955851196548,None,0.8792535170118836,523.2863844856674,None,"[87. 87. 93. 93. 93. 87. 87. 93. 93. 87. 87. 93. 87. 87. 93. 87. 87. 87.
 87. 87. 93. 93. 87. 93. 87. 93. 93. 87. 93. 93. 87. 93. 93. 93.]",524.2522278375618,None,s,1,0.6799776106308855,524.2522278375618,None,None,None,,,,,,,22_XHM,23,F,22,2021_Nov_05_1343,Partial repeat,2021.2.3,120.10130268372438,
1,3,0,1,1,3,3,3,2,0,1,1,0,0,0,0,0,89,89,89,1,0,1,0,,,,,,,,,0.998829711031263,525.009920636192,None,"[87. 87. 87. 93. 87. 93. 87. 87. 93. 87. 87. 93. 87. 93. 93. 87. 87. 87.
 93. 93. 93. 93. 87. 87. 87. 93. 87. 93. 87. 87. 87. 87. 93. 87.]",526.0923337885324,None,l,1,0.6798868486603169,526.0923337885324,None,None,None,,,,,,,22_XHM,23,F,22,2021_Nov_05_1343,Partial repeat,2021.2.3,120.10130268372438,
1,3,0,1,1,3,3,3,2,0,1,1,0,0,0,0,0,89,89,89,,,,,,,,,,,,,,,,,,,,,,,,,,,,,,,,22_XHM,23,F,22,2021_Nov_05_1343,Partial repeat,2021.2.3,120.10130268372438,
6,6,0,1,1,2,2,2,2,0,0,1,1,1,0,0,0,90,90,90,0,0,0,0,,,,,,,526.7917185955557,None,0.7380070561559862,527.0914675408894,None,"[87. 93. 87. 93. 93. 87. 87. 87. 87. 87. 87. 87. 93. 87. 87. 87. 87. 87.
 87. 93. 93. 93. 93. 93. 87. 87. 87. 93. 87. 87. 93. 87. 87. 93.]",527.9157658353979,None,s,1,0.6164503246309323,527.9157658353979,None,None,None,,,,,,,22_XHM,23,F,22,2021_Nov_05_1343,Partial repeat,2021.2.3,120.10130268372438,
6,6,0,1,1,2,2,2,2,0,0,1,1,1,0,0,0,90,90,90,1,0,1,0,,,,,,,,,0.7640533583490429,528.5985104132524,None,"[87. 87. 87. 93. 87. 87. 87. 87. 87. 93. 87. 93. 87. 93. 93. 93. 87. 87.
 93. 87. 93. 87. 93. 93. 93. 93. 93. 87. 87. 93. 87. 93. 93. 87.]",529.4477858889823,None,s,1,0.5565172768183402,529.4477858889823,None,None,None,,,,,,,22_XHM,23,F,22,2021_Nov_05_1343,Partial repeat,2021.2.3,120.10130268372438,
6,6,0,1,1,2,2,2,2,0,0,1,1,1,0,0,0,90,90,90,,,,,,,,,,,,,,,,,,,,,,,,,,,,,,,,22_XHM,23,F,22,2021_Nov_05_1343,Partial repeat,2021.2.3,120.10130268372438,
7,4,0,1,1,3,2,2,3,0,0,0,0,1,0,0,0,91,91,91,0,0,0,0,,,,,,,530.0222956941616,None,0.9287530932432975,530.3553420956578,None,"[93. 87. 87. 87. 93. 93. 87. 87. 87. 93. 93. 87. 87. 87. 87. 93. 87. 87.
 87. 87. 87. 87. 87. 93. 93. 87. 93. 87. 87. 93. 93. 87. 93. 87.]",531.3711439792733,None,s,1,1.1291663012380013,531.3711439792733,None,None,None,,,,,,,22_XHM,23,F,22,2021_Nov_05_1343,Partial repeat,2021.2.3,120.10130268372438,
7,4,0,1,1,3,2,2,3,0,0,0,0,1,0,0,0,91,91,91,1,0,1,0,,,,,,,,,0.9217905824714955,532.5701128206565,None,"[87. 87. 93. 93. 93. 93. 93. 93. 87. 87. 87. 93. 87. 87. 87. 93. 93. 93.
 93. 93. 87. 87. 87. 93. 87. 93. 87. 93. 93. 87. 87. 87. 93. 93.]",533.5775899393393,None,s,1,0.7147833832186734,533.5775899393393,None,None,None,,,,,,,22_XHM,23,F,22,2021_Nov_05_1343,Partial repeat,2021.2.3,120.10130268372438,
7,4,0,1,1,3,2,2,3,0,0,0,0,1,0,0,0,91,91,91,,,,,,,,,,,,,,,,,,,,,,,,,,,,,,,,22_XHM,23,F,22,2021_Nov_05_1343,Partial repeat,2021.2.3,120.10130268372438,
1,4,0,1,1,2,2,3,3,1,1,1,1,1,0,0,0,92,92,92,0,0,0,0,,,,,,,534.3186197381292,None,0.8009179064569185,534.784884507797,None,"[87. 93. 93. 93. 93. 87. 93. 87. 93. 87. 93. 93. 87. 87. 93. 87. 87. 87.
 87. 87. 87. 87. 87. 87. 93. 87. 93. 87. 93. 93. 93. 93. 87. 87.]",535.6757927881754,None,l,1,0.9686292212863918,535.6757927881754,None,None,None,,,,,,,22_XHM,23,F,22,2021_Nov_05_1343,Partial repeat,2021.2.3,120.10130268372438,
1,4,0,1,1,2,2,3,3,1,1,1,1,1,0,0,0,92,92,92,1,0,1,0,,,,,,,,,0.8225535540676912,536.7165740980072,None,"[87. 93. 87. 87. 87. 87. 93. 93. 93. 93. 87. 87. 93. 87. 93. 87. 87. 87.
 93. 93. 93. 93. 87. 93. 93. 93. 87. 87. 93. 93. 93. 87. 93. 87.]",537.6241367189577,None,l,1,0.8112883738449455,537.6241367189577,None,None,None,,,,,,,22_XHM,23,F,22,2021_Nov_05_1343,Partial repeat,2021.2.3,120.10130268372438,
1,4,0,1,1,2,2,3,3,1,1,1,1,1,0,0,0,92,92,92,,,,,,,,,,,,,,,,,,,,,,,,,,,,,,,,22_XHM,23,F,22,2021_Nov_05_1343,Partial repeat,2021.2.3,120.10130268372438,
3,7,0,1,1,3,2,2,3,1,0,0,0,0,0,0,0,93,93,93,0,0,0,0,,,,,,,538.456746308424,None,0.7218997984079807,539.5891282553239,None,"[93. 87. 93. 93. 87. 87. 87. 87. 87. 87. 93. 87. 87. 93. 87. 93. 93. 87.
 93. 87. 87. 93. 93. 87. 93. 93. 93. 87. 93. 87. 87. 87. 87. 87.]",540.3967568150038,None,l,1,0.7427082438534853,540.3967568150038,None,None,None,,,,,,,22_XHM,23,F,22,2021_Nov_05_1343,Partial repeat,2021.2.3,120.10130268372438,
3,7,0,1,1,3,2,2,3,1,0,0,0,0,0,0,0,93,93,93,1,0,1,0,,,,,,,,,0.7160020437864123,541.2127357967129,None,"[93. 93. 87. 93. 87. 87. 87. 93. 87. 93. 93. 87. 93. 87. 93. 87. 93. 93.
 93. 93. 87. 87. 93. 93. 93. 87. 93. 87. 87. 93. 93. 87. 93. 93.]",542.0120434400251,None,s,1,0.6154602815076942,542.0120434400251,None,None,None,,,,,,,22_XHM,23,F,22,2021_Nov_05_1343,Partial repeat,2021.2.3,120.10130268372438,
3,7,0,1,1,3,2,2,3,1,0,0,0,0,0,0,0,93,93,93,,,,,,,,,,,,,,,,,,,,,,,,,,,,,,,,22_XHM,23,F,22,2021_Nov_05_1343,Partial repeat,2021.2.3,120.10130268372438,
4,2,0,1,1,3,2,2,3,1,1,0,0,1,0,0,0,94,94,94,0,0,0,0,,,,,,,542.6448378247132,None,0.7179011558765918,542.9279199216417,None,"[93. 87. 93. 87. 87. 93. 87. 87. 87. 93. 93. 93. 87. 87. 93. 87. 93. 87.
 93. 87. 87. 93. 93. 93. 87. 93. 87. 93. 87. 93. 87. 93. 93. 93.]",543.735576383413,None,l,1,0.5884513791370409,543.735576383413,None,None,None,,,,,,,22_XHM,23,F,22,2021_Nov_05_1343,Partial repeat,2021.2.3,120.10130268372438,
4,2,0,1,1,3,2,2,3,1,1,0,0,1,0,0,0,94,94,94,1,0,1,0,,,,,,,,,0.7886817605459644,544.3933370450595,None,"[93. 87. 93. 87. 87. 87. 87. 87. 93. 87. 93. 87. 87. 93. 93. 93. 93. 93.
 87. 93. 93. 93. 93. 87. 87. 93. 93. 87. 93. 93. 93. 87. 93. 87.]",545.2675932298625,None,l,1,0.5597888770444115,545.2675932298625,None,None,None,,,,,,,22_XHM,23,F,22,2021_Nov_05_1343,Partial repeat,2021.2.3,120.10130268372438,
4,2,0,1,1,3,2,2,3,1,1,0,0,1,0,0,0,94,94,94,,,,,,,,,,,,,,,,,,,,,,,,,,,,,,,,22_XHM,23,F,22,2021_Nov_05_1343,Partial repeat,2021.2.3,120.10130268372438,
8,8,0,1,1,3,3,2,2,0,1,1,1,0,0,0,0,95,95,95,0,0,0,0,,,,,,,545.8587535270472,None,0.804479459074247,546.2084642112386,None,"[93. 93. 93. 93. 87. 93. 87. 87. 87. 87. 93. 87. 87. 87. 93. 93. 87. 87.
 87. 87. 87. 93. 87. 87. 93. 87. 93. 87. 87. 87. 87. 93. 93. 93.]",547.0910313702861,None,l,0,0.6085299796450272,547.0910313702861,None,547.7154974621917,None,,,,,,,22_XHM,23,F,22,2021_Nov_05_1343,Partial repeat,2021.2.3,120.10130268372438,
8,8,0,1,1,3,3,2,2,0,1,1,1,0,0,0,0,95,95,95,1,0,1,0,,,,,,,,,0.7444901101259274,548.2650278411529,None,"[87. 87. 93. 93. 87. 87. 93. 87. 93. 93. 93. 93. 87. 87. 87. 93. 93. 93.
 87. 93. 93. 93. 93. 93. 87. 93. 87. 93. 87. 87. 87. 87. 87. 87.]",549.0976650119974,None,l,1,0.6973968533220614,549.0976650119974,None,None,None,,,,,,,22_XHM,23,F,22,2021_Nov_05_1343,Partial repeat,2021.2.3,120.10130268372438,
8,8,0,1,1,3,3,2,2,0,1,1,1,0,0,0,0,95,95,95,,,,,,,,,,,,,,,,,,,,,,,,,,,,,,,,22_XHM,23,F,22,2021_Nov_05_1343,Partial repeat,2021.2.3,120.10130268372438,
3,1,0,1,1,3,3,2,3,0,1,1,0,0,0,0,0,96,96,96,0,0,0,0,,,,,,,549.8137051217327,None,0.8210663756223491,550.2216859533182,None,"[93. 93. 87. 93. 93. 93. 93. 93. 87. 87. 87. 87. 87. 87. 87. 93. 87. 93.
 93. 93. 93. 93. 93. 87. 93. 87. 87. 93. 93. 87. 87. 93. 87. 93.]",551.1209119429277,None,s,1,0.9627422010180453,551.1209119429277,None,None,None,,,,,,,22_XHM,23,F,22,2021_Nov_05_1343,Partial repeat,2021.2.3,120.10130268372438,
3,1,0,1,1,3,3,2,3,0,1,1,0,0,0,0,0,96,96,96,1,0,1,0,,,,,,,,,0.926018780103165,552.1533752228152,None,"[93. 87. 93. 87. 87. 87. 93. 87. 87. 93. 93. 93. 87. 87. 87. 93. 93. 93.
 87. 93. 87. 93. 87. 87. 87. 93. 93. 87. 93. 87. 93. 87. 87. 87.]",553.1691690885891,None,l,1,0.8495193685121194,553.1691690885891,None,None,None,,,,,,,22_XHM,23,F,22,2021_Nov_05_1343,Partial repeat,2021.2.3,120.10130268372438,
3,1,0,1,1,3,3,2,3,0,1,1,0,0,0,0,0,96,96,96,,,,,,,,,,,,,,,,,,,,,,,,,,,,,,,,22_XHM,23,F,22,2021_Nov_05_1343,Partial repeat,2021.2.3,120.10130268372438,
2,8,0,1,1,3,3,2,2,0,0,1,1,1,0,0,0,97,97,97,0,0,0,0,,,,,,,554.0350924906161,None,0.7904540932832251,554.4847042025667,None,"[87. 93. 87. 87. 87. 93. 93. 93. 93. 87. 87. 87. 87. 87. 87. 93. 87. 87.
 93. 93. 87. 93. 87. 93. 93. 93. 93. 93. 93. 93. 87. 93. 93. 87.]",555.3506372260053,None,s,1,0.6519854001235217,555.3506372260053,None,None,None,,,,,,,22_XHM,23,F,22,2021_Nov_05_1343,Partial repeat,2021.2.3,120.10130268372438,
2,8,0,1,1,3,3,2,2,0,0,1,1,1,0,0,0,97,97,97,1,0,1,0,,,,,,,,,0.9913214584071885,556.0750168535033,None,"[93. 87. 93. 87. 87. 93. 93. 93. 87. 93. 93. 87. 93. 93. 93. 93. 87. 93.
 93. 87. 87. 93. 87. 93. 87. 87. 87. 93. 93. 93. 87. 93. 93. 93.]",557.1407775895532,None,s,1,0.6539520163951238,557.1407775895532,None,None,None,,,,,,,22_XHM,23,F,22,2021_Nov_05_1343,Partial repeat,2021.2.3,120.10130268372438,
2,8,0,1,1,3,3,2,2,0,0,1,1,1,0,0,0,97,97,97,,,,,,,,,,,,,,,,,,,,,,,,,,,,,,,,22_XHM,23,F,22,2021_Nov_05_1343,Partial repeat,2021.2.3,120.10130268372438,
4,3,0,1,1,3,2,3,2,0,0,0,0,1,0,0,0,98,98,98,0,0,0,0,,,,,,,557.8151935539099,None,0.9458561716754674,558.1482438039711,None,"[87. 93. 93. 93. 87. 93. 87. 93. 87. 87. 93. 87. 87. 87. 87. 93. 87. 87.
 87. 93. 87. 87. 87. 87. 93. 93. 93. 93. 93. 87. 87. 93. 93. 87.]",559.1806958588804,None,s,1,0.6300553195542307,559.1806958588804,None,None,None,,,,,,,22_XHM,23,F,22,2021_Nov_05_1343,Partial repeat,2021.2.3,120.10130268372438,
4,3,0,1,1,3,2,3,2,0,0,0,0,1,0,0,0,98,98,98,1,0,1,0,,,,,,,,,0.9516099617481673,559.8800934944502,None,"[87. 87. 87. 87. 93. 93. 87. 87. 93. 87. 87. 87. 93. 93. 93. 87. 87. 93.
 93. 93. 93. 87. 87. 87. 87. 93. 93. 87. 87. 87. 87. 93. 87. 93.]",560.9208767285654,None,s,1,0.6499132690514671,560.9208767285654,None,None,None,,,,,,,22_XHM,23,F,22,2021_Nov_05_1343,Partial repeat,2021.2.3,120.10130268372438,
4,3,0,1,1,3,2,3,2,0,0,0,0,1,0,0,0,98,98,98,,,,,,,,,,,,,,,,,,,,,,,,,,,,,,,,22_XHM,23,F,22,2021_Nov_05_1343,Partial repeat,2021.2.3,120.10130268372438,
6,3,0,1,1,2,3,2,3,1,0,0,0,0,0,0,0,99,99,99,0,0,0,0,,,,,,,561.5869688901312,None,0.9375845893974669,562.0365677735335,None,"[87. 93. 93. 93. 93. 93. 87. 93. 93. 87. 93. 87. 93. 93. 93. 87. 87. 93.
 87. 87. 87. 93. 87. 93. 87. 93. 87. 87. 93. 93. 93. 87. 93. 93.]",563.0607094956249,None,s,0,0.6060989699690253,563.0607094956249,None,563.6851743046755,None,,,,,,,22_XHM,23,F,22,2021_Nov_05_1343,Partial repeat,2021.2.3,120.10130268372438,
6,3,0,1,1,2,3,2,3,1,0,0,0,0,0,0,0,99,99,99,1,0,1,0,,,,,,,,,0.9735566371115678,564.2347056457784,None,"[87. 87. 87. 87. 87. 87. 93. 93. 93. 93. 93. 93. 87. 87. 87. 93. 87. 93.
 87. 93. 93. 87. 93. 93. 87. 87. 93. 87. 93. 93. 87. 87. 93. 87.]",565.2837944020066,None,s,1,0.7190665143862134,565.2837944020066,None,None,None,,,,,,,22_XHM,23,F,22,2021_Nov_05_1343,Partial repeat,2021.2.3,120.10130268372438,
6,3,0,1,1,2,3,2,3,1,0,0,0,0,0,0,0,99,99,99,,,,,,,,,,,,,,,,,,,,,,,,,,,,,,,,22_XHM,23,F,22,2021_Nov_05_1343,Partial repeat,2021.2.3,120.10130268372438,
1,2,0,1,1,3,3,2,3,1,1,1,0,1,0,0,0,100,100,100,0,0,0,0,,,,,,,566.0248379914847,None,0.7350946901795028,566.3662155721868,None,"[87. 93. 87. 93. 87. 87. 93. 93. 93. 93. 87. 87. 93. 93. 87. 93. 87. 87.
 93. 93. 93. 87. 87. 87. 93. 93. 93. 87. 87. 87. 87. 93. 87. 93.]",567.1905212431102,None,l,1,0.620373615050994,567.1905212431102,None,None,None,,,,,,,22_XHM,23,F,22,2021_Nov_05_1343,Partial repeat,2021.2.3,120.10130268372438,
1,2,0,1,1,3,3,2,3,1,1,1,0,1,0,0,0,100,100,100,1,0,1,0,,,,,,,,,0.7528499668269639,567.8732568409814,None,"[87. 87. 93. 87. 87. 93. 87. 87. 93. 87. 87. 93. 93. 87. 93. 87. 87. 93.
 93. 93. 87. 87. 87. 93. 93. 87. 87. 93. 87. 93. 93. 93. 93. 87.]",568.7058847111293,None,l,1,0.6560427488602727,568.7058847111293,None,None,None,,,,,,,22_XHM,23,F,22,2021_Nov_05_1343,Partial repeat,2021.2.3,120.10130268372438,
