prime_tar_pos,probe_tar_pos,dimension,tar_color,tar_shape,prime_dist_color,probe_dist_color,prime_dist_shape,probe_dist_shape,prime_tar_ori,probe_tar_ori,col_rep,shape_rep,resp_rep,pos_fixed,sparse,MainLoop.thisRepN,MainLoop.thisTrialN,MainLoop.thisN,MainLoop.thisIndex,PrimeProbe.thisRepN,PrimeProbe.thisTrialN,PrimeProbe.thisN,PrimeProbe.thisIndex,Instruction.started,Instruction.stopped,instruction_key.keys,instruction_key.rt,instruction_key.started,instruction_key.stopped,PairStartText.started,PairStartText.stopped,fixdur,FixCross.started,FixCross.stopped,dist_ori,SearchFixCross.started,SearchFixCross.stopped,key_resp.keys,key_resp.corr,key_resp.rt,key_resp.started,key_resp.stopped,feedback_text.started,feedback_text.stopped,text_finish.started,text_finish.stopped,finish_key.keys,finish_key.rt,finish_key.started,finish_key.stopped,participant,age,gender,group,date,expName,psychopyVersion,frameRate,
,,,,,,,,,,,,,,,,,,,,,,,,33.975627684776555,None,space,8.839717854098126,33.975627684776555,None,,,,,,,,,,,,,,,,,,,,,,23_PP,26,M,23,2021_Nov_05_1528,Partial repeat,2021.2.3,120.09575164583228,
2,4,0,1,1,3,2,3,2,0,1,0,0,0,0,0,0,0,0,0,0,0,0,0,,,,,,,407.64087957650554,None,0.9200836388508155,418.98794276928675,None,"[87. 87. 93. 93. 93. 93. 93. 87. 87. 87. 93. 93. 87. 93. 93. 87. 87. 93.
 93. 93. 93. 87. 93. 93. 87. 87. 93. 93. 93. 87. 87. 87. 93. 87.]",419.9954054558548,None,s,1,0.897096096752648,419.9954054558548,None,None,None,,,,,,,23_PP,26,M,23,2021_Nov_05_1528,Partial repeat,2021.2.3,120.09575164583228,
2,4,0,1,1,3,2,3,2,0,1,0,0,0,0,0,0,0,0,0,1,0,1,0,,,,,,,,,0.8529044470613666,420.95292468424304,None,"[93. 87. 87. 93. 87. 93. 87. 87. 87. 87. 87. 93. 87. 93. 87. 87. 87. 93.
 87. 87. 87. 87. 87. 93. 87. 87. 93. 93. 93. 93. 93. 87. 93. 93.]",421.8937914963426,None,l,1,0.8387691830357653,421.8937914963426,None,None,None,,,,,,,23_PP,26,M,23,2021_Nov_05_1528,Partial repeat,2021.2.3,120.09575164583228,
2,4,0,1,1,3,2,3,2,0,1,0,0,0,0,0,0,0,0,0,,,,,,,,,,,,,,,,,,,,,,,,,,,,,,,,23_PP,26,M,23,2021_Nov_05_1528,Partial repeat,2021.2.3,120.09575164583228,
1,6,0,1,1,2,2,2,2,0,0,1,1,1,0,0,0,1,1,1,0,0,0,0,,,,,,,422.7513753806088,None,0.8360099793830387,423.90873290516174,None,"[93. 93. 93. 93. 93. 93. 93. 93. 87. 93. 87. 93. 87. 87. 93. 87. 87. 87.
 87. 87. 93. 87. 87. 93. 87. 87. 93. 87. 93. 93. 93. 87. 87. 93.]",424.82461932890146,None,s,1,0.8200385421150713,424.82461932890146,None,None,None,,,,,,,23_PP,26,M,23,2021_Nov_05_1528,Partial repeat,2021.2.3,120.09575164583228,
1,6,0,1,1,2,2,2,2,0,0,1,1,1,0,0,0,1,1,1,1,0,1,0,,,,,,,,,0.9757529882260816,425.7072041272004,None,"[93. 93. 87. 87. 93. 93. 93. 93. 87. 87. 87. 87. 87. 87. 87. 93. 93. 87.
 93. 93. 87. 87. 87. 87. 93. 87. 87. 87. 87. 93. 93. 87. 87. 93.]",426.76462759048445,None,s,1,0.7198546448926209,426.76462759048445,None,None,None,,,,,,,23_PP,26,M,23,2021_Nov_05_1528,Partial repeat,2021.2.3,120.09575164583228,
1,6,0,1,1,2,2,2,2,0,0,1,1,1,0,0,0,1,1,1,,,,,,,,,,,,,,,,,,,,,,,,,,,,,,,,23_PP,26,M,23,2021_Nov_05_1528,Partial repeat,2021.2.3,120.09575164583228,
5,5,0,1,1,2,2,2,3,0,0,1,0,1,0,0,0,2,2,2,0,0,0,0,,,,,,,427.5056609171261,None,0.712820873690137,428.9710549491574,None,"[93. 87. 87. 93. 93. 93. 87. 87. 87. 87. 87. 93. 87. 93. 87. 87. 87. 87.
 93. 87. 87. 93. 87. 87. 93. 87. 87. 87. 93. 87. 87. 93. 87. 93.]",429.7620711817617,None,s,1,0.6824947085733584,429.7620711817617,None,None,None,,,,,,,23_PP,26,M,23,2021_Nov_05_1528,Partial repeat,2021.2.3,120.09575164583228,
5,5,0,1,1,2,2,2,3,0,0,1,0,1,0,0,0,2,2,2,1,0,1,0,,,,,,,,,0.7686118140029442,430.5030772477403,None,"[93. 87. 93. 87. 87. 93. 87. 87. 93. 87. 93. 87. 87. 87. 87. 93. 87. 93.
 87. 93. 93. 93. 93. 93. 93. 87. 87. 87. 87. 87. 87. 93. 93. 93.]",431.3523536856119,None,s,1,0.7242246894675191,431.3523536856119,None,None,None,,,,,,,23_PP,26,M,23,2021_Nov_05_1528,Partial repeat,2021.2.3,120.09575164583228,
5,5,0,1,1,2,2,2,3,0,0,1,0,1,0,0,0,2,2,2,,,,,,,,,,,,,,,,,,,,,,,,,,,,,,,,23_PP,26,M,23,2021_Nov_05_1528,Partial repeat,2021.2.3,120.09575164583228,
1,1,0,1,1,2,2,3,2,0,0,1,0,1,0,0,0,3,3,3,0,0,0,0,,,,,,,432.1017342271407,None,0.8689417089377885,433.9251505590364,None,"[87. 93. 93. 93. 93. 87. 87. 87. 87. 93. 93. 93. 93. 87. 93. 93. 93. 93.
 93. 87. 93. 87. 93. 93. 93. 87. 87. 93. 87. 87. 93. 93. 93. 87.]",434.8743479089171,None,s,1,0.6903316680036369,434.8743479089171,None,None,None,,,,,,,23_PP,26,M,23,2021_Nov_05_1528,Partial repeat,2021.2.3,120.09575164583228,
1,1,0,1,1,2,2,3,2,0,0,1,0,1,0,0,0,3,3,3,1,0,1,0,,,,,,,,,0.973929151522593,435.6153953469584,None,"[87. 93. 87. 93. 93. 93. 93. 93. 93. 93. 93. 87. 87. 87. 87. 87. 87. 93.
 87. 87. 93. 87. 93. 93. 93. 93. 87. 87. 87. 93. 87. 93. 87. 93.]",436.66449596959137,None,s,1,0.7552437956619542,436.66449596959137,None,None,None,,,,,,,23_PP,26,M,23,2021_Nov_05_1528,Partial repeat,2021.2.3,120.09575164583228,
1,1,0,1,1,2,2,3,2,0,0,1,0,1,0,0,0,3,3,3,,,,,,,,,,,,,,,,,,,,,,,,,,,,,,,,23_PP,26,M,23,2021_Nov_05_1528,Partial repeat,2021.2.3,120.09575164583228,
1,8,0,1,1,3,3,3,3,0,0,1,1,1,0,0,0,4,4,4,0,0,0,0,,,,,,,437.447152800185,None,0.971546473727404,438.57951742854493,None,"[87. 93. 93. 87. 87. 87. 87. 87. 87. 87. 87. 87. 93. 93. 87. 87. 87. 87.
 87. 87. 93. 93. 87. 87. 87. 87. 87. 93. 93. 87. 87. 93. 93. 87.]",439.62860842976806,None,s,1,0.6550919698092912,439.62860842976806,None,None,None,,,,,,,23_PP,26,M,23,2021_Nov_05_1528,Partial repeat,2021.2.3,120.09575164583228,
1,8,0,1,1,3,3,3,3,0,0,1,1,1,0,0,0,4,4,4,1,0,1,0,,,,,,,,,0.7389991928817751,440.3363430173922,None,"[93. 87. 93. 87. 87. 87. 87. 93. 87. 87. 93. 87. 93. 93. 93. 87. 87. 87.
 93. 93. 87. 93. 87. 87. 93. 87. 87. 87. 87. 87. 93. 87. 87. 93.]",441.16063682190725,None,s,1,0.7870909845769347,441.16063682190725,None,None,None,,,,,,,23_PP,26,M,23,2021_Nov_05_1528,Partial repeat,2021.2.3,120.09575164583228,
1,8,0,1,1,3,3,3,3,0,0,1,1,1,0,0,0,4,4,4,,,,,,,,,,,,,,,,,,,,,,,,,,,,,,,,23_PP,26,M,23,2021_Nov_05_1528,Partial repeat,2021.2.3,120.09575164583228,
2,3,0,1,1,3,3,2,2,1,1,1,1,1,0,0,0,5,5,5,0,0,0,0,,,,,,,441.9682830208403,None,0.7430937352599257,443.92494081229233,None,"[87. 87. 93. 87. 87. 93. 87. 87. 93. 93. 93. 93. 93. 93. 87. 87. 93. 87.
 93. 87. 87. 93. 93. 93. 87. 93. 93. 93. 87. 87. 93. 87. 93. 93.]",444.75757445528507,None,l,1,0.9022069899183407,444.75757445528507,None,None,None,,,,,,,23_PP,26,M,23,2021_Nov_05_1528,Partial repeat,2021.2.3,120.09575164583228,
2,3,0,1,1,3,3,2,2,1,1,1,1,1,0,0,0,5,5,5,1,0,1,0,,,,,,,,,0.7363518544878381,445.7233802836781,None,"[87. 87. 93. 93. 93. 87. 93. 93. 87. 87. 93. 87. 93. 87. 93. 93. 87. 93.
 93. 93. 93. 93. 87. 93. 87. 93. 87. 87. 87. 93. 93. 87. 93. 93.]",446.5393775460652,None,l,1,0.81692761944214,446.5393775460652,None,None,None,,,,,,,23_PP,26,M,23,2021_Nov_05_1528,Partial repeat,2021.2.3,120.09575164583228,
2,3,0,1,1,3,3,2,2,1,1,1,1,1,0,0,0,5,5,5,,,,,,,,,,,,,,,,,,,,,,,,,,,,,,,,23_PP,26,M,23,2021_Nov_05_1528,Partial repeat,2021.2.3,120.09575164583228,
7,5,0,1,1,3,3,2,3,0,0,1,0,1,0,0,0,6,6,6,0,0,0,0,,,,,,,447.3803096554693,None,0.8375000420251685,455.23192056820335,None,"[87. 93. 87. 93. 87. 87. 93. 93. 87. 87. 93. 93. 93. 93. 87. 87. 93. 93.
 93. 93. 87. 93. 87. 87. 93. 87. 87. 93. 87. 93. 87. 93. 87. 87.]",456.156150678984,None,s,1,0.782833831217431,456.156150678984,None,None,None,,,,,,,23_PP,26,M,23,2021_Nov_05_1528,Partial repeat,2021.2.3,120.09575164583228,
7,5,0,1,1,3,3,2,3,0,0,1,0,1,0,0,0,6,6,6,1,0,1,0,,,,,,,,,0.7843545628023699,456.99709689979136,None,"[93. 93. 87. 87. 87. 87. 87. 93. 87. 93. 93. 93. 87. 93. 87. 87. 93. 87.
 87. 87. 93. 87. 93. 93. 87. 93. 93. 87. 93. 93. 87. 87. 93. 87.]",457.86302382966824,None,s,1,0.6439769958778925,457.86302382966824,None,None,None,,,,,,,23_PP,26,M,23,2021_Nov_05_1528,Partial repeat,2021.2.3,120.09575164583228,
7,5,0,1,1,3,3,2,3,0,0,1,0,1,0,0,0,6,6,6,,,,,,,,,,,,,,,,,,,,,,,,,,,,,,,,23_PP,26,M,23,2021_Nov_05_1528,Partial repeat,2021.2.3,120.09575164583228,
6,5,0,1,1,3,2,3,3,1,0,0,1,0,0,0,0,7,7,7,0,0,0,0,,,,,,,458.52912946120705,None,0.925137850389635,467.9877012718862,None,"[93. 87. 93. 93. 93. 87. 93. 87. 87. 93. 93. 87. 93. 87. 93. 93. 87. 87.
 93. 93. 93. 87. 87. 87. 93. 87. 93. 93. 87. 93. 93. 87. 93. 93.]",468.9868905077092,None,l,1,0.7353043848925154,468.9868905077092,None,None,None,,,,,,,23_PP,26,M,23,2021_Nov_05_1528,Partial repeat,2021.2.3,120.09575164583228,
6,5,0,1,1,3,2,3,3,1,0,0,1,0,0,0,0,7,7,7,1,0,1,0,,,,,,,,,0.7864570029331988,469.7861388189922,None,"[93. 93. 93. 93. 93. 93. 93. 93. 87. 87. 87. 87. 93. 93. 93. 87. 87. 93.
 93. 93. 87. 93. 93. 93. 93. 93. 93. 93. 93. 93. 93. 93. 93. 93.]",470.65207569099584,None,s,1,0.7508734303773963,470.65207569099584,None,None,None,,,,,,,23_PP,26,M,23,2021_Nov_05_1528,Partial repeat,2021.2.3,120.09575164583228,
6,5,0,1,1,3,2,3,3,1,0,0,1,0,0,0,0,7,7,7,,,,,,,,,,,,,,,,,,,,,,,,,,,,,,,,23_PP,26,M,23,2021_Nov_05_1528,Partial repeat,2021.2.3,120.09575164583228,
5,3,0,1,1,3,3,3,3,1,0,1,1,0,0,0,0,8,8,8,0,0,0,0,,,,,,,471.426423792338,None,0.7048628392778687,472.4838334649321,None,"[87. 93. 93. 87. 93. 93. 93. 87. 87. 87. 87. 87. 87. 93. 87. 93. 87. 93.
 93. 87. 87. 93. 87. 87. 93. 93. 93. 87. 87. 93. 87. 87. 87. 93.]",473.26652557403213,None,l,1,0.6637374484198517,473.26652557403213,None,None,None,,,,,,,23_PP,26,M,23,2021_Nov_05_1528,Partial repeat,2021.2.3,120.09575164583228,
5,3,0,1,1,3,3,3,3,1,0,1,1,0,0,0,0,8,8,8,1,0,1,0,,,,,,,,,0.8527443955191845,473.9908981458284,None,"[93. 87. 93. 87. 87. 93. 87. 87. 87. 87. 93. 93. 87. 93. 93. 87. 93. 93.
 93. 87. 93. 87. 87. 87. 93. 87. 93. 87. 87. 87. 87. 87. 87. 93.]",474.92344243799016,None,s,1,0.5588105166170863,474.92344243799016,None,None,None,,,,,,,23_PP,26,M,23,2021_Nov_05_1528,Partial repeat,2021.2.3,120.09575164583228,
5,3,0,1,1,3,3,3,3,1,0,1,1,0,0,0,0,8,8,8,,,,,,,,,,,,,,,,,,,,,,,,,,,,,,,,23_PP,26,M,23,2021_Nov_05_1528,Partial repeat,2021.2.3,120.09575164583228,
3,3,0,1,1,2,3,2,2,0,0,0,1,1,0,0,0,9,9,9,0,0,0,0,,,,,,,475.5062667452621,None,0.706884109282951,477.0965707369287,None,"[93. 87. 93. 87. 93. 93. 87. 87. 93. 93. 93. 93. 93. 87. 87. 93. 93. 93.
 87. 93. 93. 93. 87. 87. 93. 87. 87. 93. 93. 93. 87. 87. 87. 87.]",477.8792269260957,None,s,1,0.5951146635088662,477.8792269260957,None,None,None,,,,,,,23_PP,26,M,23,2021_Nov_05_1528,Partial repeat,2021.2.3,120.09575164583228,
3,3,0,1,1,2,3,2,2,0,0,0,1,1,0,0,0,9,9,9,1,0,1,0,,,,,,,,,0.7557002920205554,478.5286743684992,None,"[87. 87. 87. 87. 87. 93. 87. 87. 87. 93. 93. 87. 87. 87. 87. 87. 93. 93.
 87. 87. 87. 93. 87. 87. 93. 87. 93. 87. 87. 93. 93. 93. 87. 87.]",479.36129133438226,None,s,1,0.6343113270595495,479.36129133438226,None,None,None,,,,,,,23_PP,26,M,23,2021_Nov_05_1528,Partial repeat,2021.2.3,120.09575164583228,
3,3,0,1,1,2,3,2,2,0,0,0,1,1,0,0,0,9,9,9,,,,,,,,,,,,,,,,,,,,,,,,,,,,,,,,23_PP,26,M,23,2021_Nov_05_1528,Partial repeat,2021.2.3,120.09575164583228,
2,7,0,1,1,2,2,2,2,1,1,1,1,1,0,0,0,10,10,10,0,0,0,0,,,,,,,480.02738926879465,None,0.780665202876051,481.0598211187389,None,"[93. 93. 87. 87. 87. 93. 87. 87. 87. 87. 93. 93. 93. 93. 87. 93. 87. 87.
 87. 93. 93. 93. 93. 93. 87. 93. 93. 93. 87. 93. 93. 87. 93. 93.]",481.91745118577455,None,l,1,0.653082377903047,481.91745118577455,None,None,None,,,,,,,23_PP,26,M,23,2021_Nov_05_1528,Partial repeat,2021.2.3,120.09575164583228,
2,7,0,1,1,2,2,2,2,1,1,1,1,1,0,0,0,10,10,10,1,0,1,0,,,,,,,,,0.8574399376526247,482.6335111797598,None,"[87. 87. 93. 87. 93. 87. 87. 87. 93. 93. 87. 93. 93. 93. 93. 87. 87. 93.
 87. 87. 87. 93. 87. 93. 87. 87. 87. 87. 87. 93. 93. 87. 93. 87.]",483.5660464919383,None,l,1,0.9401673022439354,483.5660464919383,None,None,None,,,,,,,23_PP,26,M,23,2021_Nov_05_1528,Partial repeat,2021.2.3,120.09575164583228,
2,7,0,1,1,2,2,2,2,1,1,1,1,1,0,0,0,10,10,10,,,,,,,,,,,,,,,,,,,,,,,,,,,,,,,,23_PP,26,M,23,2021_Nov_05_1528,Partial repeat,2021.2.3,120.09575164583228,
1,4,0,1,1,3,2,2,3,0,1,0,0,0,0,0,0,11,11,11,0,0,0,0,,,,,,,484.5318799017077,None,0.8121478237934526,486.8299210467085,None,"[87. 93. 93. 87. 93. 93. 87. 93. 87. 93. 87. 93. 87. 87. 87. 87. 93. 93.
 93. 87. 87. 87. 93. 93. 93. 93. 93. 93. 87. 87. 93. 87. 87. 87.]",487.7208357413583,None,s,1,0.6886415069238865,487.7208357413583,None,None,None,,,,,,,23_PP,26,M,23,2021_Nov_05_1528,Partial repeat,2021.2.3,120.09575164583228,
1,4,0,1,1,3,2,2,3,0,1,0,0,0,0,0,0,11,11,11,1,0,1,0,,,,,,,,,0.8455386276994085,488.4618395623438,None,"[93. 87. 87. 87. 87. 87. 87. 87. 93. 87. 87. 87. 93. 87. 87. 87. 87. 93.
 93. 93. 87. 87. 87. 87. 87. 87. 93. 87. 87. 87. 87. 93. 93. 87.]",489.3860613345678,None,l,1,0.8474063230933098,489.3860613345678,None,None,None,,,,,,,23_PP,26,M,23,2021_Nov_05_1528,Partial repeat,2021.2.3,120.09575164583228,
1,4,0,1,1,3,2,2,3,0,1,0,0,0,0,0,0,11,11,11,,,,,,,,,,,,,,,,,,,,,,,,,,,,,,,,23_PP,26,M,23,2021_Nov_05_1528,Partial repeat,2021.2.3,120.09575164583228,
8,1,0,1,1,2,2,2,3,0,1,1,0,0,0,0,0,12,12,12,0,0,0,0,,,,,,,490.2603181607992,None,0.8748523730566804,515.4720623108187,None,"[93. 87. 87. 93. 87. 93. 93. 93. 87. 93. 87. 87. 87. 87. 87. 87. 93. 93.
 93. 93. 93. 87. 87. 87. 87. 93. 87. 87. 87. 87. 93. 93. 87. 93.]",516.4212811485158,None,s,1,0.6586397045102785,516.4212811485158,None,None,None,,,,,,,23_PP,26,M,23,2021_Nov_05_1528,Partial repeat,2021.2.3,120.09575164583228,
8,1,0,1,1,2,2,2,3,0,1,1,0,0,0,0,0,12,12,12,1,0,1,0,,,,,,,,,0.7533241466803525,517.1373183718279,None,"[93. 93. 93. 87. 93. 87. 87. 87. 87. 93. 87. 87. 87. 93. 93. 87. 87. 87.
 87. 93. 93. 87. 93. 87. 87. 93. 87. 87. 93. 87. 87. 87. 87. 93.]",517.9699334134275,None,l,1,0.6140261869441019,517.9699334134275,None,None,None,,,,,,,23_PP,26,M,23,2021_Nov_05_1528,Partial repeat,2021.2.3,120.09575164583228,
8,1,0,1,1,2,2,2,3,0,1,1,0,0,0,0,0,12,12,12,,,,,,,,,,,,,,,,,,,,,,,,,,,,,,,,23_PP,26,M,23,2021_Nov_05_1528,Partial repeat,2021.2.3,120.09575164583228,
5,4,0,1,1,2,3,2,3,1,1,0,0,1,0,0,0,13,13,13,0,0,0,0,,,,,,,518.6027486445055,None,0.8489295453817419,519.4770295242597,None,"[87. 93. 87. 93. 87. 87. 93. 87. 87. 93. 93. 93. 87. 93. 87. 87. 87. 87.
 87. 87. 87. 87. 93. 93. 93. 87. 87. 93. 87. 87. 93. 87. 93. 87.]",520.4012230736807,None,l,1,0.7107701092609204,520.4012230736807,None,None,None,,,,,,,23_PP,26,M,23,2021_Nov_05_1528,Partial repeat,2021.2.3,120.09575164583228,
5,4,0,1,1,2,3,2,3,1,1,0,0,1,0,0,0,13,13,13,1,0,1,0,,,,,,,,,0.735639326816817,521.183860982168,None,"[93. 93. 87. 87. 93. 87. 93. 87. 93. 93. 87. 93. 93. 87. 93. 93. 93. 87.
 93. 87. 87. 93. 93. 87. 93. 87. 93. 93. 93. 87. 93. 93. 93. 93.]",521.9998406053019,None,l,1,0.5841821756621357,521.9998406053019,None,None,None,,,,,,,23_PP,26,M,23,2021_Nov_05_1528,Partial repeat,2021.2.3,120.09575164583228,
5,4,0,1,1,2,3,2,3,1,1,0,0,1,0,0,0,13,13,13,,,,,,,,,,,,,,,,,,,,,,,,,,,,,,,,23_PP,26,M,23,2021_Nov_05_1528,Partial repeat,2021.2.3,120.09575164583228,
4,3,0,1,1,3,3,3,3,1,1,1,1,1,0,0,0,14,14,14,0,0,0,0,,,,,,,522.6076456216506,None,0.9812521669439838,523.2154650701123,None,"[93. 87. 93. 87. 87. 87. 87. 93. 93. 87. 87. 93. 87. 93. 87. 87. 93. 93.
 87. 87. 93. 93. 93. 87. 87. 93. 93. 93. 87. 87. 87. 93. 93. 93.]",524.2728984755195,None,l,1,0.6631652952200966,524.2728984755195,None,None,None,,,,,,,23_PP,26,M,23,2021_Nov_05_1528,Partial repeat,2021.2.3,120.09575164583228,
4,3,0,1,1,3,3,3,3,1,1,1,1,1,0,0,0,14,14,14,1,0,1,0,,,,,,,,,0.8389020245424849,525.0055945293971,None,"[93. 93. 93. 87. 93. 87. 93. 93. 93. 93. 93. 87. 93. 87. 87. 87. 87. 87.
 93. 93. 87. 87. 93. 87. 87. 87. 87. 87. 93. 93. 87. 93. 93. 87.]",525.9214819152767,None,l,1,0.4065949944597378,525.9214819152767,None,None,None,,,,,,,23_PP,26,M,23,2021_Nov_05_1528,Partial repeat,2021.2.3,120.09575164583228,
4,3,0,1,1,3,3,3,3,1,1,1,1,1,0,0,0,14,14,14,,,,,,,,,,,,,,,,,,,,,,,,,,,,,,,,23_PP,26,M,23,2021_Nov_05_1528,Partial repeat,2021.2.3,120.09575164583228,
7,3,0,1,1,3,2,2,2,0,1,0,1,0,0,0,0,15,15,15,0,0,0,0,,,,,,,526.346101693176,None,0.9592946165591151,527.1038140553428,None,"[87. 93. 87. 93. 93. 93. 93. 87. 87. 93. 93. 93. 93. 87. 87. 93. 93. 87.
 93. 93. 93. 93. 93. 93. 87. 93. 87. 93. 87. 87. 87. 93. 93. 87.]",528.1445841401983,None,s,1,0.7275427931781451,528.1445841401983,None,None,None,,,,,,,23_PP,26,M,23,2021_Nov_05_1528,Partial repeat,2021.2.3,120.09575164583228,
7,3,0,1,1,3,2,2,2,0,1,0,1,0,0,0,0,15,15,15,1,0,1,0,,,,,,,,,0.8929332226968052,528.9355503414663,None,"[93. 87. 93. 87. 93. 93. 87. 87. 87. 93. 93. 87. 87. 87. 93. 93. 87. 87.
 93. 87. 93. 93. 93. 87. 87. 87. 87. 93. 87. 93. 93. 87. 93. 93.]",529.9097348146897,None,l,1,0.9456024369392253,529.9097348146897,None,None,None,,,,,,,23_PP,26,M,23,2021_Nov_05_1528,Partial repeat,2021.2.3,120.09575164583228,
7,3,0,1,1,3,2,2,2,0,1,0,1,0,0,0,0,15,15,15,,,,,,,,,,,,,,,,,,,,,,,,,,,,,,,,23_PP,26,M,23,2021_Nov_05_1528,Partial repeat,2021.2.3,120.09575164583228,
1,3,0,1,1,3,2,2,2,1,0,0,1,0,0,0,0,16,16,16,0,0,0,0,,,,,,,530.8755627723258,None,0.9160008203786092,533.8063861148948,None,"[93. 93. 87. 87. 87. 93. 87. 87. 93. 87. 87. 87. 93. 93. 93. 93. 93. 93.
 87. 93. 87. 93. 87. 87. 93. 93. 93. 87. 93. 87. 93. 87. 93. 93.]",534.7972114587174,None,l,1,0.7140128452556382,534.7972114587174,None,None,None,,,,,,,23_PP,26,M,23,2021_Nov_05_1528,Partial repeat,2021.2.3,120.09575164583228,
1,3,0,1,1,3,2,2,2,1,0,0,1,0,0,0,0,16,16,16,1,0,1,0,,,,,,,,,0.9522640363276508,535.5798971535405,None,"[87. 93. 93. 93. 87. 87. 87. 87. 93. 87. 93. 93. 93. 93. 87. 93. 87. 87.
 93. 87. 93. 87. 87. 93. 87. 87. 87. 87. 93. 93. 93. 87. 93. 93.]",536.6123424734615,None,s,1,0.6589014068740653,536.6123424734615,None,None,None,,,,,,,23_PP,26,M,23,2021_Nov_05_1528,Partial repeat,2021.2.3,120.09575164583228,
1,3,0,1,1,3,2,2,2,1,0,0,1,0,0,0,0,16,16,16,,,,,,,,,,,,,,,,,,,,,,,,,,,,,,,,23_PP,26,M,23,2021_Nov_05_1528,Partial repeat,2021.2.3,120.09575164583228,
4,6,0,1,1,2,3,2,3,0,1,0,0,0,0,0,0,17,17,17,0,0,0,0,,,,,,,537.2867517028317,None,0.798361210371173,538.1193529537413,None,"[93. 87. 93. 87. 87. 93. 87. 93. 93. 93. 93. 87. 87. 87. 87. 93. 93. 87.
 87. 87. 87. 87. 93. 87. 93. 93. 93. 87. 93. 93. 87. 93. 93. 87.]",539.0019614848534,None,s,1,0.6213208195440529,539.0019614848534,None,None,None,,,,,,,23_PP,26,M,23,2021_Nov_05_1528,Partial repeat,2021.2.3,120.09575164583228,
4,6,0,1,1,2,3,2,3,0,1,0,0,0,0,0,0,17,17,17,1,0,1,0,,,,,,,,,0.9745856105138,539.6930513533152,None,"[87. 87. 87. 87. 87. 87. 93. 93. 93. 93. 93. 87. 87. 87. 93. 93. 87. 93.
 87. 93. 87. 87. 93. 93. 87. 93. 93. 87. 93. 87. 93. 87. 93. 87.]",540.7421471652451,None,l,1,0.6571788537075918,540.7421471652451,None,None,None,,,,,,,23_PP,26,M,23,2021_Nov_05_1528,Partial repeat,2021.2.3,120.09575164583228,
4,6,0,1,1,2,3,2,3,0,1,0,0,0,0,0,0,17,17,17,,,,,,,,,,,,,,,,,,,,,,,,,,,,,,,,23_PP,26,M,23,2021_Nov_05_1528,Partial repeat,2021.2.3,120.09575164583228,
3,7,0,1,1,3,2,3,2,1,0,0,0,0,0,0,0,18,18,18,0,0,0,0,,,,,,,541.416556073902,None,0.9793901129702863,542.232527037766,None,"[93. 93. 87. 87. 87. 93. 93. 87. 87. 87. 87. 87. 93. 87. 87. 93. 93. 93.
 93. 93. 93. 93. 93. 93. 87. 87. 93. 87. 93. 93. 93. 93. 87. 87.]",543.2899646124533,None,l,1,0.8933957023364201,543.2899646124533,None,None,None,,,,,,,23_PP,26,M,23,2021_Nov_05_1528,Partial repeat,2021.2.3,120.09575164583228,
3,7,0,1,1,3,2,3,2,1,0,0,0,0,0,0,0,18,18,18,1,0,1,0,,,,,,,,,0.9163582506427416,544.2558041157827,None,"[87. 87. 93. 87. 87. 93. 93. 93. 93. 93. 93. 93. 93. 93. 93. 93. 93. 93.
 93. 93. 93. 93. 87. 87. 93. 93. 93. 87. 87. 93. 87. 93. 87. 93.]",545.2466236867585,None,s,1,0.8085480124718742,545.2466236867585,None,None,None,,,,,,,23_PP,26,M,23,2021_Nov_05_1528,Partial repeat,2021.2.3,120.09575164583228,
3,7,0,1,1,3,2,3,2,1,0,0,0,0,0,0,0,18,18,18,,,,,,,,,,,,,,,,,,,,,,,,,,,,,,,,23_PP,26,M,23,2021_Nov_05_1528,Partial repeat,2021.2.3,120.09575164583228,
4,2,0,1,1,2,2,3,2,1,1,1,0,1,0,0,0,19,19,19,0,0,0,0,,,,,,,546.0709091527206,None,0.8210343230116224,547.1866187990818,None,"[87. 93. 87. 87. 93. 87. 93. 93. 93. 93. 87. 93. 87. 87. 87. 87. 93. 87.
 87. 93. 87. 87. 87. 87. 87. 87. 87. 87. 93. 87. 87. 93. 93. 87.]",548.0941936071504,None,l,1,0.6002188216916693,548.0941936071504,None,None,None,,,,,,,23_PP,26,M,23,2021_Nov_05_1528,Partial repeat,2021.2.3,120.09575164583228,
4,2,0,1,1,2,2,3,2,1,1,1,0,1,0,0,0,19,19,19,1,0,1,0,,,,,,,,,0.8846338621800983,548.751944326672,None,"[93. 87. 93. 93. 87. 93. 93. 87. 87. 87. 93. 87. 93. 93. 93. 93. 93. 87.
 87. 87. 87. 93. 93. 93. 87. 87. 93. 93. 87. 87. 87. 87. 87. 87.]",549.7177838300013,None,l,1,0.6891559316609346,549.7177838300013,None,None,None,,,,,,,23_PP,26,M,23,2021_Nov_05_1528,Partial repeat,2021.2.3,120.09575164583228,
4,2,0,1,1,2,2,3,2,1,1,1,0,1,0,0,0,19,19,19,,,,,,,,,,,,,,,,,,,,,,,,,,,,,,,,23_PP,26,M,23,2021_Nov_05_1528,Partial repeat,2021.2.3,120.09575164583228,
4,8,0,1,1,2,3,3,3,1,1,0,1,1,0,0,0,20,20,20,0,0,0,0,,,,,,,550.4255184176254,None,0.810703883716825,551.5745325758508,None,"[87. 93. 93. 93. 93. 87. 87. 93. 93. 87. 87. 93. 93. 93. 93. 93. 87. 93.
 87. 93. 87. 93. 93. 93. 93. 93. 93. 87. 87. 87. 93. 93. 87. 93.]",552.4654302726776,None,l,1,0.757092068586644,552.4654302726776,None,None,None,,,,,,,23_PP,26,M,23,2021_Nov_05_1528,Partial repeat,2021.2.3,120.09575164583228,
4,8,0,1,1,2,3,3,3,1,1,0,1,1,0,0,0,20,20,20,1,0,1,0,,,,,,,,,0.73913489026406,553.2897336986061,None,"[93. 87. 87. 93. 93. 87. 93. 93. 93. 93. 87. 87. 87. 93. 93. 87. 93. 93.
 93. 87. 93. 93. 93. 87. 93. 93. 93. 93. 87. 93. 93. 93. 87. 93.]",554.1057152460235,None,l,1,0.6208150540733186,554.1057152460235,None,None,None,,,,,,,23_PP,26,M,23,2021_Nov_05_1528,Partial repeat,2021.2.3,120.09575164583228,
4,8,0,1,1,2,3,3,3,1,1,0,1,1,0,0,0,20,20,20,,,,,,,,,,,,,,,,,,,,,,,,,,,,,,,,23_PP,26,M,23,2021_Nov_05_1528,Partial repeat,2021.2.3,120.09575164583228,
7,6,0,1,1,2,3,3,2,0,1,0,0,0,0,0,0,21,21,21,0,0,0,0,,,,,,,554.7468241328061,None,0.8648040414691642,555.9291399164758,None,"[87. 87. 93. 93. 93. 87. 93. 87. 87. 87. 93. 87. 93. 87. 87. 87. 87. 93.
 93. 87. 93. 93. 87. 93. 93. 87. 93. 93. 87. 87. 87. 93. 87. 87.]",556.8699829957623,None,s,1,0.7526027185267594,556.8699829957623,None,None,None,,,,,,,23_PP,26,M,23,2021_Nov_05_1528,Partial repeat,2021.2.3,120.09575164583228,
7,6,0,1,1,2,3,3,2,0,1,0,0,0,0,0,0,21,21,21,1,0,1,0,,,,,,,,,0.9267137646259023,557.6776397782451,None,"[93. 93. 93. 93. 93. 93. 87. 87. 93. 87. 87. 87. 93. 87. 93. 87. 93. 87.
 93. 93. 87. 87. 93. 93. 87. 93. 93. 93. 93. 93. 87. 93. 93. 93.]",558.6851088790863,None,l,1,0.7934106475950102,558.6851088790863,None,None,None,,,,,,,23_PP,26,M,23,2021_Nov_05_1528,Partial repeat,2021.2.3,120.09575164583228,
7,6,0,1,1,2,3,3,2,0,1,0,0,0,0,0,0,21,21,21,,,,,,,,,,,,,,,,,,,,,,,,,,,,,,,,23_PP,26,M,23,2021_Nov_05_1528,Partial repeat,2021.2.3,120.09575164583228,
7,7,0,1,1,3,3,2,3,1,0,1,0,0,0,0,0,22,22,22,0,0,0,0,,,,,,,559.5010894643638,None,0.8295425836555541,562.3070198451205,None,"[87. 87. 93. 93. 93. 87. 93. 87. 93. 93. 87. 87. 87. 93. 87. 93. 93. 87.
 87. 87. 93. 93. 87. 93. 87. 93. 93. 87. 93. 93. 87. 87. 87. 87.]",563.2145722032328,None,l,1,0.743085540139873,563.2145722032328,None,None,None,,,,,,,23_PP,26,M,23,2021_Nov_05_1528,Partial repeat,2021.2.3,120.09575164583228,
7,7,0,1,1,3,3,2,3,1,0,1,0,0,0,0,0,22,22,22,1,0,1,0,,,,,,,,,0.8003937640747755,564.0305454120971,None,"[87. 93. 93. 87. 87. 93. 93. 93. 93. 87. 87. 93. 87. 87. 87. 93. 93. 93.
 93. 87. 93. 93. 87. 93. 93. 87. 87. 93. 87. 93. 93. 93. 93. 93.]",564.9131369453826,None,s,1,0.7405682584831084,564.9131369453826,None,None,None,,,,,,,23_PP,26,M,23,2021_Nov_05_1528,Partial repeat,2021.2.3,120.09575164583228,
7,7,0,1,1,3,3,2,3,1,0,1,0,0,0,0,0,22,22,22,,,,,,,,,,,,,,,,,,,,,,,,,,,,,,,,23_PP,26,M,23,2021_Nov_05_1528,Partial repeat,2021.2.3,120.09575164583228,
5,8,0,1,1,2,3,3,2,1,0,0,0,0,0,0,0,23,23,23,0,0,0,0,,,,,,,565.6708008797832,None,0.7732791009269215,566.3618827304017,None,"[93. 87. 93. 93. 87. 87. 93. 93. 87. 87. 87. 93. 93. 93. 93. 93. 87. 93.
 93. 87. 93. 93. 93. 93. 93. 87. 93. 87. 93. 87. 87. 93. 87. 93.]",567.2111511504336,None,l,1,0.6346025350794662,567.2111511504336,None,None,None,,,,,,,23_PP,26,M,23,2021_Nov_05_1528,Partial repeat,2021.2.3,120.09575164583228,
5,8,0,1,1,2,3,3,2,1,0,0,0,0,0,0,0,23,23,23,1,0,1,0,,,,,,,,,0.8111051346832698,567.9105699531065,None,"[87. 87. 93. 87. 93. 87. 87. 87. 93. 87. 87. 87. 93. 87. 93. 93. 93. 93.
 93. 93. 93. 87. 93. 93. 93. 93. 87. 93. 93. 93. 93. 87. 87. 87.]",568.8014820820499,None,s,1,0.7403312510759861,568.8014820820499,None,None,None,,,,,,,23_PP,26,M,23,2021_Nov_05_1528,Partial repeat,2021.2.3,120.09575164583228,
5,8,0,1,1,2,3,3,2,1,0,0,0,0,0,0,0,23,23,23,,,,,,,,,,,,,,,,,,,,,,,,,,,,,,,,23_PP,26,M,23,2021_Nov_05_1528,Partial repeat,2021.2.3,120.09575164583228,
4,1,0,1,1,2,2,3,3,0,0,1,1,1,0,0,0,24,24,24,0,0,0,0,,,,,,,569.5508283072159,None,0.8754731126553617,570.6665597621068,None,"[93. 87. 87. 93. 93. 93. 87. 93. 87. 93. 93. 93. 87. 93. 93. 87. 87. 87.
 87. 93. 87. 87. 87. 87. 87. 93. 93. 93. 87. 87. 87. 87. 87. 93.]",571.6240651998087,None,s,1,0.6697514713050623,571.6240651998087,None,None,None,,,,,,,23_PP,26,M,23,2021_Nov_05_1528,Partial repeat,2021.2.3,120.09575164583228,
4,1,0,1,1,2,2,3,3,0,0,1,1,1,0,0,0,24,24,24,1,0,1,0,,,,,,,,,0.9307991946394776,572.3567513115595,None,"[93. 87. 93. 93. 87. 87. 93. 93. 87. 87. 93. 87. 93. 93. 87. 93. 87. 87.
 87. 87. 87. 93. 87. 87. 93. 87. 93. 87. 87. 87. 87. 93. 87. 87.]",573.3642431830704,None,s,1,0.6256094028431107,573.3642431830704,None,None,None,,,,,,,23_PP,26,M,23,2021_Nov_05_1528,Partial repeat,2021.2.3,120.09575164583228,
4,1,0,1,1,2,2,3,3,0,0,1,1,1,0,0,0,24,24,24,,,,,,,,,,,,,,,,,,,,,,,,,,,,,,,,23_PP,26,M,23,2021_Nov_05_1528,Partial repeat,2021.2.3,120.09575164583228,
8,8,0,1,1,3,3,3,2,0,1,1,0,0,0,0,0,25,25,25,0,0,0,0,,,,,,,574.0053379584533,None,0.9458134991368448,574.8296420258084,None,"[87. 93. 87. 87. 87. 87. 93. 87. 93. 93. 87. 93. 87. 93. 93. 93. 87. 93.
 87. 87. 87. 93. 87. 87. 93. 87. 93. 93. 93. 87. 87. 93. 87. 93.]",575.8537731643482,None,s,1,0.6161319929487945,575.8537731643482,None,None,None,,,,,,,23_PP,26,M,23,2021_Nov_05_1528,Partial repeat,2021.2.3,120.09575164583228,
8,8,0,1,1,3,3,3,2,0,1,1,0,0,0,0,0,25,25,25,1,0,1,0,,,,,,,,,0.7678264785502404,576.5198675709107,None,"[93. 87. 87. 87. 93. 87. 93. 87. 93. 93. 87. 93. 87. 93. 93. 87. 87. 87.
 87. 93. 87. 93. 93. 87. 87. 87. 93. 87. 87. 87. 87. 93. 87. 87.]",577.3691488194854,None,l,1,0.8438460805555223,577.3691488194854,None,None,None,,,,,,,23_PP,26,M,23,2021_Nov_05_1528,Partial repeat,2021.2.3,120.09575164583228,
8,8,0,1,1,3,3,3,2,0,1,1,0,0,0,0,0,25,25,25,,,,,,,,,,,,,,,,,,,,,,,,,,,,,,,,23_PP,26,M,23,2021_Nov_05_1528,Partial repeat,2021.2.3,120.09575164583228,
6,8,0,1,1,2,2,3,3,1,0,1,1,0,0,0,0,26,26,26,0,0,0,0,,,,,,,578.2267413630216,None,0.8935605074872403,579.0843351894109,None,"[87. 87. 87. 93. 87. 93. 87. 93. 93. 93. 87. 93. 93. 87. 87. 93. 87. 93.
 93. 87. 93. 87. 87. 93. 93. 87. 87. 93. 93. 93. 93. 87. 93. 87.]",580.058522869771,None,l,1,0.6510464874809259,580.058522869771,None,None,None,,,,,,,23_PP,26,M,23,2021_Nov_05_1528,Partial repeat,2021.2.3,120.09575164583228,
6,8,0,1,1,2,2,3,3,1,0,1,1,0,0,0,0,26,26,26,1,0,1,0,,,,,,,,,0.8438897556368625,580.7828784437443,None,"[87. 87. 87. 93. 87. 87. 87. 87. 93. 87. 93. 93. 93. 93. 87. 87. 87. 87.
 87. 87. 93. 87. 93. 87. 93. 87. 87. 87. 87. 87. 87. 87. 87. 87.]",581.707105026675,None,s,1,0.5538696016956237,581.707105026675,None,None,None,,,,,,,23_PP,26,M,23,2021_Nov_05_1528,Partial repeat,2021.2.3,120.09575164583228,
6,8,0,1,1,2,2,3,3,1,0,1,1,0,0,0,0,26,26,26,,,,,,,,,,,,,,,,,,,,,,,,,,,,,,,,23_PP,26,M,23,2021_Nov_05_1528,Partial repeat,2021.2.3,120.09575164583228,
3,2,0,1,1,3,3,2,2,0,1,1,1,0,0,0,0,27,27,27,0,0,0,0,,,,,,,582.289917467544,None,0.7107264092462552,583.0892414672526,None,"[93. 93. 93. 87. 87. 93. 87. 93. 93. 93. 93. 87. 87. 87. 87. 93. 93. 87.
 93. 93. 93. 87. 93. 87. 93. 93. 93. 87. 93. 93. 87. 87. 93. 93.]",583.8802458334503,None,s,1,0.6687649560335558,583.8802458334503,None,None,None,,,,,,,23_PP,26,M,23,2021_Nov_05_1528,Partial repeat,2021.2.3,120.09575164583228,
3,2,0,1,1,3,3,2,2,0,1,1,1,0,0,0,0,27,27,27,1,0,1,0,,,,,,,,,0.8229644804809713,584.6212727458151,None,"[93. 87. 93. 93. 93. 93. 93. 93. 93. 87. 93. 93. 87. 93. 87. 93. 87. 87.
 93. 93. 87. 87. 93. 87. 93. 87. 87. 93. 93. 87. 93. 93. 87. 87.]",585.5205118846861,None,l,1,0.9166198625971447,585.5205118846861,None,None,None,,,,,,,23_PP,26,M,23,2021_Nov_05_1528,Partial repeat,2021.2.3,120.09575164583228,
3,2,0,1,1,3,3,2,2,0,1,1,1,0,0,0,0,27,27,27,,,,,,,,,,,,,,,,,,,,,,,,,,,,,,,,23_PP,26,M,23,2021_Nov_05_1528,Partial repeat,2021.2.3,120.09575164583228,
5,2,0,1,1,2,2,2,3,1,0,1,0,0,0,0,0,28,28,28,0,0,0,0,,,,,,,586.4697076309967,None,0.7538748724127404,587.2939783441288,None,"[93. 93. 93. 87. 93. 87. 87. 93. 93. 87. 93. 93. 93. 93. 87. 93. 87. 93.
 93. 87. 93. 87. 87. 87. 87. 93. 93. 87. 87. 87. 87. 93. 87. 87.]",588.126616477115,None,l,1,0.6625043043277401,588.126616477115,None,None,None,,,,,,,23_PP,26,M,23,2021_Nov_05_1528,Partial repeat,2021.2.3,120.09575164583228,
5,2,0,1,1,2,2,2,3,1,0,1,0,0,0,0,0,28,28,28,1,0,1,0,,,,,,,,,0.7972458630602917,588.8426408718806,None,"[93. 93. 87. 87. 93. 93. 93. 93. 87. 93. 87. 93. 93. 93. 87. 93. 87. 87.
 87. 87. 87. 87. 87. 87. 93. 87. 87. 87. 93. 87. 93. 87. 93. 87.]",589.7169281659117,None,s,1,0.6881761513795936,589.7169281659117,None,None,None,,,,,,,23_PP,26,M,23,2021_Nov_05_1528,Partial repeat,2021.2.3,120.09575164583228,
5,2,0,1,1,2,2,2,3,1,0,1,0,0,0,0,0,28,28,28,,,,,,,,,,,,,,,,,,,,,,,,,,,,,,,,23_PP,26,M,23,2021_Nov_05_1528,Partial repeat,2021.2.3,120.09575164583228,
6,2,0,1,1,3,3,2,2,1,0,1,1,0,0,0,0,29,29,29,0,0,0,0,,,,,,,590.4246361342994,None,0.967173726391223,591.7401776625484,None,"[93. 87. 87. 87. 93. 93. 87. 87. 93. 87. 87. 87. 87. 87. 93. 93. 87. 87.
 87. 87. 87. 87. 93. 87. 93. 87. 93. 87. 93. 87. 87. 87. 93. 93.]",592.7892940001548,None,l,1,0.6709480540375807,592.7892940001548,None,None,None,,,,,,,23_PP,26,M,23,2021_Nov_05_1528,Partial repeat,2021.2.3,120.09575164583228,
6,2,0,1,1,3,3,2,2,1,0,1,1,0,0,0,0,29,29,29,1,0,1,0,,,,,,,,,0.9607127134127015,593.5219922990254,None,"[93. 93. 87. 87. 87. 93. 87. 93. 93. 93. 93. 87. 93. 87. 87. 87. 93. 93.
 93. 93. 93. 93. 93. 87. 87. 93. 87. 87. 93. 87. 93. 93. 87. 87.]",594.5627700810073,None,s,1,0.8974123204352509,594.5627700810073,None,None,None,,,,,,,23_PP,26,M,23,2021_Nov_05_1528,Partial repeat,2021.2.3,120.09575164583228,
6,2,0,1,1,3,3,2,2,1,0,1,1,0,0,0,0,29,29,29,,,,,,,,,,,,,,,,,,,,,,,,,,,,,,,,23_PP,26,M,23,2021_Nov_05_1528,Partial repeat,2021.2.3,120.09575164583228,
4,5,0,1,1,3,2,2,2,1,1,0,1,1,0,0,0,30,30,30,0,0,0,0,,,,,,,595.4703262876828,None,0.7680458971252414,596.1613860090583,None,"[87. 87. 93. 87. 93. 93. 87. 93. 93. 87. 87. 87. 93. 87. 93. 87. 93. 93.
 93. 93. 93. 87. 87. 87. 87. 93. 93. 87. 87. 87. 87. 93. 87. 87.]",597.0106842554596,None,l,1,0.7375404006525059,597.0106842554596,None,None,None,,,,,,,23_PP,26,M,23,2021_Nov_05_1528,Partial repeat,2021.2.3,120.09575164583228,
4,5,0,1,1,3,2,2,2,1,1,0,1,1,0,0,0,30,30,30,1,0,1,0,,,,,,,,,0.718422910910908,597.8099970301919,None,"[87. 93. 93. 87. 93. 93. 93. 93. 93. 87. 93. 93. 87. 87. 87. 87. 87. 87.
 93. 93. 93. 93. 93. 93. 87. 93. 93. 93. 87. 87. 87. 87. 87. 87.]",598.6093171813372,None,l,1,0.706984084292344,598.6093171813372,None,None,None,,,,,,,23_PP,26,M,23,2021_Nov_05_1528,Partial repeat,2021.2.3,120.09575164583228,
4,5,0,1,1,3,2,2,2,1,1,0,1,1,0,0,0,30,30,30,,,,,,,,,,,,,,,,,,,,,,,,,,,,,,,,23_PP,26,M,23,2021_Nov_05_1528,Partial repeat,2021.2.3,120.09575164583228,
1,7,0,1,1,3,3,2,3,1,1,1,0,1,0,0,0,31,31,31,0,0,0,0,,,,,,,599.3336868667102,None,0.7052720994754907,600.14132665137,None,"[93. 93. 87. 93. 87. 87. 87. 87. 93. 93. 87. 93. 93. 93. 93. 87. 87. 93.
 87. 93. 93. 87. 93. 87. 87. 87. 93. 87. 93. 93. 93. 87. 93. 93.]",600.9239911790937,None,l,1,0.6162856148039282,600.9239911790937,None,None,None,,,,,,,23_PP,26,M,23,2021_Nov_05_1528,Partial repeat,2021.2.3,120.09575164583228,
1,7,0,1,1,3,3,2,3,1,1,1,0,1,0,0,0,31,31,31,1,0,1,0,,,,,,,,,0.9576199701574464,601.5984116334403,None,"[93. 87. 93. 87. 93. 87. 87. 87. 93. 87. 87. 87. 87. 87. 93. 93. 93. 93.
 87. 87. 93. 93. 87. 93. 93. 93. 87. 87. 93. 87. 87. 93. 93. 87.]",602.630877799751,None,l,1,0.6694275504887628,602.630877799751,None,None,None,,,,,,,23_PP,26,M,23,2021_Nov_05_1528,Partial repeat,2021.2.3,120.09575164583228,
1,7,0,1,1,3,3,2,3,1,1,1,0,1,0,0,0,31,31,31,,,,,,,,,,,,,,,,,,,,,,,,,,,,,,,,23_PP,26,M,23,2021_Nov_05_1528,Partial repeat,2021.2.3,120.09575164583228,
1,2,0,1,1,2,2,3,2,1,0,1,0,0,0,0,0,32,32,32,0,0,0,0,,,,,,,603.3219426525466,None,0.77555096245667,604.3294095083911,None,"[93. 93. 87. 87. 93. 93. 87. 93. 87. 93. 93. 87. 93. 93. 87. 93. 87. 93.
 87. 87. 87. 87. 93. 93. 93. 87. 93. 93. 93. 93. 93. 87. 93. 87.]",605.187017766897,None,l,1,0.6253390412130102,605.187017766897,None,None,None,,,,,,,23_PP,26,M,23,2021_Nov_05_1528,Partial repeat,2021.2.3,120.09575164583228,
1,2,0,1,1,2,2,3,2,1,0,1,0,0,0,0,0,32,32,32,1,0,1,0,,,,,,,,,0.9285789044386398,605.8697636276047,None,"[93. 93. 87. 93. 93. 87. 87. 87. 93. 93. 87. 93. 87. 93. 93. 93. 87. 93.
 87. 87. 87. 93. 93. 87. 87. 87. 93. 87. 87. 87. 87. 87. 93. 93.]",606.8772391427192,None,s,1,0.7902958763588686,606.8772391427192,None,None,None,,,,,,,23_PP,26,M,23,2021_Nov_05_1528,Partial repeat,2021.2.3,120.09575164583228,
1,2,0,1,1,2,2,3,2,1,0,1,0,0,0,0,0,32,32,32,,,,,,,,,,,,,,,,,,,,,,,,,,,,,,,,23_PP,26,M,23,2021_Nov_05_1528,Partial repeat,2021.2.3,120.09575164583228,
8,2,0,1,1,3,3,2,2,0,0,1,1,1,0,0,0,33,33,33,0,0,0,0,,,,,,,607.6848798895226,None,0.7691444313435689,608.3093328321665,None,"[87. 93. 87. 93. 93. 93. 93. 93. 87. 93. 93. 87. 87. 93. 87. 87. 93. 87.
 87. 93. 93. 87. 87. 87. 93. 87. 93. 93. 87. 93. 93. 87. 93. 87.]",609.1586249850079,None,s,1,0.9728130682124174,609.1586249850079,None,None,None,,,,,,,23_PP,26,M,23,2021_Nov_05_1528,Partial repeat,2021.2.3,120.09575164583228,
8,2,0,1,1,3,3,2,2,0,0,1,1,1,0,0,0,33,33,33,1,0,1,0,,,,,,,,,0.7039222586973782,610.1827218071849,None,"[93. 87. 87. 87. 87. 93. 93. 87. 87. 93. 93. 93. 93. 87. 93. 93. 87. 93.
 93. 93. 87. 93. 93. 87. 93. 87. 87. 93. 93. 93. 93. 93. 93. 93.]",610.9653943527446,None,s,1,0.9103813401416119,610.9653943527446,None,None,None,,,,,,,23_PP,26,M,23,2021_Nov_05_1528,Partial repeat,2021.2.3,120.09575164583228,
8,2,0,1,1,3,3,2,2,0,0,1,1,1,0,0,0,33,33,33,,,,,,,,,,,,,,,,,,,,,,,,,,,,,,,,23_PP,26,M,23,2021_Nov_05_1528,Partial repeat,2021.2.3,120.09575164583228,
8,6,0,1,1,2,2,3,2,0,1,1,0,0,0,0,0,34,34,34,0,0,0,0,,,,,,,611.8896113142655,None,0.797372229681236,613.7213716539154,None,"[87. 87. 93. 93. 87. 93. 87. 87. 93. 87. 87. 87. 87. 87. 87. 93. 87. 87.
 87. 87. 87. 87. 93. 93. 93. 87. 93. 87. 93. 87. 87. 87. 87. 93.]",614.5956377808434,None,s,1,0.7998643689315941,614.5956377808434,None,None,None,,,,,,,23_PP,26,M,23,2021_Nov_05_1528,Partial repeat,2021.2.3,120.09575164583228,
8,6,0,1,1,2,2,3,2,0,1,1,0,0,0,0,0,34,34,34,1,0,1,0,,,,,,,,,0.7978294457463695,615.4532450772058,None,"[93. 87. 87. 87. 87. 87. 93. 87. 93. 87. 93. 87. 87. 93. 87. 93. 93. 87.
 87. 87. 93. 87. 93. 93. 87. 87. 87. 87. 93. 93. 93. 87. 87. 87.]",616.3274788120507,None,l,1,0.7800907671335153,616.3274788120507,None,None,None,,,,,,,23_PP,26,M,23,2021_Nov_05_1528,Partial repeat,2021.2.3,120.09575164583228,
8,6,0,1,1,2,2,3,2,0,1,1,0,0,0,0,0,34,34,34,,,,,,,,,,,,,,,,,,,,,,,,,,,,,,,,23_PP,26,M,23,2021_Nov_05_1528,Partial repeat,2021.2.3,120.09575164583228,
4,7,0,1,1,2,3,2,3,0,0,0,0,1,0,0,0,35,35,35,0,0,0,0,,,,,,,617.1268024910496,None,0.7244706192185292,618.3757289020105,None,"[93. 87. 93. 87. 93. 93. 87. 87. 87. 93. 93. 93. 93. 93. 87. 93. 93. 93.
 87. 93. 87. 87. 87. 87. 87. 93. 93. 93. 93. 93. 87. 87. 87. 93.]",619.1750638059857,None,s,1,0.8285146839079971,619.1750638059857,None,None,None,,,,,,,23_PP,26,M,23,2021_Nov_05_1528,Partial repeat,2021.2.3,120.09575164583228,
4,7,0,1,1,2,3,2,3,0,0,0,0,1,0,0,0,35,35,35,1,0,1,0,,,,,,,,,0.8534940123111159,620.0659701620825,None,"[87. 93. 93. 93. 87. 87. 93. 93. 93. 87. 93. 87. 87. 87. 93. 87. 93. 93.
 93. 87. 93. 87. 93. 93. 93. 87. 87. 87. 87. 87. 87. 87. 93. 93.]",620.9984814207382,None,s,1,0.8291169841904775,620.9984814207382,None,None,None,,,,,,,23_PP,26,M,23,2021_Nov_05_1528,Partial repeat,2021.2.3,120.09575164583228,
4,7,0,1,1,2,3,2,3,0,0,0,0,1,0,0,0,35,35,35,,,,,,,,,,,,,,,,,,,,,,,,,,,,,,,,23_PP,26,M,23,2021_Nov_05_1528,Partial repeat,2021.2.3,120.09575164583228,
8,3,0,1,1,3,3,3,2,1,0,1,0,0,0,0,0,36,36,36,0,0,0,0,,,,,,,621.8560883963873,None,0.8085411851873641,622.3973318546305,None,"[93. 93. 87. 93. 93. 87. 93. 93. 87. 93. 87. 87. 93. 93. 87. 87. 87. 93.
 93. 93. 87. 87. 87. 93. 87. 87. 93. 87. 87. 93. 87. 87. 87. 87.]",623.288199404371,None,l,1,0.7945604061314953,623.288199404371,None,None,None,,,,,,,23_PP,26,M,23,2021_Nov_05_1528,Partial repeat,2021.2.3,120.09575164583228,
8,3,0,1,1,3,3,3,2,1,0,1,0,0,0,0,0,36,36,36,1,0,1,0,,,,,,,,,0.8875346243714038,624.1457935514736,None,"[93. 93. 93. 87. 93. 93. 93. 87. 87. 93. 87. 87. 87. 93. 93. 87. 87. 87.
 87. 87. 93. 93. 87. 93. 87. 93. 93. 87. 93. 87. 93. 93. 93. 87.]",625.1116391483665,None,s,1,0.7790737840587099,625.1116391483665,None,None,None,,,,,,,23_PP,26,M,23,2021_Nov_05_1528,Partial repeat,2021.2.3,120.09575164583228,
8,3,0,1,1,3,3,3,2,1,0,1,0,0,0,0,0,36,36,36,,,,,,,,,,,,,,,,,,,,,,,,,,,,,,,,23_PP,26,M,23,2021_Nov_05_1528,Partial repeat,2021.2.3,120.09575164583228,
5,6,0,1,1,2,3,3,3,0,1,0,1,0,0,0,0,37,37,37,0,0,0,0,,,,,,,625.9109609030784,None,0.9935631132364713,626.4271595095161,None,"[93. 93. 87. 93. 93. 93. 93. 87. 93. 93. 87. 87. 87. 87. 93. 93. 87. 87.
 87. 93. 93. 87. 87. 87. 87. 87. 87. 87. 93. 93. 87. 93. 93. 93.]",627.5012719504484,None,s,1,0.8214352501854592,627.5012719504484,None,None,None,,,,,,,23_PP,26,M,23,2021_Nov_05_1528,Partial repeat,2021.2.3,120.09575164583228,
5,6,0,1,1,2,3,3,3,0,1,0,1,0,0,0,0,37,37,37,1,0,1,0,,,,,,,,,0.747635549671227,628.3838233945244,None,"[87. 93. 87. 87. 93. 93. 87. 87. 93. 87. 93. 93. 93. 93. 87. 93. 87. 93.
 93. 93. 93. 93. 93. 87. 87. 87. 87. 87. 93. 93. 87. 93. 93. 93.]",629.2081325932995,None,l,1,0.7311614056052349,629.2081325932995,None,None,None,,,,,,,23_PP,26,M,23,2021_Nov_05_1528,Partial repeat,2021.2.3,120.09575164583228,
5,6,0,1,1,2,3,3,3,0,1,0,1,0,0,0,0,37,37,37,,,,,,,,,,,,,,,,,,,,,,,,,,,,,,,,23_PP,26,M,23,2021_Nov_05_1528,Partial repeat,2021.2.3,120.09575164583228,
7,8,0,1,1,2,2,2,3,1,1,1,0,1,0,0,0,38,38,38,0,0,0,0,,,,,,,629.9491700892177,None,0.8448149443384192,630.6402288484533,None,"[87. 93. 87. 87. 93. 93. 93. 87. 87. 93. 93. 87. 93. 87. 87. 93. 93. 87.
 93. 93. 87. 87. 93. 93. 93. 93. 87. 93. 93. 93. 87. 87. 93. 87.]",631.5644955205935,None,l,1,1.15830006872784,631.5644955205935,None,None,None,,,,,,,23_PP,26,M,23,2021_Nov_05_1528,Partial repeat,2021.2.3,120.09575164583228,
7,8,0,1,1,2,2,2,3,1,1,1,0,1,0,0,0,38,38,38,1,0,1,0,,,,,,,,,0.7427999447626052,632.7800863104676,None,"[93. 87. 93. 93. 93. 93. 93. 93. 93. 87. 93. 93. 87. 93. 93. 93. 87. 87.
 87. 87. 93. 87. 87. 87. 93. 93. 93. 93. 93. 87. 87. 87. 87. 87.]",633.6043842842628,None,l,1,0.8314132941268326,633.6043842842628,None,None,None,,,,,,,23_PP,26,M,23,2021_Nov_05_1528,Partial repeat,2021.2.3,120.09575164583228,
7,8,0,1,1,2,2,2,3,1,1,1,0,1,0,0,0,38,38,38,,,,,,,,,,,,,,,,,,,,,,,,,,,,,,,,23_PP,26,M,23,2021_Nov_05_1528,Partial repeat,2021.2.3,120.09575164583228,
1,5,0,1,1,3,3,3,3,0,1,1,1,0,0,0,0,39,39,39,0,0,0,0,,,,,,,634.4453244115066,None,0.9206551486386103,635.0281621887552,None,"[93. 93. 87. 87. 87. 87. 93. 93. 93. 87. 87. 87. 93. 93. 87. 87. 93. 87.
 93. 87. 87. 87. 87. 93. 93. 93. 87. 87. 87. 93. 87. 87. 87. 87.]",636.0272991482489,None,s,1,1.6078271122678416,636.0272991482489,None,None,None,,,,,,,23_PP,26,M,23,2021_Nov_05_1528,Partial repeat,2021.2.3,120.09575164583228,
1,5,0,1,1,3,3,3,3,0,1,1,1,0,0,0,0,39,39,39,1,0,1,0,,,,,,,,,0.7133384670336063,637.7008565620927,None,"[93. 93. 93. 93. 87. 93. 87. 93. 93. 87. 93. 87. 87. 87. 87. 93. 93. 93.
 93. 93. 87. 87. 93. 93. 93. 87. 93. 93. 93. 87. 87. 93. 87. 93.]",638.4918667011334,None,l,1,0.918122085462528,638.4918667011334,None,None,None,,,,,,,23_PP,26,M,23,2021_Nov_05_1528,Partial repeat,2021.2.3,120.09575164583228,
1,5,0,1,1,3,3,3,3,0,1,1,1,0,0,0,0,39,39,39,,,,,,,,,,,,,,,,,,,,,,,,,,,,,,,,23_PP,26,M,23,2021_Nov_05_1528,Partial repeat,2021.2.3,120.09575164583228,
2,1,0,1,1,2,2,2,2,0,1,1,1,0,0,0,0,40,40,40,0,0,0,0,,,,,,,639.4410553917442,None,0.7816524135266983,641.547592626921,None,"[87. 93. 93. 87. 87. 87. 87. 93. 87. 87. 93. 87. 87. 93. 87. 87. 93. 87.
 93. 93. 87. 87. 87. 87. 87. 87. 87. 87. 87. 93. 93. 93. 87. 87.]",642.4051806804673,None,s,1,1.0687523199121642,642.4051806804673,None,None,None,,,,,,,23_PP,26,M,23,2021_Nov_05_1528,Partial repeat,2021.2.3,120.09575164583228,
2,1,0,1,1,2,2,2,2,0,1,1,1,0,0,0,0,40,40,40,1,0,1,0,,,,,,,,,0.7633221586511718,643.5208768568518,None,"[87. 93. 87. 87. 93. 93. 87. 87. 93. 93. 87. 87. 87. 87. 93. 87. 93. 87.
 87. 87. 93. 87. 93. 87. 93. 87. 87. 93. 87. 87. 93. 87. 93. 87.]",644.3618333404957,None,l,1,1.0481461454037344,644.3618333404957,None,None,None,,,,,,,23_PP,26,M,23,2021_Nov_05_1528,Partial repeat,2021.2.3,120.09575164583228,
2,1,0,1,1,2,2,2,2,0,1,1,1,0,0,0,0,40,40,40,,,,,,,,,,,,,,,,,,,,,,,,,,,,,,,,23_PP,26,M,23,2021_Nov_05_1528,Partial repeat,2021.2.3,120.09575164583228,
7,4,0,1,1,2,3,2,2,1,0,0,1,0,0,0,0,41,41,41,0,0,0,0,,,,,,,645.4275953594006,None,0.7106891242783928,646.052055357748,None,"[93. 93. 93. 87. 93. 87. 87. 93. 87. 87. 87. 87. 87. 93. 93. 93. 87. 87.
 93. 93. 93. 87. 87. 87. 93. 93. 93. 93. 93. 93. 87. 93. 87. 87.]",646.8430632517957,None,l,1,0.8389147870475426,646.8430632517957,None,None,None,,,,,,,23_PP,26,M,23,2021_Nov_05_1528,Partial repeat,2021.2.3,120.09575164583228,
7,4,0,1,1,2,3,2,2,1,0,0,1,0,0,0,0,41,41,41,1,0,1,0,,,,,,,,,0.8868771947105843,647.7339497236426,None,"[87. 93. 87. 93. 93. 93. 87. 87. 93. 93. 87. 93. 87. 93. 93. 93. 93. 87.
 93. 87. 87. 87. 87. 87. 93. 93. 93. 87. 87. 87. 93. 87. 93. 87.]",648.6998145633515,None,s,1,0.9664834630711994,648.6998145633515,None,None,None,,,,,,,23_PP,26,M,23,2021_Nov_05_1528,Partial repeat,2021.2.3,120.09575164583228,
7,4,0,1,1,2,3,2,2,1,0,0,1,0,0,0,0,41,41,41,,,,,,,,,,,,,,,,,,,,,,,,,,,,,,,,23_PP,26,M,23,2021_Nov_05_1528,Partial repeat,2021.2.3,120.09575164583228,
3,4,0,1,1,3,2,3,3,0,0,0,1,1,0,0,0,42,42,42,0,0,0,0,,,,,,,649.6906161743609,None,0.701900282868832,650.4399668895203,None,"[87. 93. 93. 93. 93. 93. 87. 87. 87. 93. 87. 87. 87. 87. 93. 87. 93. 87.
 87. 93. 87. 87. 93. 93. 93. 87. 87. 93. 87. 87. 93. 93. 93. 87.]",651.2226403972236,None,s,1,1.0194464405249164,651.2226403972236,None,None,None,,,,,,,23_PP,26,M,23,2021_Nov_05_1528,Partial repeat,2021.2.3,120.09575164583228,
3,4,0,1,1,3,2,3,3,0,0,0,1,1,0,0,0,42,42,42,1,0,1,0,,,,,,,,,0.7434810414966716,652.3050371931677,None,"[93. 93. 87. 87. 93. 87. 93. 87. 87. 87. 93. 93. 93. 93. 87. 87. 87. 87.
 87. 93. 93. 93. 93. 87. 87. 87. 87. 87. 87. 93. 93. 93. 93. 87.]",653.1293495990758,None,s,1,0.7127768147402094,653.1293495990758,None,None,None,,,,,,,23_PP,26,M,23,2021_Nov_05_1528,Partial repeat,2021.2.3,120.09575164583228,
3,4,0,1,1,3,2,3,3,0,0,0,1,1,0,0,0,42,42,42,,,,,,,,,,,,,,,,,,,,,,,,,,,,,,,,23_PP,26,M,23,2021_Nov_05_1528,Partial repeat,2021.2.3,120.09575164583228,
8,4,0,1,1,3,2,2,3,1,1,0,0,1,0,0,0,43,43,43,0,0,0,0,,,,,,,653.8620427665301,None,0.8450025357685385,654.4698750435382,None,"[93. 93. 93. 93. 87. 87. 93. 87. 93. 93. 87. 87. 93. 87. 87. 93. 87. 87.
 87. 87. 87. 93. 93. 93. 93. 93. 87. 93. 93. 93. 93. 87. 87. 87.]",655.3940660272492,None,l,1,0.7671140503043716,655.3940660272492,None,None,None,,,,,,,23_PP,26,M,23,2021_Nov_05_1528,Partial repeat,2021.2.3,120.09575164583228,
8,4,0,1,1,3,2,2,3,1,1,0,0,1,0,0,0,43,43,43,1,0,1,0,,,,,,,,,0.942376462002031,656.2183649631879,None,"[87. 87. 93. 87. 87. 87. 93. 87. 93. 87. 87. 87. 87. 87. 93. 93. 93. 87.
 93. 93. 93. 93. 87. 93. 87. 87. 93. 87. 93. 87. 87. 87. 87. 87.]",657.2424928945911,None,l,1,0.69469241187835,657.2424928945911,None,None,None,,,,,,,23_PP,26,M,23,2021_Nov_05_1528,Partial repeat,2021.2.3,120.09575164583228,
8,4,0,1,1,3,2,2,3,1,1,0,0,1,0,0,0,43,43,43,,,,,,,,,,,,,,,,,,,,,,,,,,,,,,,,23_PP,26,M,23,2021_Nov_05_1528,Partial repeat,2021.2.3,120.09575164583228,
6,3,0,1,1,3,3,3,2,0,0,1,0,1,0,0,0,44,44,44,0,0,0,0,,,,,,,657.9668709185171,None,0.9635292784069596,658.4997318833666,None,"[87. 93. 93. 87. 87. 93. 87. 93. 93. 93. 87. 87. 87. 87. 93. 87. 93. 87.
 87. 87. 93. 87. 93. 93. 87. 93. 93. 93. 93. 93. 87. 93. 93. 93.]",659.5405257010316,None,s,1,0.748690653086669,659.5405257010316,None,None,None,,,,,,,23_PP,26,M,23,2021_Nov_05_1528,Partial repeat,2021.2.3,120.09575164583228,
6,3,0,1,1,3,3,3,2,0,0,1,0,1,0,0,0,44,44,44,1,0,1,0,,,,,,,,,0.8884265092743255,660.3398275715008,None,"[87. 93. 87. 87. 87. 93. 93. 87. 87. 93. 87. 87. 87. 93. 87. 87. 87. 93.
 93. 87. 87. 87. 93. 93. 93. 87. 93. 93. 93. 87. 93. 93. 87. 87.]",661.30567926195,None,s,1,0.8235965396561369,661.30567926195,None,None,None,,,,,,,23_PP,26,M,23,2021_Nov_05_1528,Partial repeat,2021.2.3,120.09575164583228,
6,3,0,1,1,3,3,3,2,0,0,1,0,1,0,0,0,44,44,44,,,,,,,,,,,,,,,,,,,,,,,,,,,,,,,,23_PP,26,M,23,2021_Nov_05_1528,Partial repeat,2021.2.3,120.09575164583228,
6,6,0,1,1,2,2,3,3,1,1,1,1,1,0,0,0,45,45,45,0,0,0,0,,,,,,,662.1466254827537,None,0.7564425517381319,664.5362361555926,None,"[87. 87. 87. 93. 93. 87. 87. 93. 87. 87. 87. 93. 93. 93. 93. 87. 87. 87.
 93. 87. 87. 93. 87. 87. 93. 93. 87. 87. 87. 87. 87. 93. 87. 87.]",665.3688787785686,None,l,1,0.8244361680663133,665.3688787785686,None,None,None,,,,,,,23_PP,26,M,23,2021_Nov_05_1528,Partial repeat,2021.2.3,120.09575164583228,
6,6,0,1,1,2,2,3,3,1,1,1,1,1,0,0,0,45,45,45,1,0,1,0,,,,,,,,,0.8718686873365422,666.2431336805166,None,"[87. 93. 93. 93. 93. 93. 87. 93. 93. 93. 93. 87. 93. 93. 93. 93. 87. 93.
 93. 93. 87. 87. 87. 93. 87. 93. 93. 87. 87. 93. 87. 93. 87. 87.]",667.1922989590275,None,l,1,1.0490399744267052,667.1922989590275,None,None,None,,,,,,,23_PP,26,M,23,2021_Nov_05_1528,Partial repeat,2021.2.3,120.09575164583228,
6,6,0,1,1,2,2,3,3,1,1,1,1,1,0,0,0,45,45,45,,,,,,,,,,,,,,,,,,,,,,,,,,,,,,,,23_PP,26,M,23,2021_Nov_05_1528,Partial repeat,2021.2.3,120.09575164583228,
5,7,0,1,1,2,2,2,2,1,0,1,1,0,0,0,0,46,46,46,0,0,0,0,,,,,,,668.2581033121387,None,0.747985402747139,675.7016977940693,None,"[93. 93. 87. 93. 87. 93. 87. 93. 87. 93. 87. 93. 93. 87. 87. 87. 93. 93.
 93. 87. 87. 93. 87. 93. 93. 87. 87. 93. 87. 87. 93. 93. 93. 93.]",676.5343327199153,None,l,1,0.6340258918862673,676.5343327199153,None,None,None,,,,,,,23_PP,26,M,23,2021_Nov_05_1528,Partial repeat,2021.2.3,120.09575164583228,
5,7,0,1,1,2,2,2,2,1,0,1,1,0,0,0,0,46,46,46,1,0,1,0,,,,,,,,,0.7630989383960791,677.2337293933451,None,"[93. 93. 93. 87. 93. 87. 93. 87. 93. 93. 93. 93. 87. 93. 87. 87. 87. 93.
 87. 93. 93. 93. 87. 87. 87. 87. 87. 93. 87. 93. 93. 87. 93. 87.]",678.0746720863026,None,s,1,0.7739099731370516,678.0746720863026,None,None,None,,,,,,,23_PP,26,M,23,2021_Nov_05_1528,Partial repeat,2021.2.3,120.09575164583228,
5,7,0,1,1,2,2,2,2,1,0,1,1,0,0,0,0,46,46,46,,,,,,,,,,,,,,,,,,,,,,,,,,,,,,,,23_PP,26,M,23,2021_Nov_05_1528,Partial repeat,2021.2.3,120.09575164583228,
8,5,0,1,1,2,3,2,2,0,1,0,1,0,0,0,0,47,47,47,0,0,0,0,,,,,,,678.8739842196046,None,0.7132345563995534,679.8481510535785,None,"[93. 87. 87. 93. 87. 87. 93. 93. 93. 93. 93. 87. 93. 93. 87. 93. 93. 87.
 93. 87. 87. 93. 87. 93. 93. 87. 87. 93. 87. 93. 93. 93. 87. 93.]",680.6391432326527,None,s,1,0.7693952866939071,680.6391432326527,None,None,None,,,,,,,23_PP,26,M,23,2021_Nov_05_1528,Partial repeat,2021.2.3,120.09575164583228,
8,5,0,1,1,2,3,2,2,0,1,0,1,0,0,0,0,47,47,47,1,0,1,0,,,,,,,,,0.8166378799097,681.4717550671157,None,"[93. 93. 87. 93. 87. 87. 87. 93. 87. 93. 93. 87. 93. 93. 93. 93. 93. 87.
 87. 87. 93. 87. 93. 93. 93. 93. 93. 93. 93. 93. 87. 87. 93. 93.]",682.3626639889226,None,l,1,1.2059315020014765,682.3626639889226,None,None,None,,,,,,,23_PP,26,M,23,2021_Nov_05_1528,Partial repeat,2021.2.3,120.09575164583228,
8,5,0,1,1,2,3,2,2,0,1,0,1,0,0,0,0,47,47,47,,,,,,,,,,,,,,,,,,,,,,,,,,,,,,,,23_PP,26,M,23,2021_Nov_05_1528,Partial repeat,2021.2.3,120.09575164583228,
7,2,0,1,1,3,3,2,3,0,1,1,0,0,0,0,0,48,48,48,0,0,0,0,,,,,,,683.5866109736671,None,0.8000026658307947,684.17778923082,None,"[93. 93. 87. 87. 93. 93. 87. 93. 93. 87. 87. 93. 87. 87. 93. 87. 93. 87.
 87. 87. 93. 93. 87. 87. 93. 93. 87. 93. 93. 87. 87. 93. 87. 87.]",685.0520447741947,None,s,1,1.267682675654214,685.0520447741947,None,None,None,,,,,,,23_PP,26,M,23,2021_Nov_05_1528,Partial repeat,2021.2.3,120.09575164583228,
7,2,0,1,1,3,3,2,3,0,1,1,0,0,0,0,0,48,48,48,1,0,1,0,,,,,,,,,0.7514524451729154,686.3842088923666,None,"[93. 93. 87. 87. 87. 87. 87. 87. 87. 93. 93. 93. 87. 93. 87. 93. 87. 87.
 87. 93. 87. 87. 93. 87. 87. 87. 87. 93. 93. 87. 87. 87. 87. 87.]",687.2251759595601,None,l,1,0.6785124068373989,687.2251759595601,None,None,None,,,,,,,23_PP,26,M,23,2021_Nov_05_1528,Partial repeat,2021.2.3,120.09575164583228,
7,2,0,1,1,3,3,2,3,0,1,1,0,0,0,0,0,48,48,48,,,,,,,,,,,,,,,,,,,,,,,,,,,,,,,,23_PP,26,M,23,2021_Nov_05_1528,Partial repeat,2021.2.3,120.09575164583228,
4,4,0,1,1,2,3,3,2,1,1,0,0,1,0,0,0,49,49,49,0,0,0,0,,,,,,,687.9245681429966,None,0.9322659380187459,688.5823605552978,None,"[87. 87. 93. 87. 93. 93. 87. 87. 93. 87. 93. 93. 87. 93. 93. 87. 87. 87.
 93. 87. 93. 87. 87. 93. 93. 93. 87. 87. 93. 87. 87. 87. 87. 87.]",689.59815602464,None,l,1,0.5775360261177411,689.59815602464,None,None,None,,,,,,,23_PP,26,M,23,2021_Nov_05_1528,Partial repeat,2021.2.3,120.09575164583228,
4,4,0,1,1,2,3,3,2,1,1,0,0,1,0,0,0,49,49,49,1,0,1,0,,,,,,,,,0.7078548010821669,690.2392588178627,None,"[87. 87. 93. 87. 87. 93. 93. 87. 87. 93. 87. 87. 87. 87. 87. 87. 87. 87.
 87. 93. 93. 87. 93. 87. 87. 93. 87. 87. 93. 93. 87. 87. 87. 93.]",691.0302590147803,None,l,1,0.6494644069061906,691.0302590147803,None,None,None,,,,,,,23_PP,26,M,23,2021_Nov_05_1528,Partial repeat,2021.2.3,120.09575164583228,
4,4,0,1,1,2,3,3,2,1,1,0,0,1,0,0,0,49,49,49,,,,,,,,,,,,,,,,,,,,,,,,,,,,,,,,23_PP,26,M,23,2021_Nov_05_1528,Partial repeat,2021.2.3,120.09575164583228,
2,5,0,1,1,2,3,2,2,1,1,0,1,1,0,0,0,50,50,50,0,0,0,0,,,,,,,691.7046621505906,None,0.8441266998211424,692.5123009731105,None,"[87. 87. 93. 87. 93. 93. 87. 87. 87. 93. 87. 87. 87. 87. 87. 93. 87. 93.
 93. 87. 87. 87. 93. 87. 93. 87. 93. 87. 87. 93. 87. 93. 93. 93.]",693.4448484724089,None,l,1,0.5559664277207048,693.4448484724089,None,None,None,,,,,,,23_PP,26,M,23,2021_Nov_05_1528,Partial repeat,2021.2.3,120.09575164583228,
2,5,0,1,1,2,3,2,2,1,1,0,1,1,0,0,0,50,50,50,1,0,1,0,,,,,,,,,0.9751000964032712,694.0526573373209,None,"[93. 87. 93. 93. 87. 87. 93. 93. 93. 93. 93. 93. 93. 93. 87. 87. 93. 93.
 93. 93. 87. 93. 87. 93. 87. 87. 87. 87. 87. 93. 87. 93. 87. 87.]",695.1100862527383,None,l,1,0.7617020069919818,695.1100862527383,None,None,None,,,,,,,23_PP,26,M,23,2021_Nov_05_1528,Partial repeat,2021.2.3,120.09575164583228,
2,5,0,1,1,2,3,2,2,1,1,0,1,1,0,0,0,50,50,50,,,,,,,,,,,,,,,,,,,,,,,,,,,,,,,,23_PP,26,M,23,2021_Nov_05_1528,Partial repeat,2021.2.3,120.09575164583228,
7,1,0,1,1,3,2,2,3,0,0,0,0,1,0,0,0,51,51,51,0,0,0,0,,,,,,,695.8844446169169,None,0.969099010860788,696.6337850692398,None,"[87. 87. 93. 87. 93. 93. 87. 93. 93. 93. 93. 87. 87. 87. 87. 93. 87. 93.
 87. 93. 93. 93. 93. 87. 87. 93. 93. 93. 87. 87. 87. 93. 93. 87.]",697.6912223232139,None,s,1,15.267839504645963,697.6912223232139,None,None,None,,,,,,,23_PP,26,M,23,2021_Nov_05_1528,Partial repeat,2021.2.3,120.09575164583228,
7,1,0,1,1,3,2,2,3,0,0,0,0,1,0,0,0,51,51,51,1,0,1,0,,,,,,,,,0.7046482574462503,713.0280993288761,None,"[87. 93. 87. 93. 87. 87. 93. 93. 93. 87. 93. 87. 93. 87. 87. 87. 93. 87.
 87. 93. 87. 87. 87. 87. 93. 93. 93. 93. 93. 87. 93. 87. 87. 93.]",713.8190825279671,None,s,1,1.1084361475404876,713.8190825279671,None,None,None,,,,,,,23_PP,26,M,23,2021_Nov_05_1528,Partial repeat,2021.2.3,120.09575164583228,
7,1,0,1,1,3,2,2,3,0,0,0,0,1,0,0,0,51,51,51,,,,,,,,,,,,,,,,,,,,,,,,,,,,,,,,23_PP,26,M,23,2021_Nov_05_1528,Partial repeat,2021.2.3,120.09575164583228,
3,1,0,1,1,2,2,3,3,0,1,1,1,0,0,0,0,52,52,52,0,0,0,0,,,,,,,714.951444911334,None,0.8072364293639077,716.3002864614573,None,"[93. 87. 93. 87. 87. 93. 93. 87. 87. 87. 93. 93. 93. 87. 87. 93. 93. 93.
 87. 87. 93. 87. 93. 87. 93. 93. 87. 87. 93. 93. 87. 93. 87. 93.]",717.1912005146805,None,s,1,1.030939535881771,717.1912005146805,None,None,None,,,,,,,23_PP,26,M,23,2021_Nov_05_1528,Partial repeat,2021.2.3,120.09575164583228,
3,1,0,1,1,2,2,3,3,0,1,1,1,0,0,0,0,52,52,52,1,0,1,0,,,,,,,,,0.7442757740112976,718.2819493362185,None,"[87. 93. 93. 87. 87. 93. 87. 87. 93. 93. 87. 87. 87. 87. 93. 93. 93. 87.
 93. 93. 93. 93. 87. 87. 87. 93. 87. 87. 87. 93. 93. 87. 93. 93.]",719.1145566806917,None,l,1,0.6922206715644279,719.1145566806917,None,None,None,,,,,,,23_PP,26,M,23,2021_Nov_05_1528,Partial repeat,2021.2.3,120.09575164583228,
3,1,0,1,1,2,2,3,3,0,1,1,1,0,0,0,0,52,52,52,,,,,,,,,,,,,,,,,,,,,,,,,,,,,,,,23_PP,26,M,23,2021_Nov_05_1528,Partial repeat,2021.2.3,120.09575164583228,
3,6,0,1,1,2,3,2,3,1,0,0,0,0,0,0,0,53,53,53,0,0,0,0,,,,,,,719.8306243718034,None,0.8207790914578958,720.4051184620112,None,"[93. 93. 87. 87. 93. 93. 87. 93. 93. 87. 93. 93. 93. 87. 87. 87. 93. 87.
 93. 93. 93. 87. 93. 93. 93. 87. 93. 87. 87. 93. 93. 93. 93. 93.]",721.3126765929701,None,l,1,0.653522397067718,721.3126765929701,None,None,None,,,,,,,23_PP,26,M,23,2021_Nov_05_1528,Partial repeat,2021.2.3,120.09575164583228,
3,6,0,1,1,2,3,2,3,1,0,0,0,0,0,0,0,53,53,53,1,0,1,0,,,,,,,,,0.889030864486047,722.0204147084442,None,"[87. 93. 87. 87. 93. 87. 93. 87. 93. 87. 93. 93. 87. 87. 87. 87. 93. 87.
 93. 87. 87. 87. 93. 93. 87. 93. 87. 87. 93. 93. 87. 87. 93. 87.]",722.9945786559911,None,s,1,0.507652836455236,722.9945786559911,None,None,None,,,,,,,23_PP,26,M,23,2021_Nov_05_1528,Partial repeat,2021.2.3,120.09575164583228,
3,6,0,1,1,2,3,2,3,1,0,0,0,0,0,0,0,53,53,53,,,,,,,,,,,,,,,,,,,,,,,,,,,,,,,,23_PP,26,M,23,2021_Nov_05_1528,Partial repeat,2021.2.3,120.09575164583228,
6,1,0,1,1,2,3,3,3,0,0,0,1,1,0,0,0,54,54,54,0,0,0,0,,,,,,,723.5191283258828,None,0.7641045543294811,724.1269426429244,None,"[87. 87. 87. 87. 87. 93. 93. 93. 93. 93. 93. 93. 87. 93. 93. 93. 87. 93.
 87. 87. 93. 93. 87. 93. 93. 93. 93. 93. 93. 93. 87. 93. 87. 93.]",724.9762024036863,None,s,1,0.6862358336256875,724.9762024036863,None,None,None,,,,,,,23_PP,26,M,23,2021_Nov_05_1528,Partial repeat,2021.2.3,120.09575164583228,
6,1,0,1,1,2,3,3,3,0,0,0,1,1,0,0,0,54,54,54,1,0,1,0,,,,,,,,,0.9857123603669473,725.7338968058866,None,"[93. 93. 93. 93. 93. 87. 93. 93. 87. 93. 87. 93. 93. 93. 93. 87. 93. 93.
 87. 93. 87. 93. 87. 87. 87. 87. 87. 87. 87. 93. 87. 87. 87. 87.]",726.8080118125254,None,s,1,0.8703155425209843,726.8080118125254,None,None,None,,,,,,,23_PP,26,M,23,2021_Nov_05_1528,Partial repeat,2021.2.3,120.09575164583228,
6,1,0,1,1,2,3,3,3,0,0,0,1,1,0,0,0,54,54,54,,,,,,,,,,,,,,,,,,,,,,,,,,,,,,,,23_PP,26,M,23,2021_Nov_05_1528,Partial repeat,2021.2.3,120.09575164583228,
6,4,0,1,1,3,3,3,2,1,1,1,0,1,0,0,0,55,55,55,0,0,0,0,,,,,,,727.6988719858527,None,0.7431080425370998,728.248421286924,None,"[93. 93. 93. 87. 93. 87. 87. 87. 87. 87. 93. 87. 87. 93. 93. 93. 93. 93.
 93. 93. 93. 87. 93. 87. 93. 93. 93. 87. 87. 93. 93. 93. 93. 93.]",729.0810469120734,None,l,1,0.5972846122531337,729.0810469120734,None,None,None,,,,,,,23_PP,26,M,23,2021_Nov_05_1528,Partial repeat,2021.2.3,120.09575164583228,
6,4,0,1,1,3,3,3,2,1,1,1,0,1,0,0,0,55,55,55,1,0,1,0,,,,,,,,,0.9690504647609472,729.7471355457892,None,"[87. 87. 87. 87. 93. 93. 87. 87. 93. 87. 93. 93. 93. 87. 93. 87. 87. 87.
 87. 93. 93. 93. 87. 87. 93. 87. 87. 93. 87. 87. 93. 87. 87. 87.]",730.8045705547665,None,l,1,0.6977863367319515,730.8045705547665,None,None,None,,,,,,,23_PP,26,M,23,2021_Nov_05_1528,Partial repeat,2021.2.3,120.09575164583228,
6,4,0,1,1,3,3,3,2,1,1,1,0,1,0,0,0,55,55,55,,,,,,,,,,,,,,,,,,,,,,,,,,,,,,,,23_PP,26,M,23,2021_Nov_05_1528,Partial repeat,2021.2.3,120.09575164583228,
5,1,0,1,1,3,2,3,2,0,0,0,0,1,0,0,0,56,56,56,0,0,0,0,,,,,,,731.5122782024409,None,0.9653947128317543,732.0368426251589,None,"[93. 93. 93. 93. 93. 93. 93. 87. 87. 87. 93. 93. 87. 87. 93. 93. 93. 87.
 87. 93. 93. 87. 93. 87. 93. 87. 87. 93. 87. 87. 87. 93. 93. 93.]",733.085948058495,None,s,1,0.559555213778367,733.085948058495,None,None,None,,,,,,,23_PP,26,M,23,2021_Nov_05_1528,Partial repeat,2021.2.3,120.09575164583228,
5,1,0,1,1,3,2,3,2,0,0,0,0,1,0,0,0,56,56,56,1,0,1,0,,,,,,,,,0.9052849557567244,733.71873763248,None,"[87. 87. 93. 93. 87. 87. 93. 93. 87. 87. 87. 93. 93. 87. 87. 93. 93. 87.
 93. 93. 87. 93. 87. 93. 93. 87. 93. 93. 87. 93. 93. 93. 87. 87.]",734.7012128749884,None,s,1,0.9442182367092755,734.7012128749884,None,None,None,,,,,,,23_PP,26,M,23,2021_Nov_05_1528,Partial repeat,2021.2.3,120.09575164583228,
5,1,0,1,1,3,2,3,2,0,0,0,0,1,0,0,0,56,56,56,,,,,,,,,,,,,,,,,,,,,,,,,,,,,,,,23_PP,26,M,23,2021_Nov_05_1528,Partial repeat,2021.2.3,120.09575164583228,
2,6,0,1,1,3,2,2,2,0,0,0,1,1,0,0,0,57,57,57,0,0,0,0,,,,,,,735.6753729739721,None,0.74730732200801,736.1833077510746,None,"[87. 87. 93. 93. 87. 93. 87. 93. 87. 87. 93. 93. 87. 93. 87. 87. 87. 87.
 93. 93. 87. 93. 87. 93. 87. 93. 93. 87. 87. 87. 87. 93. 93. 93.]",737.0159183026808,None,s,1,0.7095571701283916,737.0159183026808,None,None,None,,,,,,,23_PP,26,M,23,2021_Nov_05_1528,Partial repeat,2021.2.3,120.09575164583228,
2,6,0,1,1,3,2,2,2,0,0,0,1,1,0,0,0,57,57,57,1,0,1,0,,,,,,,,,0.760948154509981,737.79026063118,None,"[93. 93. 93. 87. 93. 87. 87. 93. 93. 93. 87. 93. 93. 87. 87. 93. 87. 87.
 87. 87. 87. 87. 93. 87. 93. 87. 87. 93. 93. 93. 87. 87. 87. 93.]",738.6395476526013,None,s,1,0.7666063605502131,738.6395476526013,None,None,None,,,,,,,23_PP,26,M,23,2021_Nov_05_1528,Partial repeat,2021.2.3,120.09575164583228,
2,6,0,1,1,3,2,2,2,0,0,0,1,1,0,0,0,57,57,57,,,,,,,,,,,,,,,,,,,,,,,,,,,,,,,,23_PP,26,M,23,2021_Nov_05_1528,Partial repeat,2021.2.3,120.09575164583228,
8,7,0,1,1,3,2,3,3,1,1,0,1,1,0,0,0,58,58,58,0,0,0,0,,,,,,,739.4221993517749,None,0.8070569053885078,739.9550760315942,None,"[93. 87. 87. 87. 93. 93. 87. 87. 87. 87. 87. 87. 93. 93. 87. 87. 87. 93.
 87. 87. 93. 93. 93. 87. 87. 93. 93. 87. 87. 87. 87. 93. 93. 93.]",740.8459759734142,None,l,1,0.6395338285874459,740.8459759734142,None,None,None,,,,,,,23_PP,26,M,23,2021_Nov_05_1528,Partial repeat,2021.2.3,120.09575164583228,
8,7,0,1,1,3,2,3,3,1,1,0,1,1,0,0,0,58,58,58,1,0,1,0,,,,,,,,,0.8700975946791267,741.5370312047999,None,"[93. 93. 93. 93. 93. 87. 93. 87. 93. 93. 93. 87. 93. 87. 93. 87. 93. 87.
 87. 87. 93. 93. 87. 87. 87. 93. 93. 93. 93. 87. 93. 93. 93. 87.]",742.4862256682572,None,l,1,0.4873077228767215,742.4862256682572,None,None,None,,,,,,,23_PP,26,M,23,2021_Nov_05_1528,Partial repeat,2021.2.3,120.09575164583228,
8,7,0,1,1,3,2,3,3,1,1,0,1,1,0,0,0,58,58,58,,,,,,,,,,,,,,,,,,,,,,,,,,,,,,,,23_PP,26,M,23,2021_Nov_05_1528,Partial repeat,2021.2.3,120.09575164583228,
3,8,0,1,1,3,2,3,3,0,1,0,1,0,0,0,0,59,59,59,0,0,0,0,,,,,,,742.9941357504031,None,0.744042722660191,743.5103638624969,None,"[93. 87. 93. 87. 93. 87. 87. 93. 87. 87. 93. 93. 93. 87. 87. 93. 93. 87.
 87. 87. 93. 87. 93. 87. 93. 93. 87. 93. 93. 87. 93. 87. 93. 87.]",744.3346522148822,None,s,1,1.1504146815314016,744.3346522148822,None,None,None,,,,,,,23_PP,26,M,23,2021_Nov_05_1528,Partial repeat,2021.2.3,120.09575164583228,
3,8,0,1,1,3,2,3,3,0,1,0,1,0,0,0,0,59,59,59,1,0,1,0,,,,,,,,,0.91852856793355,745.5502744346959,None,"[93. 87. 87. 87. 93. 87. 93. 87. 93. 87. 87. 87. 93. 93. 93. 93. 87. 87.
 87. 87. 93. 87. 87. 87. 87. 93. 87. 93. 93. 93. 93. 87. 93. 93.]",746.5577630990701,None,l,1,0.6878525512765918,746.5577630990701,None,None,None,,,,,,,23_PP,26,M,23,2021_Nov_05_1528,Partial repeat,2021.2.3,120.09575164583228,
3,8,0,1,1,3,2,3,3,0,1,0,1,0,0,0,0,59,59,59,,,,,,,,,,,,,,,,,,,,,,,,,,,,,,,,23_PP,26,M,23,2021_Nov_05_1528,Partial repeat,2021.2.3,120.09575164583228,
2,2,0,1,1,2,3,3,3,1,0,0,1,0,0,0,0,60,60,60,0,0,0,0,,,,,,,747.2654717088844,None,0.9611563359221342,747.6984457573744,None,"[87. 93. 93. 93. 93. 93. 93. 93. 93. 87. 93. 87. 87. 93. 87. 93. 93. 87.
 87. 93. 87. 87. 87. 87. 93. 87. 87. 87. 93. 93. 93. 87. 93. 93.]",748.7475422107309,None,l,1,0.466119453049032,748.7475422107309,None,None,None,,,,,,,23_PP,26,M,23,2021_Nov_05_1528,Partial repeat,2021.2.3,120.09575164583228,
2,2,0,1,1,2,3,3,3,1,0,0,1,0,0,0,0,60,60,60,1,0,1,0,,,,,,,,,0.8791812398754387,749.2720950877592,None,"[93. 93. 87. 93. 87. 93. 93. 87. 93. 87. 87. 93. 93. 93. 87. 93. 93. 87.
 87. 93. 87. 87. 87. 93. 87. 93. 87. 93. 87. 93. 87. 87. 87. 93.]",750.2379487024882,None,l,0,0.734721006712789,750.2379487024882,None,750.9956123161755,None,,,,,,,23_PP,26,M,23,2021_Nov_05_1528,Partial repeat,2021.2.3,120.09575164583228,
2,2,0,1,1,2,3,3,3,1,0,0,1,0,0,0,0,60,60,60,,,,,,,,,,,,,,,,,,,,,,,,,,,,,,,,23_PP,26,M,23,2021_Nov_05_1528,Partial repeat,2021.2.3,120.09575164583228,
6,7,0,1,1,3,2,2,3,1,0,0,0,0,0,0,0,61,61,61,0,0,0,0,,,,,,,751.4951969919639,None,0.9349224961570273,752.0197546796953,None,"[93. 93. 87. 87. 87. 93. 93. 93. 93. 93. 87. 93. 87. 87. 93. 93. 93. 93.
 87. 93. 93. 93. 87. 87. 93. 87. 93. 93. 87. 87. 87. 87. 93. 87.]",753.0438704239787,None,l,1,0.6648118392404285,753.0438704239787,None,None,None,,,,,,,23_PP,26,M,23,2021_Nov_05_1528,Partial repeat,2021.2.3,120.09575164583228,
6,7,0,1,1,3,2,2,3,1,0,0,0,0,0,0,0,61,61,61,1,0,1,0,,,,,,,,,0.8253158679205481,753.768253900038,None,"[87. 93. 87. 93. 93. 93. 93. 87. 93. 87. 87. 87. 93. 87. 93. 87. 93. 87.
 93. 93. 93. 87. 87. 93. 87. 93. 93. 93. 93. 87. 87. 87. 93. 87.]",754.684137437358,None,s,1,0.8486779528248007,754.684137437358,None,None,None,,,,,,,23_PP,26,M,23,2021_Nov_05_1528,Partial repeat,2021.2.3,120.09575164583228,
6,7,0,1,1,3,2,2,3,1,0,0,0,0,0,0,0,61,61,61,,,,,,,,,,,,,,,,,,,,,,,,,,,,,,,,23_PP,26,M,23,2021_Nov_05_1528,Partial repeat,2021.2.3,120.09575164583228,
2,8,0,1,1,3,2,3,2,1,1,0,0,1,0,0,0,62,62,62,0,0,0,0,,,,,,,755.5583977914393,None,0.8261636371044669,755.9913570870995,None,"[87. 87. 87. 93. 87. 93. 93. 87. 93. 87. 93. 93. 87. 87. 93. 93. 87. 93.
 87. 93. 93. 93. 93. 93. 87. 93. 87. 87. 93. 87. 87. 93. 87. 87.]",756.907237096566,None,l,1,0.5935380350674677,756.907237096566,None,None,None,,,,,,,23_PP,26,M,23,2021_Nov_05_1528,Partial repeat,2021.2.3,120.09575164583228,
2,8,0,1,1,3,2,3,2,1,1,0,0,1,0,0,0,62,62,62,1,0,1,0,,,,,,,,,0.8037168284028513,757.5566784454131,None,"[93. 93. 93. 87. 87. 87. 87. 93. 93. 93. 87. 87. 87. 87. 87. 87. 93. 93.
 93. 93. 93. 93. 87. 87. 93. 93. 87. 87. 87. 93. 87. 93. 87. 93.]",758.4475921779231,None,l,1,0.765233064583299,758.4475921779231,None,None,None,,,,,,,23_PP,26,M,23,2021_Nov_05_1528,Partial repeat,2021.2.3,120.09575164583228,
2,8,0,1,1,3,2,3,2,1,1,0,0,1,0,0,0,62,62,62,,,,,,,,,,,,,,,,,,,,,,,,,,,,,,,,23_PP,26,M,23,2021_Nov_05_1528,Partial repeat,2021.2.3,120.09575164583228,
3,5,0,1,1,2,3,3,2,0,0,0,0,1,0,0,0,63,63,63,0,0,0,0,,,,,,,759.2385795462942,None,0.7347015745086083,759.6299121308693,None,"[87. 87. 87. 93. 93. 87. 87. 87. 87. 87. 87. 87. 87. 93. 93. 87. 87. 87.
 87. 93. 93. 87. 87. 87. 93. 87. 93. 93. 93. 87. 93. 87. 93. 87.]",760.4542033696744,None,s,1,0.8706218240840826,760.4542033696744,None,None,None,,,,,,,23_PP,26,M,23,2021_Nov_05_1528,Partial repeat,2021.2.3,120.09575164583228,
3,5,0,1,1,2,3,3,2,0,0,0,0,1,0,0,0,63,63,63,1,0,1,0,,,,,,,,,0.8951625654687585,761.3784091062153,None,"[87. 93. 87. 87. 87. 87. 87. 87. 93. 87. 93. 87. 87. 93. 87. 93. 87. 87.
 93. 93. 87. 87. 87. 93. 93. 87. 93. 93. 87. 87. 93. 93. 87. 93.]",762.3609096851033,None,s,1,0.995933317244635,762.3609096851033,None,None,None,,,,,,,23_PP,26,M,23,2021_Nov_05_1528,Partial repeat,2021.2.3,120.09575164583228,
3,5,0,1,1,2,3,3,2,0,0,0,0,1,0,0,0,63,63,63,,,,,,,,,,,,,,,,,,,,,,,,,,,,,,,,23_PP,26,M,23,2021_Nov_05_1528,Partial repeat,2021.2.3,120.09575164583228,
7,7,0,1,1,3,3,3,3,1,0,1,1,0,1,0,0,64,64,64,0,0,0,0,,,,,,,764.4424306119945,None,0.9421257910019358,814.2831417496745,None,"[87. 87. 93. 93. 93. 87. 87. 87. 93. 93. 93. 87. 87. 87. 93. 93. 87. 87.
 93. 87. 93. 87. 93. 87. 93. 87. 93. 87. 93. 93. 87. 87. 87. 87.]",815.3155970117186,None,l,1,0.7114686236491252,815.3155970117186,None,None,None,,,,,,,23_PP,26,M,23,2021_Nov_05_1528,Partial repeat,2021.2.3,120.09575164583228,
7,7,0,1,1,3,3,3,3,1,0,1,1,0,1,0,0,64,64,64,1,0,1,0,,,,,,,,,0.7148230075793787,816.0816052745868,None,"[87. 87. 87. 93. 87. 87. 87. 93. 87. 93. 87. 93. 87. 93. 93. 87. 87. 93.
 87. 87. 87. 93. 87. 93. 93. 87. 93. 87. 93. 87. 87. 93. 87. 87.]",816.8726083579277,None,s,1,1.313149612320558,816.8726083579277,None,None,None,,,,,,,23_PP,26,M,23,2021_Nov_05_1528,Partial repeat,2021.2.3,120.09575164583228,
7,7,0,1,1,3,3,3,3,1,0,1,1,0,1,0,0,64,64,64,,,,,,,,,,,,,,,,,,,,,,,,,,,,,,,,23_PP,26,M,23,2021_Nov_05_1528,Partial repeat,2021.2.3,120.09575164583228,
7,7,0,1,1,3,2,2,3,0,0,0,0,1,1,0,0,65,65,65,0,0,0,0,,,,,,,818.204797171049,None,0.9611918704496554,818.9125340036699,None,"[87. 87. 87. 93. 87. 93. 87. 87. 87. 93. 87. 87. 87. 87. 93. 87. 93. 93.
 87. 93. 93. 93. 93. 87. 87. 93. 87. 87. 93. 87. 87. 87. 93. 87.]",819.9533034470951,None,s,1,0.7124679674707295,819.9533034470951,None,None,None,,,,,,,23_PP,26,M,23,2021_Nov_05_1528,Partial repeat,2021.2.3,120.09575164583228,
7,7,0,1,1,3,2,2,3,0,0,0,0,1,1,0,0,65,65,65,1,0,1,0,,,,,,,,,0.7719360981656148,820.7276332677575,None,"[93. 93. 87. 93. 93. 93. 93. 87. 93. 87. 93. 93. 87. 87. 93. 87. 87. 87.
 93. 87. 87. 93. 87. 93. 93. 93. 93. 93. 87. 93. 93. 87. 87. 93.]",821.5769177234724,None,s,1,0.5924857734935358,821.5769177234724,None,None,None,,,,,,,23_PP,26,M,23,2021_Nov_05_1528,Partial repeat,2021.2.3,120.09575164583228,
7,7,0,1,1,3,2,2,3,0,0,0,0,1,1,0,0,65,65,65,,,,,,,,,,,,,,,,,,,,,,,,,,,,,,,,23_PP,26,M,23,2021_Nov_05_1528,Partial repeat,2021.2.3,120.09575164583228,
7,7,0,1,1,3,3,3,2,1,0,1,0,0,1,0,0,66,66,66,0,0,0,0,,,,,,,822.1930638611484,None,0.7954016785936507,822.7342566466323,None,"[93. 93. 87. 87. 87. 93. 87. 93. 87. 93. 93. 87. 93. 93. 93. 87. 93. 87.
 87. 93. 87. 93. 87. 93. 87. 87. 87. 87. 87. 87. 93. 87. 87. 93.]",823.6084967957504,None,l,1,0.6093328629831376,823.6084967957504,None,None,None,,,,,,,23_PP,26,M,23,2021_Nov_05_1528,Partial repeat,2021.2.3,120.09575164583228,
7,7,0,1,1,3,3,3,2,1,0,1,0,0,1,0,0,66,66,66,1,0,1,0,,,,,,,,,0.9348079338010058,824.2746133315559,None,"[87. 87. 87. 87. 93. 93. 93. 87. 93. 87. 93. 93. 93. 93. 87. 93. 87. 93.
 93. 93. 93. 87. 87. 93. 87. 87. 93. 87. 87. 93. 93. 87. 93. 93.]",825.2904107251779,None,s,1,1.1985685573890805,825.2904107251779,None,None,None,,,,,,,23_PP,26,M,23,2021_Nov_05_1528,Partial repeat,2021.2.3,120.09575164583228,
7,7,0,1,1,3,3,3,2,1,0,1,0,0,1,0,0,66,66,66,,,,,,,,,,,,,,,,,,,,,,,,,,,,,,,,23_PP,26,M,23,2021_Nov_05_1528,Partial repeat,2021.2.3,120.09575164583228,
7,7,0,1,1,2,2,3,3,0,0,1,1,1,1,0,0,67,67,67,0,0,0,0,,,,,,,826.5060268514317,None,0.719019077030466,827.4052550860397,None,"[93. 93. 87. 87. 87. 93. 87. 87. 93. 93. 87. 93. 93. 87. 87. 87. 87. 93.
 87. 87. 93. 87. 87. 87. 93. 93. 93. 93. 93. 87. 87. 87. 87. 93.]",828.2046194956711,None,s,1,0.6202634265500819,828.2046194956711,None,None,None,,,,,,,23_PP,26,M,23,2021_Nov_05_1528,Partial repeat,2021.2.3,120.09575164583228,
7,7,0,1,1,2,2,3,3,0,0,1,1,1,1,0,0,67,67,67,1,0,1,0,,,,,,,,,0.9402098261586931,828.8873066657798,None,"[87. 93. 87. 93. 93. 87. 87. 87. 93. 87. 93. 87. 87. 93. 87. 93. 93. 93.
 87. 93. 87. 87. 93. 93. 87. 87. 93. 87. 93. 93. 87. 87. 93. 87.]",829.9031252265049,None,s,1,0.8098417714463721,829.9031252265049,None,None,None,,,,,,,23_PP,26,M,23,2021_Nov_05_1528,Partial repeat,2021.2.3,120.09575164583228,
7,7,0,1,1,2,2,3,3,0,0,1,1,1,1,0,0,67,67,67,,,,,,,,,,,,,,,,,,,,,,,,,,,,,,,,23_PP,26,M,23,2021_Nov_05_1528,Partial repeat,2021.2.3,120.09575164583228,
7,7,0,1,1,3,3,3,3,0,1,1,1,0,1,0,0,68,68,68,0,0,0,0,,,,,,,830.7357524552244,None,0.7371190360712799,832.6591044519555,None,"[87. 93. 87. 93. 87. 87. 93. 93. 87. 93. 87. 87. 87. 87. 93. 87. 93. 93.
 87. 87. 87. 93. 87. 93. 87. 93. 93. 93. 93. 87. 93. 87. 87. 87.]",833.4750773401029,None,s,1,0.5019495851229294,833.4750773401029,None,None,None,,,,,,,23_PP,26,M,23,2021_Nov_05_1528,Partial repeat,2021.2.3,120.09575164583228,
7,7,0,1,1,3,3,3,3,0,1,1,1,0,1,0,0,68,68,68,1,0,1,0,,,,,,,,,0.7227513667918161,834.04123351612,None,"[87. 93. 93. 93. 93. 87. 87. 93. 87. 87. 93. 87. 87. 87. 93. 87. 87. 87.
 87. 87. 87. 87. 87. 93. 93. 87. 87. 87. 87. 87. 87. 93. 93. 87.]",834.8405741929419,None,l,1,0.704435693409323,834.8405741929419,None,None,None,,,,,,,23_PP,26,M,23,2021_Nov_05_1528,Partial repeat,2021.2.3,120.09575164583228,
7,7,0,1,1,3,3,3,3,0,1,1,1,0,1,0,0,68,68,68,,,,,,,,,,,,,,,,,,,,,,,,,,,,,,,,23_PP,26,M,23,2021_Nov_05_1528,Partial repeat,2021.2.3,120.09575164583228,
7,7,0,1,1,2,2,3,2,0,0,1,0,1,1,0,0,69,69,69,0,0,0,0,,,,,,,835.5649406711782,None,0.7379367377406614,835.9146420546713,None,"[93. 93. 87. 87. 93. 93. 87. 93. 93. 93. 93. 87. 87. 93. 93. 87. 87. 93.
 93. 87. 93. 93. 87. 87. 93. 93. 87. 87. 87. 87. 87. 87. 87. 87.]",836.7306101321155,None,s,1,0.6544338653438899,836.7306101321155,None,None,None,,,,,,,23_PP,26,M,23,2021_Nov_05_1528,Partial repeat,2021.2.3,120.09575164583228,
7,7,0,1,1,2,2,3,2,0,0,1,0,1,1,0,0,69,69,69,1,0,1,0,,,,,,,,,0.8792189831718139,837.4466816717904,None,"[93. 87. 93. 87. 87. 93. 87. 93. 87. 93. 93. 93. 87. 93. 87. 93. 87. 93.
 93. 93. 87. 87. 93. 87. 87. 93. 93. 87. 93. 87. 93. 87. 93. 93.]",838.4041855059222,None,s,1,0.6448814084506012,838.4041855059222,None,None,None,,,,,,,23_PP,26,M,23,2021_Nov_05_1528,Partial repeat,2021.2.3,120.09575164583228,
7,7,0,1,1,2,2,3,2,0,0,1,0,1,1,0,0,69,69,69,,,,,,,,,,,,,,,,,,,,,,,,,,,,,,,,23_PP,26,M,23,2021_Nov_05_1528,Partial repeat,2021.2.3,120.09575164583228,
7,7,0,1,1,2,3,3,2,0,1,0,0,0,1,0,0,70,70,70,0,0,0,0,,,,,,,839.0702866474712,None,0.9940994005628927,839.5115777637657,None,"[93. 87. 87. 93. 93. 87. 93. 87. 93. 93. 93. 87. 87. 87. 87. 93. 93. 93.
 87. 87. 93. 87. 87. 93. 93. 93. 87. 87. 87. 87. 93. 93. 93. 87.]",840.5856523604853,None,s,1,0.5434464071695402,840.5856523604853,None,None,None,,,,,,,23_PP,26,M,23,2021_Nov_05_1528,Partial repeat,2021.2.3,120.09575164583228,
7,7,0,1,1,2,3,3,2,0,1,0,0,0,1,0,0,70,70,70,1,0,1,0,,,,,,,,,0.8888253900975892,841.1934509625607,None,"[93. 87. 93. 87. 87. 93. 93. 93. 87. 87. 87. 93. 93. 93. 87. 93. 87. 93.
 93. 87. 93. 93. 87. 93. 93. 87. 87. 93. 87. 93. 93. 93. 87. 87.]",842.1593180472664,None,l,1,0.5208248679155076,842.1593180472664,None,None,None,,,,,,,23_PP,26,M,23,2021_Nov_05_1528,Partial repeat,2021.2.3,120.09575164583228,
7,7,0,1,1,2,3,3,2,0,1,0,0,0,1,0,0,70,70,70,,,,,,,,,,,,,,,,,,,,,,,,,,,,,,,,23_PP,26,M,23,2021_Nov_05_1528,Partial repeat,2021.2.3,120.09575164583228,
7,7,0,1,1,3,2,2,2,0,1,0,1,0,1,0,0,71,71,71,0,0,0,0,,,,,,,842.7005085877499,None,0.9249559051523871,843.0002584952235,None,"[93. 93. 87. 93. 93. 87. 87. 87. 87. 87. 93. 87. 93. 93. 87. 93. 87. 93.
 93. 93. 93. 87. 93. 93. 87. 87. 93. 87. 87. 87. 93. 87. 87. 93.]",843.9994063589838,None,s,1,0.5697391558969684,843.9994063589838,None,None,None,,,,,,,23_PP,26,M,23,2021_Nov_05_1528,Partial repeat,2021.2.3,120.09575164583228,
7,7,0,1,1,3,2,2,2,0,1,0,1,0,1,0,0,71,71,71,1,0,1,0,,,,,,,,,0.877924594239756,844.6238686023244,None,"[93. 87. 93. 93. 93. 93. 87. 87. 87. 93. 87. 93. 93. 87. 87. 87. 93. 87.
 87. 93. 87. 87. 93. 87. 87. 87. 87. 87. 93. 93. 93. 93. 87. 87.]",845.5813843028627,None,l,1,0.6988058855095005,845.5813843028627,None,None,None,,,,,,,23_PP,26,M,23,2021_Nov_05_1528,Partial repeat,2021.2.3,120.09575164583228,
7,7,0,1,1,3,2,2,2,0,1,0,1,0,1,0,0,71,71,71,,,,,,,,,,,,,,,,,,,,,,,,,,,,,,,,23_PP,26,M,23,2021_Nov_05_1528,Partial repeat,2021.2.3,120.09575164583228,
7,7,0,1,1,2,3,2,2,0,1,0,1,0,1,0,0,72,72,72,0,0,0,0,,,,,,,846.2974295440181,None,0.8197867316016219,846.5389080212408,None,"[93. 93. 87. 87. 93. 87. 87. 93. 87. 93. 87. 93. 87. 87. 93. 93. 93. 93.
 87. 93. 93. 93. 93. 93. 87. 87. 93. 93. 93. 93. 93. 93. 87. 87.]",847.4381163715989,None,s,1,0.538030515297578,847.4381163715989,None,None,None,,,,,,,23_PP,26,M,23,2021_Nov_05_1528,Partial repeat,2021.2.3,120.09575164583228,
7,7,0,1,1,2,3,2,2,0,1,0,1,0,1,0,0,72,72,72,1,0,1,0,,,,,,,,,0.7291987454539026,848.037616507263,None,"[93. 93. 87. 87. 87. 87. 93. 93. 93. 93. 87. 93. 87. 87. 93. 87. 87. 87.
 87. 87. 93. 87. 93. 87. 93. 93. 87. 87. 93. 93. 93. 87. 87. 87.]",848.8452402562398,None,l,1,0.6509842690247751,848.8452402562398,None,None,None,,,,,,,23_PP,26,M,23,2021_Nov_05_1528,Partial repeat,2021.2.3,120.09575164583228,
7,7,0,1,1,2,3,2,2,0,1,0,1,0,1,0,0,72,72,72,,,,,,,,,,,,,,,,,,,,,,,,,,,,,,,,23_PP,26,M,23,2021_Nov_05_1528,Partial repeat,2021.2.3,120.09575164583228,
7,7,0,1,1,3,2,2,2,0,0,0,1,1,1,0,0,73,73,73,0,0,0,0,,,,,,,849.5280165847471,None,0.9339361118485087,849.7444842058139,None,"[87. 93. 93. 87. 93. 87. 87. 87. 93. 87. 93. 93. 93. 93. 87. 87. 87. 93.
 87. 87. 93. 87. 93. 87. 87. 87. 93. 93. 87. 87. 87. 93. 87. 93.]",850.7686153443537,None,s,1,0.5841154672161792,850.7686153443537,None,None,None,,,,,,,23_PP,26,M,23,2021_Nov_05_1528,Partial repeat,2021.2.3,120.09575164583228,
7,7,0,1,1,3,2,2,2,0,0,0,1,1,1,0,0,73,73,73,1,0,1,0,,,,,,,,,0.7909768221139976,851.418056372484,None,"[87. 93. 93. 93. 87. 87. 87. 93. 87. 93. 87. 93. 93. 87. 93. 87. 87. 93.
 93. 93. 87. 93. 93. 87. 93. 87. 87. 87. 87. 93. 93. 93. 93. 93.]",852.2840006209044,None,s,1,0.8763003804633627,852.2840006209044,None,None,None,,,,,,,23_PP,26,M,23,2021_Nov_05_1528,Partial repeat,2021.2.3,120.09575164583228,
7,7,0,1,1,3,2,2,2,0,0,0,1,1,1,0,0,73,73,73,,,,,,,,,,,,,,,,,,,,,,,,,,,,,,,,23_PP,26,M,23,2021_Nov_05_1528,Partial repeat,2021.2.3,120.09575164583228,
7,7,0,1,1,3,2,3,2,0,0,0,0,1,1,0,0,74,74,74,0,0,0,0,,,,,,,853.1748874134646,None,0.9321120861717656,853.457975603953,None,"[93. 87. 93. 87. 87. 93. 87. 87. 87. 93. 93. 87. 93. 87. 87. 87. 87. 87.
 93. 93. 93. 87. 87. 87. 87. 93. 87. 87. 87. 87. 87. 93. 87. 93.]",854.4654418183709,None,s,1,0.9828908541094279,854.4654418183709,None,None,None,,,,,,,23_PP,26,M,23,2021_Nov_05_1528,Partial repeat,2021.2.3,120.09575164583228,
7,7,0,1,1,3,2,3,2,0,0,0,0,1,1,0,0,74,74,74,1,0,1,0,,,,,,,,,0.9689910971368947,855.506201319673,None,"[87. 87. 87. 93. 93. 93. 93. 93. 93. 87. 93. 87. 93. 87. 93. 87. 87. 87.
 87. 87. 87. 93. 93. 87. 87. 93. 87. 87. 93. 87. 93. 93. 93. 93.]",856.555309639436,None,s,1,3.2920970043705893,856.555309639436,None,None,None,,,,,,,23_PP,26,M,23,2021_Nov_05_1528,Partial repeat,2021.2.3,120.09575164583228,
7,7,0,1,1,3,2,3,2,0,0,0,0,1,1,0,0,74,74,74,,,,,,,,,,,,,,,,,,,,,,,,,,,,,,,,23_PP,26,M,23,2021_Nov_05_1528,Partial repeat,2021.2.3,120.09575164583228,
7,7,0,1,1,2,2,2,3,1,0,1,0,0,1,0,0,75,75,75,0,0,0,0,,,,,,,859.8691507437688,None,0.9609143954187773,860.2604656890908,None,"[87. 93. 93. 87. 87. 87. 87. 93. 87. 87. 87. 93. 87. 87. 87. 93. 93. 87.
 93. 87. 93. 93. 87. 93. 93. 87. 87. 93. 87. 93. 87. 87. 93. 93.]",861.3012418675025,None,l,1,2.4512409041126375,861.3012418675025,None,None,None,,,,,,,23_PP,26,M,23,2021_Nov_05_1528,Partial repeat,2021.2.3,120.09575164583228,
7,7,0,1,1,2,2,2,3,1,0,1,0,0,1,0,0,75,75,75,1,0,1,0,,,,,,,,,0.9340033483925618,863.8157830256532,None,"[93. 93. 93. 87. 87. 93. 87. 93. 87. 93. 87. 93. 87. 87. 93. 93. 87. 87.
 87. 87. 87. 93. 93. 87. 87. 87. 93. 93. 93. 93. 93. 93. 87. 93.]",864.8315823435587,None,s,1,0.9202833749368438,864.8315823435587,None,None,None,,,,,,,23_PP,26,M,23,2021_Nov_05_1528,Partial repeat,2021.2.3,120.09575164583228,
7,7,0,1,1,2,2,2,3,1,0,1,0,0,1,0,0,75,75,75,,,,,,,,,,,,,,,,,,,,,,,,,,,,,,,,23_PP,26,M,23,2021_Nov_05_1528,Partial repeat,2021.2.3,120.09575164583228,
7,7,0,1,1,3,2,3,2,1,1,0,0,1,1,0,0,76,76,76,0,0,0,0,,,,,,,865.7724276678418,None,0.7143075172502379,866.2386991724961,None,"[87. 93. 87. 93. 93. 93. 87. 93. 93. 93. 87. 93. 87. 93. 87. 93. 93. 93.
 93. 87. 87. 93. 93. 93. 87. 87. 87. 93. 87. 87. 93. 87. 93. 87.]",867.0296977658436,None,l,1,0.7218728960688168,867.0296977658436,None,None,None,,,,,,,23_PP,26,M,23,2021_Nov_05_1528,Partial repeat,2021.2.3,120.09575164583228,
7,7,0,1,1,3,2,3,2,1,1,0,0,1,1,0,0,76,76,76,1,0,1,0,,,,,,,,,0.9104999641964705,867.8040128336797,None,"[87. 93. 93. 87. 87. 93. 93. 87. 93. 93. 87. 87. 87. 93. 87. 87. 87. 93.
 93. 93. 87. 87. 93. 87. 87. 93. 93. 93. 93. 93. 87. 93. 87. 87.]",868.794853892472,None,s,0,1.0047118920265348,868.794853892472,None,869.8189795788785,None,,,,,,,23_PP,26,M,23,2021_Nov_05_1528,Partial repeat,2021.2.3,120.09575164583228,
7,7,0,1,1,3,2,3,2,1,1,0,0,1,1,0,0,76,76,76,,,,,,,,,,,,,,,,,,,,,,,,,,,,,,,,23_PP,26,M,23,2021_Nov_05_1528,Partial repeat,2021.2.3,120.09575164583228,
7,7,0,1,1,2,2,2,3,1,1,1,0,1,1,0,0,77,77,77,0,0,0,0,,,,,,,870.3185334661539,None,0.8806905211537701,870.7182123034763,None,"[93. 93. 87. 93. 87. 87. 93. 93. 93. 93. 93. 93. 93. 93. 87. 87. 93. 93.
 93. 93. 93. 93. 93. 93. 87. 87. 87. 87. 93. 93. 87. 93. 87. 87.]",871.6757241554478,None,l,1,0.5710104649187997,871.6757241554478,None,None,None,,,,,,,23_PP,26,M,23,2021_Nov_05_1528,Partial repeat,2021.2.3,120.09575164583228,
7,7,0,1,1,2,2,2,3,1,1,1,0,1,1,0,0,77,77,77,1,0,1,0,,,,,,,,,0.8596675069375207,872.3001940959184,None,"[87. 93. 93. 93. 93. 87. 93. 93. 87. 93. 87. 87. 93. 87. 87. 87. 87. 93.
 93. 93. 93. 93. 93. 87. 93. 87. 87. 87. 87. 93. 93. 93. 87. 87.]",873.2410506451815,None,l,1,1.0855981265485752,873.2410506451815,None,None,None,,,,,,,23_PP,26,M,23,2021_Nov_05_1528,Partial repeat,2021.2.3,120.09575164583228,
7,7,0,1,1,2,2,2,3,1,1,1,0,1,1,0,0,77,77,77,,,,,,,,,,,,,,,,,,,,,,,,,,,,,,,,23_PP,26,M,23,2021_Nov_05_1528,Partial repeat,2021.2.3,120.09575164583228,
7,7,0,1,1,2,2,2,3,0,1,1,0,0,1,0,0,78,78,78,0,0,0,0,,,,,,,874.3484457894483,None,0.8724206916528041,874.7897266429063,None,"[93. 93. 93. 93. 93. 93. 93. 87. 93. 93. 93. 87. 93. 87. 93. 93. 93. 87.
 93. 87. 93. 87. 93. 87. 93. 93. 93. 93. 87. 93. 93. 93. 93. 93.]",875.7389166163703,None,l,0,1.0835481247231655,875.7389166163703,None,876.8462966870939,None,,,,,,,23_PP,26,M,23,2021_Nov_05_1528,Partial repeat,2021.2.3,120.09575164583228,
7,7,0,1,1,2,2,2,3,0,1,1,0,0,1,0,0,78,78,78,1,0,1,0,,,,,,,,,0.9897930993404229,877.3875051875439,None,"[93. 93. 87. 87. 93. 93. 87. 93. 93. 87. 93. 87. 93. 87. 87. 87. 87. 87.
 87. 93. 87. 87. 93. 93. 93. 87. 93. 87. 93. 87. 87. 87. 87. 87.]",878.4532563021858,None,l,1,0.5774558477023675,878.4532563021858,None,None,None,,,,,,,23_PP,26,M,23,2021_Nov_05_1528,Partial repeat,2021.2.3,120.09575164583228,
7,7,0,1,1,2,2,2,3,0,1,1,0,0,1,0,0,78,78,78,,,,,,,,,,,,,,,,,,,,,,,,,,,,,,,,23_PP,26,M,23,2021_Nov_05_1528,Partial repeat,2021.2.3,120.09575164583228,
7,7,0,1,1,3,2,2,3,1,1,0,0,1,1,0,0,79,79,79,0,0,0,0,,,,,,,879.0527311014666,None,0.7088691285892809,879.5772926377613,None,"[93. 93. 93. 93. 87. 87. 87. 93. 87. 93. 87. 87. 93. 87. 93. 87. 93. 87.
 93. 93. 93. 87. 87. 87. 87. 93. 87. 93. 93. 87. 87. 93. 93. 87.]",880.3682841754126,None,l,1,0.6944534801914415,880.3682841754126,None,None,None,,,,,,,23_PP,26,M,23,2021_Nov_05_1528,Partial repeat,2021.2.3,120.09575164583228,
7,7,0,1,1,3,2,2,3,1,1,0,0,1,1,0,0,79,79,79,1,0,1,0,,,,,,,,,0.7659373038418131,881.1259702390562,None,"[93. 87. 87. 93. 87. 93. 87. 93. 87. 93. 93. 87. 93. 93. 93. 93. 87. 87.
 87. 93. 93. 87. 93. 87. 93. 93. 87. 93. 93. 93. 93. 87. 93. 87.]",881.9752267926779,None,l,1,1.0875474242820928,881.9752267926779,None,None,None,,,,,,,23_PP,26,M,23,2021_Nov_05_1528,Partial repeat,2021.2.3,120.09575164583228,
7,7,0,1,1,3,2,2,3,1,1,0,0,1,1,0,0,79,79,79,,,,,,,,,,,,,,,,,,,,,,,,,,,,,,,,23_PP,26,M,23,2021_Nov_05_1528,Partial repeat,2021.2.3,120.09575164583228,
7,7,0,1,1,2,2,2,3,0,0,1,0,1,1,0,0,80,80,80,0,0,0,0,,,,,,,883.0743006998637,None,0.9130398320492759,885.5971502665452,None,"[93. 93. 87. 87. 87. 87. 93. 87. 93. 87. 87. 93. 93. 93. 93. 87. 93. 93.
 93. 87. 93. 93. 87. 93. 93. 87. 93. 87. 93. 87. 87. 87. 93. 87.]",886.5879640646745,None,s,1,0.874867752463615,886.5879640646745,None,None,None,,,,,,,23_PP,26,M,23,2021_Nov_05_1528,Partial repeat,2021.2.3,120.09575164583228,
7,7,0,1,1,2,2,2,3,0,0,1,0,1,1,0,0,80,80,80,1,0,1,0,,,,,,,,,0.9606969477057352,887.5205038668464,None,"[93. 87. 87. 87. 93. 93. 87. 93. 93. 87. 87. 93. 87. 93. 93. 93. 93. 93.
 93. 93. 93. 93. 93. 93. 93. 87. 93. 93. 93. 87. 87. 87. 93. 87.]",888.561286459535,None,s,1,0.532675238304364,888.561286459535,None,None,None,,,,,,,23_PP,26,M,23,2021_Nov_05_1528,Partial repeat,2021.2.3,120.09575164583228,
7,7,0,1,1,2,2,2,3,0,0,1,0,1,1,0,0,80,80,80,,,,,,,,,,,,,,,,,,,,,,,,,,,,,,,,23_PP,26,M,23,2021_Nov_05_1528,Partial repeat,2021.2.3,120.09575164583228,
7,7,0,1,1,2,3,2,2,0,0,0,1,1,1,0,0,81,81,81,0,0,0,0,,,,,,,889.110796633533,None,0.9434645287440178,889.485478405386,None,"[87. 93. 87. 93. 87. 87. 87. 87. 93. 93. 93. 87. 87. 93. 87. 93. 93. 87.
 87. 87. 87. 93. 93. 87. 93. 87. 93. 87. 93. 93. 87. 93. 87. 87.]",890.5179259703036,None,s,1,0.511963228284003,890.5179259703036,None,None,None,,,,,,,23_PP,26,M,23,2021_Nov_05_1528,Partial repeat,2021.2.3,120.09575164583228,
7,7,0,1,1,2,3,2,2,0,0,0,1,1,1,0,0,81,81,81,1,0,1,0,,,,,,,,,0.9218868983233915,891.092433530488,None,"[87. 87. 87. 87. 93. 87. 93. 87. 87. 87. 87. 93. 87. 93. 93. 93. 93. 93.
 93. 87. 93. 93. 93. 93. 93. 93. 93. 87. 93. 93. 93. 93. 87. 87.]",892.0999042348958,None,s,1,0.882004914645222,892.0999042348958,None,None,None,,,,,,,23_PP,26,M,23,2021_Nov_05_1528,Partial repeat,2021.2.3,120.09575164583228,
7,7,0,1,1,2,3,2,2,0,0,0,1,1,1,0,0,81,81,81,,,,,,,,,,,,,,,,,,,,,,,,,,,,,,,,23_PP,26,M,23,2021_Nov_05_1528,Partial repeat,2021.2.3,120.09575164583228,
7,7,0,1,1,2,3,2,3,1,1,0,0,1,1,0,0,82,82,82,0,0,0,0,,,,,,,892.9991376009202,None,0.7205998157786244,893.3238560303471,None,"[93. 87. 93. 93. 87. 87. 87. 93. 93. 93. 93. 93. 93. 93. 87. 93. 93. 87.
 93. 93. 87. 93. 87. 93. 87. 87. 87. 93. 87. 87. 87. 93. 93. 87.]",894.1314958150069,None,l,1,0.72246172638188,894.1314958150069,None,None,None,,,,,,,23_PP,26,M,23,2021_Nov_05_1528,Partial repeat,2021.2.3,120.09575164583228,
7,7,0,1,1,2,3,2,3,1,1,0,0,1,1,0,0,82,82,82,1,0,1,0,,,,,,,,,0.8528754745723376,894.9058282013793,None,"[93. 93. 87. 87. 87. 87. 87. 87. 87. 87. 87. 93. 93. 93. 93. 93. 87. 87.
 93. 93. 87. 93. 93. 93. 87. 87. 93. 87. 87. 93. 93. 87. 93. 87.]",895.8467283677019,None,l,1,0.5286634309086367,895.8467283677019,None,None,None,,,,,,,23_PP,26,M,23,2021_Nov_05_1528,Partial repeat,2021.2.3,120.09575164583228,
7,7,0,1,1,2,3,2,3,1,1,0,0,1,1,0,0,82,82,82,,,,,,,,,,,,,,,,,,,,,,,,,,,,,,,,23_PP,26,M,23,2021_Nov_05_1528,Partial repeat,2021.2.3,120.09575164583228,
7,7,0,1,1,3,3,3,2,1,1,1,0,1,1,0,0,83,83,83,0,0,0,0,,,,,,,896.3962439938368,None,0.7231419354728043,896.8291933473738,None,"[93. 93. 87. 87. 93. 87. 93. 87. 93. 87. 93. 93. 93. 93. 87. 93. 93. 87.
 93. 87. 93. 93. 93. 87. 93. 87. 93. 93. 93. 87. 87. 87. 87. 87.]",897.6285301756288,None,l,1,0.5854631060901738,897.6285301756288,None,None,None,,,,,,,23_PP,26,M,23,2021_Nov_05_1528,Partial repeat,2021.2.3,120.09575164583228,
7,7,0,1,1,3,3,3,2,1,1,1,0,1,1,0,0,83,83,83,1,0,1,0,,,,,,,,,0.7470064832578636,898.2779503573729,None,"[87. 87. 93. 87. 87. 87. 87. 93. 93. 93. 87. 87. 93. 93. 93. 87. 87. 87.
 93. 93. 87. 87. 87. 93. 93. 93. 93. 93. 93. 87. 93. 87. 87. 93.]",899.1105740582425,None,l,1,0.543467574272654,899.1105740582425,None,None,None,,,,,,,23_PP,26,M,23,2021_Nov_05_1528,Partial repeat,2021.2.3,120.09575164583228,
7,7,0,1,1,3,3,3,2,1,1,1,0,1,1,0,0,83,83,83,,,,,,,,,,,,,,,,,,,,,,,,,,,,,,,,23_PP,26,M,23,2021_Nov_05_1528,Partial repeat,2021.2.3,120.09575164583228,
7,7,0,1,1,2,2,2,2,1,1,1,1,1,1,0,0,84,84,84,0,0,0,0,,,,,,,899.6767767377387,None,0.7189270912718432,899.9764936117062,None,"[93. 93. 87. 93. 87. 93. 93. 87. 93. 87. 87. 87. 87. 93. 93. 87. 93. 87.
 87. 87. 93. 87. 93. 87. 93. 87. 87. 93. 87. 87. 93. 87. 93. 93.]",900.7758176114148,None,l,1,0.5584019273883314,900.7758176114148,None,None,None,,,,,,,23_PP,26,M,23,2021_Nov_05_1528,Partial repeat,2021.2.3,120.09575164583228,
7,7,0,1,1,2,2,2,2,1,1,1,1,1,1,0,0,84,84,84,1,0,1,0,,,,,,,,,0.7680363242789451,901.3919518826879,None,"[93. 87. 93. 93. 93. 87. 87. 93. 93. 93. 87. 93. 87. 87. 93. 93. 87. 87.
 93. 87. 93. 87. 93. 87. 87. 93. 87. 87. 87. 93. 87. 87. 87. 87.]",902.2412395455358,None,l,1,0.45283388894677046,902.2412395455358,None,None,None,,,,,,,23_PP,26,M,23,2021_Nov_05_1528,Partial repeat,2021.2.3,120.09575164583228,
7,7,0,1,1,2,2,2,2,1,1,1,1,1,1,0,0,84,84,84,,,,,,,,,,,,,,,,,,,,,,,,,,,,,,,,23_PP,26,M,23,2021_Nov_05_1528,Partial repeat,2021.2.3,120.09575164583228,
7,7,0,1,1,2,3,3,3,0,1,0,1,0,1,0,0,85,85,85,0,0,0,0,,,,,,,902.7241458272256,None,0.7185259715743393,902.9739429758265,None,"[93. 87. 87. 93. 87. 93. 87. 87. 93. 93. 87. 93. 87. 87. 93. 93. 93. 87.
 87. 93. 87. 93. 87. 87. 93. 93. 87. 93. 87. 93. 93. 87. 93. 87.]",903.781579874063,None,s,1,0.6566846339337644,903.781579874063,None,None,None,,,,,,,23_PP,26,M,23,2021_Nov_05_1528,Partial repeat,2021.2.3,120.09575164583228,
7,7,0,1,1,2,3,3,3,0,1,0,1,0,1,0,0,85,85,85,1,0,1,0,,,,,,,,,0.7889048554440149,904.4892932945841,None,"[87. 87. 93. 93. 87. 93. 93. 93. 87. 87. 87. 93. 87. 93. 87. 93. 87. 93.
 93. 87. 93. 93. 93. 93. 87. 93. 93. 93. 93. 87. 87. 87. 87. 87.]",905.3552343358642,None,l,1,0.6019330362978508,905.3552343358642,None,None,None,,,,,,,23_PP,26,M,23,2021_Nov_05_1528,Partial repeat,2021.2.3,120.09575164583228,
7,7,0,1,1,2,3,3,3,0,1,0,1,0,1,0,0,85,85,85,,,,,,,,,,,,,,,,,,,,,,,,,,,,,,,,23_PP,26,M,23,2021_Nov_05_1528,Partial repeat,2021.2.3,120.09575164583228,
7,7,0,1,1,2,2,2,2,1,0,1,1,0,1,0,0,86,86,86,0,0,0,0,,,,,,,905.9797126148878,None,0.9978008852668356,906.2544654568919,None,"[93. 87. 87. 93. 87. 93. 93. 93. 87. 87. 93. 87. 93. 93. 93. 93. 87. 87.
 87. 93. 93. 87. 93. 87. 93. 93. 93. 93. 93. 93. 87. 93. 93. 93.]",907.3285596171445,None,l,1,0.6926077729767712,907.3285596171445,None,None,None,,,,,,,23_PP,26,M,23,2021_Nov_05_1528,Partial repeat,2021.2.3,120.09575164583228,
7,7,0,1,1,2,2,2,2,1,0,1,1,0,1,0,0,86,86,86,1,0,1,0,,,,,,,,,0.8707410716274724,908.0862443979349,None,"[93. 93. 93. 87. 93. 87. 93. 93. 87. 87. 87. 93. 87. 93. 93. 93. 93. 87.
 87. 93. 87. 87. 93. 93. 87. 93. 93. 93. 93. 93. 87. 87. 87. 93.]",909.0354314849756,None,s,1,1.1297761149435246,909.0354314849756,None,None,None,,,,,,,23_PP,26,M,23,2021_Nov_05_1528,Partial repeat,2021.2.3,120.09575164583228,
7,7,0,1,1,2,2,2,2,1,0,1,1,0,1,0,0,86,86,86,,,,,,,,,,,,,,,,,,,,,,,,,,,,,,,,23_PP,26,M,23,2021_Nov_05_1528,Partial repeat,2021.2.3,120.09575164583228,
7,7,0,1,1,2,3,2,2,1,1,0,1,1,1,0,0,87,87,87,0,0,0,0,,,,,,,910.1844340975113,None,0.9848522088057252,910.509145791948,None,"[87. 87. 93. 87. 93. 93. 93. 87. 87. 87. 93. 93. 93. 87. 93. 87. 93. 87.
 87. 87. 93. 87. 93. 93. 87. 87. 93. 87. 87. 93. 93. 87. 87. 93.]",911.5832312929342,None,l,1,0.5508071067888523,911.5832312929342,None,None,None,,,,,,,23_PP,26,M,23,2021_Nov_05_1528,Partial repeat,2021.2.3,120.09575164583228,
7,7,0,1,1,2,3,2,2,1,1,0,1,1,1,0,0,87,87,87,1,0,1,0,,,,,,,,,0.9176479851067754,912.1993915420098,None,"[87. 93. 93. 93. 87. 93. 87. 87. 87. 93. 87. 93. 87. 87. 87. 87. 93. 87.
 93. 93. 93. 93. 93. 87. 87. 87. 87. 93. 87. 93. 87. 93. 87. 93.]",913.2068648121312,None,l,1,0.8304075360319985,913.2068648121312,None,None,None,,,,,,,23_PP,26,M,23,2021_Nov_05_1528,Partial repeat,2021.2.3,120.09575164583228,
7,7,0,1,1,2,3,2,2,1,1,0,1,1,1,0,0,87,87,87,,,,,,,,,,,,,,,,,,,,,,,,,,,,,,,,23_PP,26,M,23,2021_Nov_05_1528,Partial repeat,2021.2.3,120.09575164583228,
7,7,0,1,1,2,2,3,2,0,1,1,0,0,1,0,0,88,88,88,0,0,0,0,,,,,,,914.056129062883,None,0.80428252158786,914.2892487795252,None,"[87. 87. 87. 93. 87. 87. 87. 93. 93. 93. 87. 93. 93. 93. 87. 87. 87. 87.
 93. 93. 87. 87. 93. 93. 87. 87. 93. 93. 87. 93. 93. 93. 87. 87.]",915.1801541734785,None,s,1,0.6491276575434313,915.1801541734785,None,None,None,,,,,,,23_PP,26,M,23,2021_Nov_05_1528,Partial repeat,2021.2.3,120.09575164583228,
7,7,0,1,1,2,2,3,2,0,1,1,0,0,1,0,0,88,88,88,1,0,1,0,,,,,,,,,0.7107462770784443,915.8795675240217,None,"[87. 93. 87. 93. 87. 87. 87. 87. 93. 93. 93. 93. 87. 87. 87. 87. 87. 93.
 93. 87. 87. 93. 93. 87. 93. 93. 93. 93. 93. 93. 87. 87. 93. 93.]",916.6705462331229,None,l,1,0.8067696551261179,916.6705462331229,None,None,None,,,,,,,23_PP,26,M,23,2021_Nov_05_1528,Partial repeat,2021.2.3,120.09575164583228,
7,7,0,1,1,2,2,3,2,0,1,1,0,0,1,0,0,88,88,88,,,,,,,,,,,,,,,,,,,,,,,,,,,,,,,,23_PP,26,M,23,2021_Nov_05_1528,Partial repeat,2021.2.3,120.09575164583228,
7,7,0,1,1,3,2,2,3,0,1,0,0,0,1,0,0,89,89,89,0,0,0,0,,,,,,,917.5031862903888,None,0.7038311487427221,917.744638789809,None,"[93. 87. 87. 93. 93. 87. 93. 93. 87. 87. 87. 93. 93. 87. 93. 93. 87. 93.
 87. 93. 87. 93. 93. 87. 87. 87. 93. 93. 93. 93. 93. 87. 93. 87.]",918.5272914511224,None,s,1,0.725476434952725,918.5272914511224,None,None,None,,,,,,,23_PP,26,M,23,2021_Nov_05_1528,Partial repeat,2021.2.3,120.09575164583228,
7,7,0,1,1,3,2,2,3,0,1,0,0,0,1,0,0,89,89,89,1,0,1,0,,,,,,,,,0.7457462848471065,919.3182817059169,None,"[87. 87. 87. 87. 93. 93. 93. 93. 93. 93. 87. 93. 87. 93. 87. 87. 93. 87.
 87. 87. 93. 93. 87. 93. 87. 87. 93. 93. 87. 93. 87. 87. 87. 93.]",920.1425957153951,None,l,1,0.6938290506623161,920.1425957153951,None,None,None,,,,,,,23_PP,26,M,23,2021_Nov_05_1528,Partial repeat,2021.2.3,120.09575164583228,
7,7,0,1,1,3,2,2,3,0,1,0,0,0,1,0,0,89,89,89,,,,,,,,,,,,,,,,,,,,,,,,,,,,,,,,23_PP,26,M,23,2021_Nov_05_1528,Partial repeat,2021.2.3,120.09575164583228,
7,7,0,1,1,3,3,3,2,0,0,1,0,1,1,0,0,90,90,90,0,0,0,0,,,,,,,920.8586422394037,None,0.7039070350076438,922.7070671824622,None,"[93. 87. 87. 87. 93. 93. 87. 87. 93. 87. 87. 93. 87. 93. 87. 93. 93. 93.
 93. 87. 93. 93. 87. 87. 87. 87. 87. 93. 87. 93. 87. 87. 93. 93.]",923.4980442879933,None,s,1,0.7943817686136754,923.4980442879933,None,None,None,,,,,,,23_PP,26,M,23,2021_Nov_05_1528,Partial repeat,2021.2.3,120.09575164583228,
7,7,0,1,1,3,3,3,2,0,0,1,0,1,1,0,0,90,90,90,1,0,1,0,,,,,,,,,0.7055641614418123,924.3473242537148,None,"[93. 93. 87. 93. 93. 93. 93. 93. 87. 93. 87. 93. 87. 87. 87. 93. 93. 93.
 87. 87. 87. 87. 93. 93. 87. 87. 87. 87. 93. 93. 93. 93. 87. 93.]",925.1383250920626,None,s,1,0.7541264292121923,925.1383250920626,None,None,None,,,,,,,23_PP,26,M,23,2021_Nov_05_1528,Partial repeat,2021.2.3,120.09575164583228,
7,7,0,1,1,3,3,3,2,0,0,1,0,1,1,0,0,90,90,90,,,,,,,,,,,,,,,,,,,,,,,,,,,,,,,,23_PP,26,M,23,2021_Nov_05_1528,Partial repeat,2021.2.3,120.09575164583228,
7,7,0,1,1,3,2,3,3,0,1,0,1,0,1,0,0,91,91,91,0,0,0,0,,,,,,,925.9126619684248,None,0.9300152020473471,926.2623601447849,None,"[87. 93. 87. 87. 87. 93. 93. 87. 87. 93. 87. 87. 93. 93. 93. 93. 87. 93.
 93. 87. 93. 87. 87. 93. 93. 93. 93. 93. 87. 87. 93. 93. 87. 93.]",927.2781870440667,None,s,1,0.7420076214730216,927.2781870440667,None,None,None,,,,,,,23_PP,26,M,23,2021_Nov_05_1528,Partial repeat,2021.2.3,120.09575164583228,
7,7,0,1,1,3,2,3,3,0,1,0,1,0,1,0,0,91,91,91,1,0,1,0,,,,,,,,,0.7258891391680957,928.0858021337735,None,"[93. 93. 87. 93. 93. 93. 87. 87. 87. 87. 87. 93. 93. 93. 87. 87. 87. 93.
 93. 87. 93. 87. 87. 93. 87. 93. 87. 93. 87. 87. 93. 87. 87. 87.]",928.9017618726612,None,l,1,0.5747580042407208,928.9017618726612,None,None,None,,,,,,,23_PP,26,M,23,2021_Nov_05_1528,Partial repeat,2021.2.3,120.09575164583228,
7,7,0,1,1,3,2,3,3,0,1,0,1,0,1,0,0,91,91,91,,,,,,,,,,,,,,,,,,,,,,,,,,,,,,,,23_PP,26,M,23,2021_Nov_05_1528,Partial repeat,2021.2.3,120.09575164583228,
7,7,0,1,1,3,2,3,3,0,0,0,1,1,1,0,0,92,92,92,0,0,0,0,,,,,,,929.4929202455642,None,0.8921553175132091,929.8426075176576,None,"[87. 87. 93. 93. 93. 87. 87. 93. 93. 93. 87. 93. 93. 93. 93. 87. 87. 93.
 93. 93. 93. 87. 93. 93. 93. 87. 87. 93. 93. 93. 93. 87. 87. 93.]",930.8167974430144,None,s,1,0.5797585719046765,930.8167974430144,None,None,None,,,,,,,23_PP,26,M,23,2021_Nov_05_1528,Partial repeat,2021.2.3,120.09575164583228,
7,7,0,1,1,3,2,3,3,0,0,0,1,1,1,0,0,92,92,92,1,0,1,0,,,,,,,,,0.7388642035563499,931.4579117819303,None,"[93. 87. 87. 93. 87. 93. 93. 87. 93. 87. 93. 87. 93. 87. 93. 93. 93. 93.
 87. 93. 87. 87. 93. 87. 93. 93. 93. 93. 93. 93. 87. 87. 93. 87.]",932.273876652238,None,s,1,0.9626964759627299,932.273876652238,None,None,None,,,,,,,23_PP,26,M,23,2021_Nov_05_1528,Partial repeat,2021.2.3,120.09575164583228,
7,7,0,1,1,3,2,3,3,0,0,0,1,1,1,0,0,92,92,92,,,,,,,,,,,,,,,,,,,,,,,,,,,,,,,,23_PP,26,M,23,2021_Nov_05_1528,Partial repeat,2021.2.3,120.09575164583228,
7,7,0,1,1,3,2,2,3,1,0,0,0,0,1,0,0,93,93,93,0,0,0,0,,,,,,,933.2563781932658,None,0.9098627039098774,933.5644560728106,None,"[93. 93. 87. 93. 93. 87. 93. 87. 87. 93. 87. 87. 87. 87. 87. 93. 87. 93.
 93. 93. 93. 93. 87. 87. 87. 87. 93. 93. 87. 93. 87. 87. 87. 87.]",934.5635721859144,None,l,1,0.624129629934032,934.5635721859144,None,None,None,,,,,,,23_PP,26,M,23,2021_Nov_05_1528,Partial repeat,2021.2.3,120.09575164583228,
7,7,0,1,1,3,2,2,3,1,0,0,0,0,1,0,0,93,93,93,1,0,1,0,,,,,,,,,0.8764478079809879,935.2380099588008,None,"[87. 87. 87. 87. 93. 87. 93. 93. 93. 93. 93. 93. 87. 93. 93. 87. 87. 93.
 93. 87. 93. 87. 93. 93. 93. 93. 87. 87. 93. 93. 93. 93. 93. 87.]",936.1955115479395,None,s,1,0.5441401108546415,936.1955115479395,None,None,None,,,,,,,23_PP,26,M,23,2021_Nov_05_1528,Partial repeat,2021.2.3,120.09575164583228,
7,7,0,1,1,3,2,2,3,1,0,0,0,0,1,0,0,93,93,93,,,,,,,,,,,,,,,,,,,,,,,,,,,,,,,,23_PP,26,M,23,2021_Nov_05_1528,Partial repeat,2021.2.3,120.09575164583228,
7,7,0,1,1,3,2,3,3,1,0,0,1,0,1,0,0,94,94,94,0,0,0,0,,,,,,,936.7533846517981,None,0.7615069972057961,938.1521738293814,None,"[87. 87. 93. 93. 87. 93. 87. 93. 87. 87. 87. 87. 93. 87. 87. 87. 87. 87.
 87. 93. 93. 93. 87. 93. 87. 87. 93. 93. 87. 93. 93. 87. 87. 93.]",938.9931277473152,None,l,1,0.5316114310335252,938.9931277473152,None,None,None,,,,,,,23_PP,26,M,23,2021_Nov_05_1528,Partial repeat,2021.2.3,120.09575164583228,
7,7,0,1,1,3,2,3,3,1,0,0,1,0,1,0,0,94,94,94,1,0,1,0,,,,,,,,,0.9475140261645968,939.5759526960173,None,"[93. 87. 93. 93. 93. 93. 93. 87. 87. 87. 93. 93. 87. 93. 93. 93. 87. 93.
 93. 93. 87. 93. 87. 93. 87. 93. 93. 93. 93. 93. 87. 93. 87. 93.]",940.6000873624071,None,s,1,0.539647553658142,940.6000873624071,None,None,None,,,,,,,23_PP,26,M,23,2021_Nov_05_1528,Partial repeat,2021.2.3,120.09575164583228,
7,7,0,1,1,3,2,3,3,1,0,0,1,0,1,0,0,94,94,94,,,,,,,,,,,,,,,,,,,,,,,,,,,,,,,,23_PP,26,M,23,2021_Nov_05_1528,Partial repeat,2021.2.3,120.09575164583228,
7,7,0,1,1,2,3,3,2,1,1,0,0,1,1,0,0,95,95,95,0,0,0,0,,,,,,,941.1496065163883,None,0.9510707687773454,941.43270015901,None,"[87. 87. 93. 87. 93. 87. 87. 93. 93. 87. 87. 87. 93. 93. 87. 93. 93. 87.
 87. 87. 87. 87. 93. 87. 93. 87. 93. 93. 87. 93. 87. 87. 87. 93.]",942.4651474032144,None,l,1,0.6116317386258743,942.4651474032144,None,None,None,,,,,,,23_PP,26,M,23,2021_Nov_05_1528,Partial repeat,2021.2.3,120.09575164583228,
7,7,0,1,1,2,3,3,2,1,1,0,0,1,1,0,0,95,95,95,1,0,1,0,,,,,,,,,0.9417516821609543,943.1312389233535,None,"[93. 87. 87. 93. 93. 87. 93. 93. 93. 87. 87. 87. 87. 87. 93. 87. 93. 87.
 93. 87. 93. 87. 93. 93. 93. 87. 93. 87. 87. 93. 87. 93. 87. 93.]",944.1554072646795,None,l,1,0.7923648002906702,944.1554072646795,None,None,None,,,,,,,23_PP,26,M,23,2021_Nov_05_1528,Partial repeat,2021.2.3,120.09575164583228,
7,7,0,1,1,2,3,3,2,1,1,0,0,1,1,0,0,95,95,95,,,,,,,,,,,,,,,,,,,,,,,,,,,,,,,,23_PP,26,M,23,2021_Nov_05_1528,Partial repeat,2021.2.3,120.09575164583228,
7,7,0,1,1,3,3,2,3,1,1,1,0,1,1,0,0,96,96,96,0,0,0,0,,,,,,,944.9630185058231,None,0.8583051666415188,945.2294706364191,None,"[87. 87. 87. 87. 93. 87. 93. 93. 87. 87. 93. 87. 93. 93. 93. 87. 93. 93.
 93. 87. 87. 87. 93. 87. 93. 87. 87. 87. 93. 93. 87. 93. 87. 87.]",946.1703198092655,None,l,1,0.8414776100471499,946.1703198092655,None,None,None,,,,,,,23_PP,26,M,23,2021_Nov_05_1528,Partial repeat,2021.2.3,120.09575164583228,
7,7,0,1,1,3,3,2,3,1,1,1,0,1,1,0,0,96,96,96,1,0,1,0,,,,,,,,,0.8417194447255077,947.0695570238568,None,"[93. 87. 87. 93. 87. 87. 87. 87. 93. 93. 87. 93. 87. 87. 87. 87. 87. 87.
 93. 93. 93. 93. 93. 87. 93. 93. 93. 93. 87. 87. 93. 93. 87. 93.]",947.9854328640431,None,l,1,0.8668123870193085,947.9854328640431,None,None,None,,,,,,,23_PP,26,M,23,2021_Nov_05_1528,Partial repeat,2021.2.3,120.09575164583228,
7,7,0,1,1,3,3,2,3,1,1,1,0,1,1,0,0,96,96,96,,,,,,,,,,,,,,,,,,,,,,,,,,,,,,,,23_PP,26,M,23,2021_Nov_05_1528,Partial repeat,2021.2.3,120.09575164583228,
7,7,0,1,1,3,2,3,2,1,0,0,0,0,1,0,0,97,97,97,0,0,0,0,,,,,,,948.884667192211,None,0.8057849143800448,949.1844132511214,None,"[93. 93. 87. 87. 87. 87. 93. 87. 87. 87. 87. 93. 93. 93. 87. 93. 93. 87.
 93. 87. 93. 87. 87. 93. 93. 87. 87. 93. 87. 87. 87. 93. 87. 87.]",950.0669868244404,None,l,1,0.975946761562227,950.0669868244404,None,None,None,,,,,,,23_PP,26,M,23,2021_Nov_05_1528,Partial repeat,2021.2.3,120.09575164583228,
7,7,0,1,1,3,2,3,2,1,0,0,0,0,1,0,0,97,97,97,1,0,1,0,,,,,,,,,0.8492332298752403,951.1077617200026,None,"[87. 87. 87. 87. 87. 87. 93. 87. 93. 87. 87. 93. 93. 93. 87. 93. 93. 87.
 87. 93. 87. 93. 93. 87. 93. 93. 87. 93. 87. 93. 93. 93. 93. 93.]",952.0319745122433,None,s,1,1.2836741010542028,952.0319745122433,None,None,None,,,,,,,23_PP,26,M,23,2021_Nov_05_1528,Partial repeat,2021.2.3,120.09575164583228,
7,7,0,1,1,3,2,3,2,1,0,0,0,0,1,0,0,97,97,97,,,,,,,,,,,,,,,,,,,,,,,,,,,,,,,,23_PP,26,M,23,2021_Nov_05_1528,Partial repeat,2021.2.3,120.09575164583228,
7,7,0,1,1,3,3,2,3,0,0,1,0,1,1,0,0,98,98,98,0,0,0,0,,,,,,,953.3391851820015,None,0.7272261789115084,953.7554914199463,None,"[87. 87. 87. 93. 87. 87. 93. 93. 93. 93. 87. 87. 93. 93. 87. 87. 87. 93.
 87. 93. 93. 87. 87. 87. 93. 93. 93. 87. 93. 93. 93. 87. 87. 93.]",954.5631414674463,None,s,1,3.36021658952086,954.5631414674463,None,None,None,,,,,,,23_PP,26,M,23,2021_Nov_05_1528,Partial repeat,2021.2.3,120.09575164583228,
7,7,0,1,1,3,3,2,3,0,0,1,0,1,1,0,0,98,98,98,1,0,1,0,,,,,,,,,0.7562366458549702,957.9852279280058,None,"[93. 87. 93. 87. 87. 87. 93. 87. 87. 87. 93. 93. 93. 87. 93. 93. 87. 87.
 93. 93. 93. 93. 93. 93. 87. 87. 87. 87. 87. 87. 87. 93. 93. 93.]",958.8261510574266,None,s,1,0.8408458041012636,958.8261510574266,None,None,None,,,,,,,23_PP,26,M,23,2021_Nov_05_1528,Partial repeat,2021.2.3,120.09575164583228,
7,7,0,1,1,3,3,2,3,0,0,1,0,1,1,0,0,98,98,98,,,,,,,,,,,,,,,,,,,,,,,,,,,,,,,,23_PP,26,M,23,2021_Nov_05_1528,Partial repeat,2021.2.3,120.09575164583228,
7,7,0,1,1,3,2,3,3,1,1,0,1,1,1,0,0,99,99,99,0,0,0,0,,,,,,,959.6920831187235,None,0.8436488601839307,967.452100129376,None,"[93. 87. 87. 87. 93. 93. 93. 87. 93. 87. 93. 87. 93. 87. 87. 93. 87. 87.
 93. 87. 87. 93. 87. 93. 93. 93. 93. 87. 87. 87. 93. 87. 87. 93.]",968.3763366544299,None,l,1,0.6500134687194077,968.3763366544299,None,None,None,,,,,,,23_PP,26,M,23,2021_Nov_05_1528,Partial repeat,2021.2.3,120.09575164583228,
7,7,0,1,1,3,2,3,3,1,1,0,1,1,1,0,0,99,99,99,1,0,1,0,,,,,,,,,0.7370578807172781,969.0757111986168,None,"[87. 87. 87. 87. 93. 93. 93. 87. 87. 87. 87. 93. 93. 93. 87. 93. 93. 93.
 87. 93. 87. 93. 93. 93. 93. 93. 93. 93. 93. 87. 93. 93. 87. 87.]",969.8917042917274,None,l,1,0.6555483453703346,969.8917042917274,None,None,None,,,,,,,23_PP,26,M,23,2021_Nov_05_1528,Partial repeat,2021.2.3,120.09575164583228,
7,7,0,1,1,3,2,3,3,1,1,0,1,1,1,0,0,99,99,99,,,,,,,,,,,,,,,,,,,,,,,,,,,,,,,,23_PP,26,M,23,2021_Nov_05_1528,Partial repeat,2021.2.3,120.09575164583228,
7,7,0,1,1,2,2,3,3,1,1,1,1,1,1,0,0,100,100,100,0,0,0,0,,,,,,,970.5660978061278,None,0.8914900791258948,971.1323017684808,None,"[93. 93. 93. 87. 87. 87. 93. 87. 87. 93. 93. 93. 87. 87. 93. 93. 87. 93.
 87. 93. 93. 87. 93. 93. 87. 87. 87. 93. 93. 87. 93. 93. 87. 93.]",972.106450001058,None,l,1,0.615732383710565,972.106450001058,None,None,None,,,,,,,23_PP,26,M,23,2021_Nov_05_1528,Partial repeat,2021.2.3,120.09575164583228,
7,7,0,1,1,2,2,3,3,1,1,1,1,1,1,0,0,100,100,100,1,0,1,0,,,,,,,,,0.7840616078181369,972.7642190012593,None,"[93. 87. 93. 87. 87. 93. 87. 93. 93. 93. 93. 87. 93. 87. 93. 93. 93. 87.
 87. 93. 93. 93. 93. 87. 93. 93. 93. 87. 87. 93. 93. 87. 93. 93.]",973.630147213993,None,l,1,0.9802523426842527,973.630147213993,None,None,None,,,,,,,23_PP,26,M,23,2021_Nov_05_1528,Partial repeat,2021.2.3,120.09575164583228,
7,7,0,1,1,2,2,3,3,1,1,1,1,1,1,0,0,100,100,100,,,,,,,,,,,,,,,,,,,,,,,,,,,,,,,,23_PP,26,M,23,2021_Nov_05_1528,Partial repeat,2021.2.3,120.09575164583228,
7,7,0,1,1,3,2,2,2,1,0,0,1,0,1,0,0,101,101,101,0,0,0,0,,,,,,,974.6209869899285,None,0.8438211644974473,976.2112694937787,None,"[93. 87. 93. 87. 87. 87. 93. 93. 93. 87. 87. 87. 87. 87. 93. 87. 87. 87.
 93. 87. 87. 87. 93. 93. 87. 87. 93. 93. 87. 87. 93. 93. 93. 87.]",977.1438320666239,None,l,1,0.8744658982250257,977.1438320666239,None,None,None,,,,,,,23_PP,26,M,23,2021_Nov_05_1528,Partial repeat,2021.2.3,120.09575164583228,
7,7,0,1,1,3,2,2,2,1,0,0,1,0,1,0,0,101,101,101,1,0,1,0,,,,,,,,,0.9355488711984223,978.0680387653047,None,"[93. 93. 93. 93. 87. 87. 87. 93. 87. 87. 93. 93. 87. 93. 87. 93. 93. 93.
