prime_tar_pos,probe_tar_pos,dimension,tar_color,tar_shape,prime_dist_color,probe_dist_color,prime_dist_shape,probe_dist_shape,prime_tar_ori,probe_tar_ori,col_rep,shape_rep,resp_rep,pos_fixed,sparse,MainLoop.thisRepN,MainLoop.thisTrialN,MainLoop.thisN,MainLoop.thisIndex,PrimeProbe.thisRepN,PrimeProbe.thisTrialN,PrimeProbe.thisN,PrimeProbe.thisIndex,Instruction.started,Instruction.stopped,instruction_key.keys,instruction_key.rt,instruction_key.started,instruction_key.stopped,PairStartText.started,PairStartText.stopped,fixdur,FixCross.started,FixCross.stopped,dist_ori,SearchFixCross.started,SearchFixCross.stopped,key_resp.keys,key_resp.corr,key_resp.rt,key_resp.started,key_resp.stopped,feedback_text.started,feedback_text.stopped,participant,age,gender,group,date,expName,psychopyVersion,frameRate,
,,,,,,,,,,,,,,,,,,,,,,,,24.47948587031715,None,space,2.2648216470224725,24.47948587031715,None,,,,,,,,,,,,,,,,24_UA,28,M,24,2021_Nov_05_1732,Partial repeat,2021.2.3,120.10454102417894,
2,2,0,1,1,2,3,3,3,1,0,0,1,0,1,0,0,0,0,0,0,0,0,0,,,,,,,81.68984678225024,None,0.7979030766654446,89.96510538972143,None,"[87. 93. 87. 87. 87. 93. 93. 93. 87. 87. 93. 93. 93. 93. 87. 87. 93. 93.
 87. 87. 93. 87. 93. 93. 93. 87. 87. 87. 93. 87. 87. 87. 93. 93.]",90.84769243301707,None,l,1,1.0615985387048568,90.84769243301707,None,None,None,24_UA,28,M,24,2021_Nov_05_1732,Partial repeat,2021.2.3,120.10454102417894,
2,2,0,1,1,2,3,3,3,1,0,0,1,0,1,0,0,0,0,0,1,0,1,0,,,,,,,,,0.8456860855113921,91.98006058923056,None,"[87. 93. 93. 87. 87. 87. 87. 93. 87. 87. 93. 87. 87. 87. 87. 93. 93. 87.
 93. 93. 87. 87. 87. 93. 87. 87. 93. 87. 87. 87. 93. 87. 87. 93.]",92.91258980784914,None,s,1,0.7077743808840751,92.91258980784914,None,None,None,24_UA,28,M,24,2021_Nov_05_1732,Partial repeat,2021.2.3,120.10454102417894,
2,2,0,1,1,2,3,3,3,1,0,0,1,0,1,0,0,0,0,0,,,,,,,,,,,,,,,,,,,,,,,,,,24_UA,28,M,24,2021_Nov_05_1732,Partial repeat,2021.2.3,120.10454102417894,
2,2,0,1,1,2,2,2,2,0,0,1,1,1,1,0,0,1,1,1,0,0,0,0,,,,,,,93.64529612455954,None,0.9879292907276855,95.27722362017812,None,"[93. 87. 93. 87. 87. 93. 87. 93. 93. 93. 93. 87. 93. 87. 93. 93. 93. 87.
 93. 93. 87. 93. 87. 87. 93. 87. 87. 87. 93. 87. 87. 87. 87. 87.]",96.34299237406958,None,s,1,0.6214004146240768,96.34299237406958,None,None,None,24_UA,28,M,24,2021_Nov_05_1732,Partial repeat,2021.2.3,120.10454102417894,
2,2,0,1,1,2,2,2,2,0,0,1,1,1,1,0,0,1,1,1,1,0,1,0,,,,,,,,,0.8767763183918523,97.02573438621766,None,"[87. 93. 93. 93. 93. 87. 93. 93. 93. 93. 87. 87. 87. 93. 93. 93. 93. 93.
 87. 87. 93. 87. 93. 87. 93. 87. 87. 87. 93. 87. 93. 93. 93. 87.]",97.98325842530903,None,s,1,0.6611493471282301,97.98325842530903,None,None,None,24_UA,28,M,24,2021_Nov_05_1732,Partial repeat,2021.2.3,120.10454102417894,
2,2,0,1,1,2,2,2,2,0,0,1,1,1,1,0,0,1,1,1,,,,,,,,,,,,,,,,,,,,,,,,,,24_UA,28,M,24,2021_Nov_05_1732,Partial repeat,2021.2.3,120.10454102417894,
2,2,0,1,1,3,2,2,3,0,1,0,0,0,1,0,0,2,2,2,0,0,0,0,,,,,,,98.66600396530339,None,0.9281921301799141,100.00652010906924,None,"[87. 93. 87. 93. 87. 87. 87. 87. 87. 93. 87. 93. 93. 93. 93. 93. 93. 93.
 87. 87. 93. 87. 87. 87. 93. 93. 87. 87. 87. 87. 87. 93. 87. 93.]",101.01401198058011,None,s,1,0.6704352909546287,101.01401198058011,None,None,None,24_UA,28,M,24,2021_Nov_05_1732,Partial repeat,2021.2.3,120.10454102417894,
2,2,0,1,1,3,2,2,3,0,1,0,0,0,1,0,0,2,2,2,1,0,1,0,,,,,,,,,0.9501554537292992,101.74673914368395,None,"[87. 93. 87. 93. 93. 93. 93. 87. 87. 87. 93. 93. 93. 87. 93. 93. 93. 93.
 87. 87. 93. 87. 93. 93. 93. 93. 93. 87. 87. 87. 93. 87. 93. 93.]",102.77916650363841,None,l,1,0.6812022905396589,102.77916650363841,None,None,None,24_UA,28,M,24,2021_Nov_05_1732,Partial repeat,2021.2.3,120.10454102417894,
2,2,0,1,1,3,2,2,3,0,1,0,0,0,1,0,0,2,2,2,,,,,,,,,,,,,,,,,,,,,,,,,,24_UA,28,M,24,2021_Nov_05_1732,Partial repeat,2021.2.3,120.10454102417894,
2,2,0,1,1,3,3,3,3,1,1,1,1,1,1,0,0,3,3,3,0,0,0,0,,,,,,,103.4785702327681,None,0.9238854796981021,104.21958335444651,None,"[87. 93. 93. 93. 93. 93. 87. 87. 93. 93. 93. 87. 93. 93. 93. 87. 93. 87.
 93. 93. 93. 93. 93. 87. 87. 87. 87. 87. 93. 93. 93. 87. 87. 87.]",105.22706143527103,None,l,1,0.9214796950436721,105.22706143527103,None,None,None,24_UA,28,M,24,2021_Nov_05_1732,Partial repeat,2021.2.3,120.10454102417894,
2,2,0,1,1,3,3,3,3,1,1,1,1,1,1,0,0,3,3,3,1,0,1,0,,,,,,,,,0.9349982991723497,106.2178806855336,None,"[87. 93. 87. 87. 87. 93. 93. 87. 93. 93. 87. 87. 93. 87. 87. 87. 87. 93.
 87. 93. 93. 93. 93. 93. 93. 87. 93. 93. 87. 93. 87. 87. 93. 93.]",107.23367872058589,None,s,0,0.8659109189611627,107.23367872058589,None,108.12458186954245,None,24_UA,28,M,24,2021_Nov_05_1732,Partial repeat,2021.2.3,120.10454102417894,
2,2,0,1,1,3,3,3,3,1,1,1,1,1,1,0,0,3,3,3,,,,,,,,,,,,,,,,,,,,,,,,,,24_UA,28,M,24,2021_Nov_05_1732,Partial repeat,2021.2.3,120.10454102417894,
2,2,0,1,1,3,3,2,2,1,0,1,1,0,1,0,0,4,4,4,0,0,0,0,,,,,,,108.62415115107433,None,0.7512019172034734,109.41515263084875,None,"[93. 93. 93. 87. 87. 87. 93. 87. 93. 93. 93. 93. 87. 87. 87. 87. 93. 93.
 93. 93. 87. 93. 93. 93. 87. 87. 87. 87. 87. 93. 93. 87. 93. 93.]",110.25609307880586,None,l,1,1.043520870833163,110.25609307880586,None,None,None,24_UA,28,M,24,2021_Nov_05_1732,Partial repeat,2021.2.3,120.10454102417894,
2,2,0,1,1,3,3,2,2,1,0,1,1,0,1,0,0,4,4,4,1,0,1,0,,,,,,,,,0.7544156266681512,111.36348597807955,None,"[87. 93. 93. 87. 93. 93. 87. 93. 93. 93. 93. 87. 87. 93. 87. 93. 93. 93.
 93. 87. 87. 93. 87. 93. 93. 87. 93. 87. 93. 93. 87. 93. 87. 87.]",112.19610166110579,None,s,1,0.7035528267406335,112.19610166110579,None,None,None,24_UA,28,M,24,2021_Nov_05_1732,Partial repeat,2021.2.3,120.10454102417894,
2,2,0,1,1,3,3,2,2,1,0,1,1,0,1,0,0,4,4,4,,,,,,,,,,,,,,,,,,,,,,,,,,24_UA,28,M,24,2021_Nov_05_1732,Partial repeat,2021.2.3,120.10454102417894,
2,2,0,1,1,3,3,2,2,0,0,1,1,1,1,0,0,5,5,5,0,0,0,0,,,,,,,112.92049956928167,None,0.8923769232293206,113.7114692983996,None,"[93. 87. 93. 93. 87. 93. 93. 87. 87. 93. 93. 87. 93. 93. 87. 93. 93. 93.
 93. 87. 87. 93. 93. 93. 93. 93. 87. 93. 87. 93. 87. 93. 87. 87.]",114.6856425466467,None,s,1,0.7100273944706714,114.6856425466467,None,None,None,24_UA,28,M,24,2021_Nov_05_1732,Partial repeat,2021.2.3,120.10454102417894,
2,2,0,1,1,3,3,2,2,0,0,1,1,1,1,0,0,5,5,5,1,0,1,0,,,,,,,,,0.7883922365791448,115.4682980943835,None,"[93. 93. 93. 87. 87. 93. 87. 93. 87. 87. 87. 87. 93. 87. 93. 93. 93. 93.
 93. 93. 93. 87. 87. 93. 87. 93. 93. 93. 87. 93. 87. 87. 93. 87.]",116.33423368353397,None,s,1,0.7734905377328687,116.33423368353397,None,None,None,24_UA,28,M,24,2021_Nov_05_1732,Partial repeat,2021.2.3,120.10454102417894,
2,2,0,1,1,3,3,2,2,0,0,1,1,1,1,0,0,5,5,5,,,,,,,,,,,,,,,,,,,,,,,,,,24_UA,28,M,24,2021_Nov_05_1732,Partial repeat,2021.2.3,120.10454102417894,
2,2,0,1,1,3,2,2,2,0,0,0,1,1,1,0,0,6,6,6,0,0,0,0,,,,,,,117.13359039603893,None,0.8960174388626978,117.84958464371812,None,"[87. 93. 87. 93. 87. 93. 87. 87. 87. 87. 87. 87. 93. 93. 87. 93. 87. 87.
 87. 93. 93. 87. 87. 93. 87. 87. 93. 87. 87. 93. 93. 87. 87. 93.]",118.82375532625156,None,s,1,0.8441501752131444,118.82375532625156,None,None,None,24_UA,28,M,24,2021_Nov_05_1732,Partial repeat,2021.2.3,120.10454102417894,
2,2,0,1,1,3,2,2,2,0,0,0,1,1,1,0,0,6,6,6,1,0,1,0,,,,,,,,,0.9495231666706266,119.73964688141496,None,"[87. 87. 93. 87. 93. 87. 87. 93. 93. 93. 87. 93. 93. 93. 87. 87. 87. 87.
 93. 93. 87. 93. 93. 93. 87. 87. 93. 87. 93. 87. 87. 87. 87. 87.]",120.76377096425131,None,s,1,0.6640293559539714,120.76377096425131,None,None,None,24_UA,28,M,24,2021_Nov_05_1732,Partial repeat,2021.2.3,120.10454102417894,
2,2,0,1,1,3,2,2,2,0,0,0,1,1,1,0,0,6,6,6,,,,,,,,,,,,,,,,,,,,,,,,,,24_UA,28,M,24,2021_Nov_05_1732,Partial repeat,2021.2.3,120.10454102417894,
2,2,0,1,1,3,3,2,2,0,1,1,1,0,1,0,0,7,7,7,0,0,0,0,,,,,,,121.4465395956322,None,0.831023691144474,122.14592728907883,None,"[87. 93. 87. 87. 93. 87. 93. 87. 87. 87. 93. 93. 87. 93. 87. 93. 87. 93.
 93. 93. 93. 87. 87. 93. 87. 87. 87. 93. 93. 93. 93. 93. 87. 87.]",123.05348862717437,None,s,1,0.7751976966392249,123.05348862717437,None,None,None,24_UA,28,M,24,2021_Nov_05_1732,Partial repeat,2021.2.3,120.10454102417894,
2,2,0,1,1,3,3,2,2,0,1,1,1,0,1,0,0,7,7,7,1,0,1,0,,,,,,,,,0.9901251513886066,123.886101103064,None,"[93. 93. 87. 93. 87. 87. 87. 87. 93. 93. 93. 87. 87. 93. 93. 93. 87. 87.
 93. 93. 87. 93. 93. 87. 93. 93. 87. 93. 93. 87. 93. 93. 87. 87.]",124.95186376339552,None,l,1,0.8429757217236329,124.95186376339552,None,None,None,24_UA,28,M,24,2021_Nov_05_1732,Partial repeat,2021.2.3,120.10454102417894,
2,2,0,1,1,3,3,2,2,0,1,1,1,0,1,0,0,7,7,7,,,,,,,,,,,,,,,,,,,,,,,,,,24_UA,28,M,24,2021_Nov_05_1732,Partial repeat,2021.2.3,120.10454102417894,
2,2,0,1,1,3,3,2,3,1,1,1,0,1,1,0,0,8,8,8,0,0,0,0,,,,,,,125.8177900518458,None,0.7579376074885854,126.59212404178834,None,"[87. 87. 87. 93. 87. 93. 87. 93. 93. 87. 93. 93. 87. 87. 93. 87. 87. 93.
 93. 93. 87. 87. 93. 87. 93. 93. 93. 93. 93. 93. 87. 93. 93. 93.]",127.4247461390878,None,l,1,1.1701456865012005,127.4247461390878,None,None,None,24_UA,28,M,24,2021_Nov_05_1732,Partial repeat,2021.2.3,120.10454102417894,
2,2,0,1,1,3,3,2,3,1,1,1,0,1,1,0,0,8,8,8,1,0,1,0,,,,,,,,,0.7031574479516494,128.66535548224783,None,"[87. 87. 87. 93. 93. 87. 93. 93. 93. 87. 93. 87. 93. 93. 87. 93. 87. 87.
 87. 87. 93. 93. 93. 93. 93. 87. 87. 87. 87. 87. 93. 93. 87. 87.]",129.44802065139447,None,l,1,0.6517550020798808,129.44802065139447,None,None,None,24_UA,28,M,24,2021_Nov_05_1732,Partial repeat,2021.2.3,120.10454102417894,
2,2,0,1,1,3,3,2,3,1,1,1,0,1,1,0,0,8,8,8,,,,,,,,,,,,,,,,,,,,,,,,,,24_UA,28,M,24,2021_Nov_05_1732,Partial repeat,2021.2.3,120.10454102417894,
2,2,0,1,1,2,3,2,2,1,1,0,1,1,1,0,0,9,9,9,0,0,0,0,,,,,,,130.12243501218472,None,0.7630084526879383,130.88844904789948,None,"[87. 93. 93. 87. 93. 87. 87. 87. 93. 87. 87. 93. 87. 93. 93. 93. 87. 87.
 93. 87. 93. 87. 93. 87. 87. 87. 93. 93. 87. 93. 93. 87. 87. 93.]",131.72939655156006,None,l,1,1.0575594706497213,131.72939655156006,None,None,None,24_UA,28,M,24,2021_Nov_05_1732,Partial repeat,2021.2.3,120.10454102417894,
2,2,0,1,1,2,3,2,2,1,1,0,1,1,1,0,0,9,9,9,1,0,1,0,,,,,,,,,0.8139505240665351,132.8867396439964,None,"[87. 87. 87. 87. 93. 93. 87. 87. 93. 93. 93. 87. 87. 93. 87. 87. 93. 87.
 93. 93. 87. 93. 87. 87. 87. 87. 87. 87. 87. 87. 87. 93. 93. 93.]",133.77765979077958,None,l,1,1.0093212470928847,133.77765979077958,None,None,None,24_UA,28,M,24,2021_Nov_05_1732,Partial repeat,2021.2.3,120.10454102417894,
2,2,0,1,1,2,3,2,2,1,1,0,1,1,1,0,0,9,9,9,,,,,,,,,,,,,,,,,,,,,,,,,,24_UA,28,M,24,2021_Nov_05_1732,Partial repeat,2021.2.3,120.10454102417894,
2,2,0,1,1,3,2,2,3,1,0,0,0,0,1,0,0,10,10,10,0,0,0,0,,,,,,,134.81009997928413,None,0.8029999998231908,135.50949504914388,None,"[87. 93. 87. 87. 87. 93. 93. 93. 87. 93. 87. 93. 93. 87. 87. 87. 87. 87.
 93. 93. 87. 93. 87. 93. 93. 93. 93. 93. 87. 87. 93. 87. 87. 93.]",136.39208401672295,None,l,1,1.6747376649400394,136.39208401672295,None,None,None,24_UA,28,M,24,2021_Nov_05_1732,Partial repeat,2021.2.3,120.10454102417894,
2,2,0,1,1,3,2,2,3,1,0,0,0,0,1,0,0,10,10,10,1,0,1,0,,,,,,,,,0.7728972677414695,138.1322581514214,None,"[93. 93. 93. 87. 87. 87. 87. 93. 87. 87. 87. 87. 87. 87. 87. 93. 87. 93.
 93. 87. 93. 93. 87. 93. 93. 87. 93. 93. 93. 87. 93. 93. 93. 93.]",138.98156537780596,None,s,1,0.7006724972015945,138.98156537780596,None,None,None,24_UA,28,M,24,2021_Nov_05_1732,Partial repeat,2021.2.3,120.10454102417894,
2,2,0,1,1,3,2,2,3,1,0,0,0,0,1,0,0,10,10,10,,,,,,,,,,,,,,,,,,,,,,,,,,24_UA,28,M,24,2021_Nov_05_1732,Partial repeat,2021.2.3,120.10454102417894,
2,2,0,1,1,2,3,2,2,1,0,0,1,0,1,0,0,11,11,11,0,0,0,0,,,,,,,139.70590780251587,None,0.8584349878319101,140.52187908709675,None,"[93. 87. 87. 93. 93. 93. 87. 93. 87. 93. 93. 93. 93. 87. 93. 87. 87. 93.
 93. 87. 93. 93. 93. 87. 93. 93. 87. 87. 93. 87. 93. 87. 93. 87.]",141.4544201721219,None,l,1,1.0756830005739175,141.4544201721219,None,None,None,24_UA,28,M,24,2021_Nov_05_1732,Partial repeat,2021.2.3,120.10454102417894,
2,2,0,1,1,2,3,2,2,1,0,0,1,0,1,0,0,11,11,11,1,0,1,0,,,,,,,,,0.8894670080124226,142.60343625463065,None,"[93. 87. 93. 93. 93. 93. 87. 87. 87. 87. 87. 93. 93. 87. 87. 93. 87. 87.
 93. 87. 93. 87. 93. 87. 87. 93. 87. 87. 93. 87. 93. 93. 93. 87.]",143.5692786443833,None,s,1,0.7208710446284385,143.5692786443833,None,None,None,24_UA,28,M,24,2021_Nov_05_1732,Partial repeat,2021.2.3,120.10454102417894,
2,2,0,1,1,2,3,2,2,1,0,0,1,0,1,0,0,11,11,11,,,,,,,,,,,,,,,,,,,,,,,,,,24_UA,28,M,24,2021_Nov_05_1732,Partial repeat,2021.2.3,120.10454102417894,
2,2,0,1,1,3,2,3,3,0,0,0,1,1,1,0,0,12,12,12,0,0,0,0,,,,,,,144.3186338495325,None,0.7930154280708731,145.09297585731838,None,"[93. 87. 87. 93. 93. 93. 87. 87. 87. 93. 87. 87. 93. 87. 87. 87. 87. 87.
 87. 93. 93. 87. 93. 93. 87. 87. 87. 93. 93. 93. 93. 93. 87. 93.]",145.97555424134407,None,s,1,0.7305774440865207,145.97555424134407,None,None,None,24_UA,28,M,24,2021_Nov_05_1732,Partial repeat,2021.2.3,120.10454102417894,
2,2,0,1,1,3,2,3,3,0,0,0,1,1,1,0,0,12,12,12,1,0,1,0,,,,,,,,,0.9896837163519434,146.76653487472868,None,"[87. 93. 93. 93. 93. 87. 87. 93. 87. 93. 93. 93. 93. 87. 87. 93. 93. 93.
 93. 87. 93. 93. 93. 93. 93. 87. 87. 93. 93. 93. 87. 87. 93. 93.]",147.8322975350602,None,s,1,1.0508950404218922,147.8322975350602,None,None,None,24_UA,28,M,24,2021_Nov_05_1732,Partial repeat,2021.2.3,120.10454102417894,
2,2,0,1,1,3,2,3,3,0,0,0,1,1,1,0,0,12,12,12,,,,,,,,,,,,,,,,,,,,,,,,,,24_UA,28,M,24,2021_Nov_05_1732,Partial repeat,2021.2.3,120.10454102417894,
2,2,0,1,1,3,2,2,2,1,1,0,1,1,1,0,0,13,13,13,0,0,0,0,,,,,,,148.90638816746286,None,0.9344704052935906,149.7223556034769,None,"[87. 93. 93. 87. 93. 93. 93. 87. 87. 87. 87. 93. 93. 93. 93. 93. 87. 87.
 87. 87. 87. 87. 87. 87. 87. 93. 87. 87. 87. 87. 93. 93. 87. 87.]",150.73814914853938,None,l,1,1.18410122147543,150.73814914853938,None,None,None,24_UA,28,M,24,2021_Nov_05_1732,Partial repeat,2021.2.3,120.10454102417894,
2,2,0,1,1,3,2,2,2,1,1,0,1,1,1,0,0,13,13,13,1,0,1,0,,,,,,,,,0.8622228179155538,151.98710955515344,None,"[93. 93. 87. 87. 87. 93. 87. 93. 87. 93. 93. 87. 93. 87. 93. 87. 93. 93.
 87. 93. 87. 87. 93. 93. 93. 93. 93. 87. 87. 87. 93. 87. 87. 93.]",152.92794974801654,None,l,1,1.3134386334313604,152.92794974801654,None,None,None,24_UA,28,M,24,2021_Nov_05_1732,Partial repeat,2021.2.3,120.10454102417894,
2,2,0,1,1,3,2,2,2,1,1,0,1,1,1,0,0,13,13,13,,,,,,,,,,,,,,,,,,,,,,,,,,24_UA,28,M,24,2021_Nov_05_1732,Partial repeat,2021.2.3,120.10454102417894,
2,2,0,1,1,2,3,3,3,1,1,0,1,1,1,0,0,14,14,14,0,0,0,0,,,,,,,154.26013695757138,None,0.7986621839978482,155.2759288990601,None,"[87. 93. 93. 93. 87. 87. 93. 93. 93. 93. 93. 93. 87. 87. 93. 87. 93. 87.
 93. 93. 87. 87. 93. 93. 87. 87. 93. 93. 87. 93. 93. 93. 93. 87.]",156.15018604600482,None,l,1,1.1151570814581646,156.15018604600482,None,None,None,24_UA,28,M,24,2021_Nov_05_1732,Partial repeat,2021.2.3,120.10454102417894,
2,2,0,1,1,2,3,3,3,1,1,0,1,1,1,0,0,14,14,14,1,0,1,0,,,,,,,,,0.7902166468867072,157.3325092060877,None,"[93. 87. 93. 87. 87. 87. 93. 93. 93. 87. 87. 93. 87. 93. 87. 87. 87. 93.
 87. 93. 93. 93. 93. 87. 87. 87. 93. 93. 87. 93. 93. 93. 93. 87.]",158.19846884876097,None,l,1,1.1629042923705128,158.19846884876097,None,None,None,24_UA,28,M,24,2021_Nov_05_1732,Partial repeat,2021.2.3,120.10454102417894,
2,2,0,1,1,2,3,3,3,1,1,0,1,1,1,0,0,14,14,14,,,,,,,,,,,,,,,,,,,,,,,,,,24_UA,28,M,24,2021_Nov_05_1732,Partial repeat,2021.2.3,120.10454102417894,
2,2,0,1,1,2,3,2,3,0,1,0,0,0,1,0,0,15,15,15,0,0,0,0,,,,,,,159.38907636385193,None,0.7404430295379207,288.1545509591597,None,"[93. 87. 87. 87. 87. 87. 93. 87. 93. 93. 87. 93. 87. 87. 93. 87. 87. 93.
 93. 93. 87. 87. 87. 93. 87. 87. 87. 87. 93. 87. 87. 93. 93. 87.]",288.97825400908187,None,s,1,2.7452058363523975,288.97825400908187,None,None,None,24_UA,28,M,24,2021_Nov_05_1732,Partial repeat,2021.2.3,120.10454102417894,
2,2,0,1,1,2,3,2,3,0,1,0,0,0,1,0,0,15,15,15,1,0,1,0,,,,,,,,,0.747592340738401,291.7925332082996,None,"[93. 93. 87. 93. 87. 87. 93. 93. 87. 93. 93. 87. 93. 87. 93. 87. 87. 93.
 87. 93. 87. 93. 87. 93. 87. 87. 87. 87. 93. 87. 87. 93. 87. 93.]",292.6168372756547,None,l,1,0.6106783149516559,292.6168372756547,None,None,None,24_UA,28,M,24,2021_Nov_05_1732,Partial repeat,2021.2.3,120.10454102417894,
2,2,0,1,1,2,3,2,3,0,1,0,0,0,1,0,0,15,15,15,,,,,,,,,,,,,,,,,,,,,,,,,,24_UA,28,M,24,2021_Nov_05_1732,Partial repeat,2021.2.3,120.10454102417894,
2,2,0,1,1,3,2,3,2,1,0,0,0,0,1,0,0,16,16,16,0,0,0,0,,,,,,,293.2579506524271,None,0.9186706285436377,301.8839061386534,None,"[93. 93. 87. 93. 87. 87. 93. 93. 93. 87. 87. 93. 93. 93. 87. 87. 93. 87.
 93. 93. 87. 93. 87. 93. 93. 93. 93. 87. 93. 93. 87. 93. 87. 93.]",302.8830616995401,None,l,1,0.8076189630337467,302.8830616995401,None,None,None,24_UA,28,M,24,2021_Nov_05_1732,Partial repeat,2021.2.3,120.10454102417894,
2,2,0,1,1,3,2,3,2,1,0,0,0,0,1,0,0,16,16,16,1,0,1,0,,,,,,,,,0.7562839086882865,303.74901653150664,None,"[93. 87. 93. 93. 93. 87. 87. 93. 87. 93. 87. 87. 87. 87. 93. 87. 93. 93.
 87. 87. 93. 93. 87. 87. 93. 93. 93. 93. 87. 87. 93. 87. 87. 87.]",304.58160591601336,None,s,1,0.677096514038567,304.58160591601336,None,None,None,24_UA,28,M,24,2021_Nov_05_1732,Partial repeat,2021.2.3,120.10454102417894,
2,2,0,1,1,3,2,3,2,1,0,0,0,0,1,0,0,16,16,16,,,,,,,,,,,,,,,,,,,,,,,,,,24_UA,28,M,24,2021_Nov_05_1732,Partial repeat,2021.2.3,120.10454102417894,
2,2,0,1,1,2,2,3,3,1,0,1,1,0,1,0,0,17,17,17,0,0,0,0,,,,,,,305.2893302407974,None,0.9475950629693431,306.03868191810034,None,"[93. 93. 93. 87. 93. 87. 93. 87. 87. 87. 93. 93. 93. 87. 93. 87. 87. 87.
 87. 93. 87. 93. 93. 87. 87. 87. 87. 93. 93. 93. 93. 87. 93. 87.]",307.0628072837935,None,l,1,0.707953018401895,307.0628072837935,None,None,None,24_UA,28,M,24,2021_Nov_05_1732,Partial repeat,2021.2.3,120.10454102417894,
2,2,0,1,1,2,2,3,3,1,0,1,1,0,1,0,0,17,17,17,1,0,1,0,,,,,,,,,0.9883104387201647,307.8371534608559,None,"[87. 93. 87. 93. 93. 93. 93. 93. 87. 87. 93. 87. 93. 93. 93. 93. 93. 87.
 87. 93. 87. 87. 93. 93. 87. 87. 93. 93. 93. 87. 93. 93. 93. 87.]",308.9029093862009,None,s,1,0.6278765859169653,308.9029093862009,None,None,None,24_UA,28,M,24,2021_Nov_05_1732,Partial repeat,2021.2.3,120.10454102417894,
2,2,0,1,1,2,2,3,3,1,0,1,1,0,1,0,0,17,17,17,,,,,,,,,,,,,,,,,,,,,,,,,,24_UA,28,M,24,2021_Nov_05_1732,Partial repeat,2021.2.3,120.10454102417894,
2,2,0,1,1,3,2,2,2,0,1,0,1,0,1,0,0,18,18,18,0,0,0,0,,,,,,,309.5523577907443,None,0.974251341658998,310.19348848606023,None,"[87. 93. 87. 93. 93. 93. 93. 93. 93. 93. 93. 93. 93. 87. 93. 87. 87. 93.
 87. 93. 93. 93. 87. 87. 93. 87. 93. 93. 93. 87. 93. 93. 87. 93.]",311.2425666587369,None,s,1,0.6552559125884727,311.2425666587369,None,None,None,24_UA,28,M,24,2021_Nov_05_1732,Partial repeat,2021.2.3,120.10454102417894,
2,2,0,1,1,3,2,2,2,0,1,0,1,0,1,0,0,18,18,18,1,0,1,0,,,,,,,,,0.8663632589556294,311.96695205907963,None,"[87. 93. 93. 87. 87. 87. 87. 87. 87. 93. 87. 93. 87. 93. 87. 93. 87. 87.
 93. 87. 93. 87. 87. 93. 87. 87. 93. 93. 87. 87. 93. 87. 87. 93.]",312.9078188711792,None,l,1,0.8140293880242098,312.9078188711792,None,None,None,24_UA,28,M,24,2021_Nov_05_1732,Partial repeat,2021.2.3,120.10454102417894,
2,2,0,1,1,3,2,2,2,0,1,0,1,0,1,0,0,18,18,18,,,,,,,,,,,,,,,,,,,,,,,,,,24_UA,28,M,24,2021_Nov_05_1732,Partial repeat,2021.2.3,120.10454102417894,
2,2,0,1,1,2,2,3,2,1,1,1,0,1,1,0,0,19,19,19,0,0,0,0,,,,,,,313.7404345542054,None,0.8632424014059885,314.33991929560943,None,"[93. 93. 87. 87. 93. 87. 93. 87. 93. 87. 87. 93. 87. 93. 87. 87. 87. 93.
 93. 87. 93. 93. 87. 87. 87. 87. 87. 87. 87. 93. 87. 93. 93. 93.]",315.2807922012689,None,l,1,0.761100726937002,315.2807922012689,None,None,None,24_UA,28,M,24,2021_Nov_05_1732,Partial repeat,2021.2.3,120.10454102417894,
2,2,0,1,1,2,2,3,2,1,1,1,0,1,1,0,0,19,19,19,1,0,1,0,,,,,,,,,0.8023659456229684,316.1050783086612,None,"[87. 87. 93. 87. 87. 93. 93. 93. 93. 87. 87. 93. 93. 93. 93. 93. 87. 93.
 87. 93. 93. 87. 93. 93. 93. 87. 87. 93. 93. 87. 87. 93. 87. 93.]",316.9876611826767,None,l,1,0.830762624162162,316.9876611826767,None,None,None,24_UA,28,M,24,2021_Nov_05_1732,Partial repeat,2021.2.3,120.10454102417894,
2,2,0,1,1,2,2,3,2,1,1,1,0,1,1,0,0,19,19,19,,,,,,,,,,,,,,,,,,,,,,,,,,24_UA,28,M,24,2021_Nov_05_1732,Partial repeat,2021.2.3,120.10454102417894,
2,2,0,1,1,2,2,2,2,1,1,1,1,1,1,0,0,20,20,20,0,0,0,0,,,,,,,317.83693313055846,None,0.8365345058102599,318.44475161688024,None,"[87. 93. 87. 87. 87. 87. 87. 93. 87. 93. 87. 87. 87. 93. 87. 87. 93. 93.
 87. 87. 87. 87. 87. 93. 87. 87. 93. 87. 87. 93. 87. 87. 93. 93.]",319.36061719423014,None,l,1,0.8106500280046021,319.36061719423014,None,None,None,24_UA,28,M,24,2021_Nov_05_1732,Partial repeat,2021.2.3,120.10454102417894,
2,2,0,1,1,2,2,2,2,1,1,1,1,1,1,0,0,20,20,20,1,0,1,0,,,,,,,,,0.8901654351730497,320.2348833211581,None,"[93. 87. 93. 93. 93. 87. 87. 93. 87. 93. 93. 87. 93. 87. 93. 93. 93. 87.
 93. 87. 93. 93. 87. 87. 87. 93. 87. 93. 93. 87. 93. 87. 93. 93.]",321.2007173723541,None,l,1,0.569263595603843,321.2007173723541,None,None,None,24_UA,28,M,24,2021_Nov_05_1732,Partial repeat,2021.2.3,120.10454102417894,
2,2,0,1,1,2,2,2,2,1,1,1,1,1,1,0,0,20,20,20,,,,,,,,,,,,,,,,,,,,,,,,,,24_UA,28,M,24,2021_Nov_05_1732,Partial repeat,2021.2.3,120.10454102417894,
2,2,0,1,1,2,2,2,3,0,1,1,0,0,1,0,0,21,21,21,0,0,0,0,,,,,,,321.79189146023054,None,0.7982188538302166,322.40802380722016,None,"[93. 93. 93. 93. 93. 87. 93. 93. 87. 93. 93. 93. 87. 87. 87. 93. 93. 93.
 93. 93. 87. 93. 87. 93. 93. 87. 93. 87. 93. 87. 93. 93. 93. 93.]",323.2989577446897,None,s,1,0.631080515559006,323.2989577446897,None,None,None,24_UA,28,M,24,2021_Nov_05_1732,Partial repeat,2021.2.3,120.10454102417894,
2,2,0,1,1,2,2,2,3,0,1,1,0,0,1,0,0,21,21,21,1,0,1,0,,,,,,,,,0.7940565608800334,323.9983201017567,None,"[93. 87. 87. 93. 87. 87. 87. 87. 87. 87. 87. 93. 87. 93. 87. 93. 93. 93.
 93. 93. 87. 87. 87. 93. 87. 87. 87. 93. 93. 87. 93. 87. 93. 87.]",324.8809196528855,None,l,1,1.3521401150646852,324.8809196528855,None,None,None,24_UA,28,M,24,2021_Nov_05_1732,Partial repeat,2021.2.3,120.10454102417894,
2,2,0,1,1,2,2,2,3,0,1,1,0,0,1,0,0,21,21,21,,,,,,,,,,,,,,,,,,,,,,,,,,24_UA,28,M,24,2021_Nov_05_1732,Partial repeat,2021.2.3,120.10454102417894,
2,2,0,1,1,2,2,3,2,0,1,1,0,0,1,0,0,22,22,22,0,0,0,0,,,,,,,326.2547245935457,None,0.7627843754673976,328.32794994044525,None,"[93. 87. 93. 93. 93. 93. 87. 87. 87. 87. 87. 93. 87. 93. 93. 87. 93. 93.
 87. 87. 87. 87. 93. 93. 93. 93. 87. 87. 87. 87. 93. 93. 93. 93.]",329.1689134797889,None,s,1,0.6161852895093034,329.1689134797889,None,None,None,24_UA,28,M,24,2021_Nov_05_1732,Partial repeat,2021.2.3,120.10454102417894,
2,2,0,1,1,2,2,3,2,0,1,1,0,0,1,0,0,22,22,22,1,0,1,0,,,,,,,,,0.8203884344760765,329.84332976485894,None,"[87. 87. 93. 87. 93. 93. 87. 93. 87. 93. 87. 87. 93. 93. 93. 93. 87. 93.
 87. 87. 93. 93. 87. 93. 87. 93. 87. 87. 93. 87. 93. 87. 87. 87.]",330.7425682623034,None,l,1,0.5305480025672296,330.7425682623034,None,None,None,24_UA,28,M,24,2021_Nov_05_1732,Partial repeat,2021.2.3,120.10454102417894,
2,2,0,1,1,2,2,3,2,0,1,1,0,0,1,0,0,22,22,22,,,,,,,,,,,,,,,,,,,,,,,,,,24_UA,28,M,24,2021_Nov_05_1732,Partial repeat,2021.2.3,120.10454102417894,
2,2,0,1,1,2,3,3,2,1,1,0,0,1,1,0,0,23,23,23,0,0,0,0,,,,,,,331.29210665910796,None,0.9877845698762602,331.87493256995003,None,"[93. 93. 93. 93. 87. 93. 93. 87. 87. 87. 87. 93. 93. 93. 93. 93. 93. 93.
 87. 93. 87. 93. 93. 87. 93. 93. 87. 87. 93. 93. 87. 87. 93. 87.]",332.94069234385825,None,l,1,0.7479735953929776,332.94069234385825,None,None,None,24_UA,28,M,24,2021_Nov_05_1732,Partial repeat,2021.2.3,120.10454102417894,
2,2,0,1,1,2,3,3,2,1,1,0,0,1,1,0,0,23,23,23,1,0,1,0,,,,,,,,,0.8236650982671757,333.7566527241761,None,"[87. 93. 93. 87. 93. 87. 93. 93. 93. 93. 93. 93. 87. 87. 87. 93. 87. 87.
 93. 93. 87. 87. 93. 87. 87. 87. 93. 87. 93. 87. 93. 87. 87. 93.]",334.6558822416373,None,l,1,0.9852994719185517,334.6558822416373,None,None,None,24_UA,28,M,24,2021_Nov_05_1732,Partial repeat,2021.2.3,120.10454102417894,
2,2,0,1,1,2,3,3,2,1,1,0,0,1,1,0,0,23,23,23,,,,,,,,,,,,,,,,,,,,,,,,,,24_UA,28,M,24,2021_Nov_05_1732,Partial repeat,2021.2.3,120.10454102417894,
2,2,0,1,1,2,2,3,3,1,1,1,1,1,1,0,0,24,24,24,0,0,0,0,,,,,,,335.6716815595428,None,0.8073671093127125,336.2295254784585,None,"[93. 93. 87. 93. 87. 87. 93. 93. 87. 93. 93. 87. 93. 87. 93. 93. 93. 87.
 87. 87. 87. 87. 93. 87. 87. 93. 87. 93. 87. 87. 93. 93. 87. 93.]",337.1121218224507,None,l,1,0.6087184336647624,337.1121218224507,None,None,None,24_UA,28,M,24,2021_Nov_05_1732,Partial repeat,2021.2.3,120.10454102417894,
2,2,0,1,1,2,2,3,3,1,1,1,1,1,1,0,0,24,24,24,1,0,1,0,,,,,,,,,0.9130318825063708,337.7948696074418,None,"[87. 87. 93. 87. 87. 87. 87. 87. 87. 87. 93. 87. 87. 93. 93. 93. 93. 87.
 93. 93. 87. 93. 87. 87. 87. 93. 93. 93. 87. 93. 93. 87. 87. 87.]",338.78569046127086,None,l,1,0.6315760181896621,338.78569046127086,None,None,None,24_UA,28,M,24,2021_Nov_05_1732,Partial repeat,2021.2.3,120.10454102417894,
2,2,0,1,1,2,2,3,3,1,1,1,1,1,1,0,0,24,24,24,,,,,,,,,,,,,,,,,,,,,,,,,,24_UA,28,M,24,2021_Nov_05_1732,Partial repeat,2021.2.3,120.10454102417894,
2,2,0,1,1,2,2,2,2,1,0,1,1,0,1,0,0,25,25,25,0,0,0,0,,,,,,,339.43512635798106,None,0.7199005193425733,339.9763361412879,None,"[93. 93. 87. 93. 93. 93. 87. 93. 93. 87. 93. 93. 87. 87. 87. 93. 87. 87.
 87. 93. 93. 87. 87. 87. 93. 87. 93. 87. 93. 93. 87. 93. 87. 93.]",340.7756540474402,None,l,1,0.5616395900542557,340.7756540474402,None,None,None,24_UA,28,M,24,2021_Nov_05_1732,Partial repeat,2021.2.3,120.10454102417894,
2,2,0,1,1,2,2,2,2,1,0,1,1,0,1,0,0,25,25,25,1,0,1,0,,,,,,,,,0.9836718404863487,341.40010057581094,None,"[87. 93. 87. 93. 93. 87. 93. 93. 87. 93. 93. 87. 93. 87. 87. 87. 87. 93.
 87. 87. 93. 87. 87. 87. 87. 87. 87. 87. 87. 93. 87. 87. 87. 87.]",342.46588119610897,None,s,1,0.7584205227285565,342.46588119610897,None,None,None,24_UA,28,M,24,2021_Nov_05_1732,Partial repeat,2021.2.3,120.10454102417894,
2,2,0,1,1,2,2,2,2,1,0,1,1,0,1,0,0,25,25,25,,,,,,,,,,,,,,,,,,,,,,,,,,24_UA,28,M,24,2021_Nov_05_1732,Partial repeat,2021.2.3,120.10454102417894,
2,2,0,1,1,3,3,3,2,1,0,1,0,0,1,0,0,26,26,26,0,0,0,0,,,,,,,343.2485351402793,None,0.8199897002913922,343.92296200889905,None,"[93. 93. 87. 93. 87. 87. 87. 87. 93. 87. 93. 93. 87. 87. 93. 87. 93. 87.
 87. 87. 93. 87. 87. 93. 87. 93. 87. 87. 93. 87. 93. 93. 93. 87.]",344.82219505421017,None,l,1,0.6593764419158106,344.82219505421017,None,None,None,24_UA,28,M,24,2021_Nov_05_1732,Partial repeat,2021.2.3,120.10454102417894,
2,2,0,1,1,3,3,3,2,1,0,1,0,0,1,0,0,26,26,26,1,0,1,0,,,,,,,,,0.8854015287090674,345.55489559807756,None,"[87. 93. 93. 93. 87. 87. 93. 87. 93. 87. 93. 93. 87. 87. 87. 87. 87. 93.
 93. 87. 93. 87. 93. 93. 87. 93. 93. 87. 93. 93. 87. 87. 87. 87.]",346.5207418363934,None,s,1,0.5436097085221263,346.5207418363934,None,None,None,24_UA,28,M,24,2021_Nov_05_1732,Partial repeat,2021.2.3,120.10454102417894,
2,2,0,1,1,3,3,3,2,1,0,1,0,0,1,0,0,26,26,26,,,,,,,,,,,,,,,,,,,,,,,,,,24_UA,28,M,24,2021_Nov_05_1732,Partial repeat,2021.2.3,120.10454102417894,
2,2,0,1,1,2,2,2,3,1,1,1,0,1,1,0,0,27,27,27,0,0,0,0,,,,,,,347.0785889624458,None,0.8513329865005568,347.6114730186782,None,"[93. 87. 93. 93. 87. 87. 87. 87. 87. 93. 93. 87. 93. 87. 87. 93. 87. 87.
 93. 93. 93. 87. 93. 93. 87. 87. 87. 93. 87. 93. 87. 87. 93. 93.]",348.54401057585346,None,l,1,0.64953181486635,348.54401057585346,None,None,None,24_UA,28,M,24,2021_Nov_05_1732,Partial repeat,2021.2.3,120.10454102417894,
2,2,0,1,1,2,2,2,3,1,1,1,0,1,1,0,0,27,27,27,1,0,1,0,,,,,,,,,0.8138231181905516,349.25173586278106,None,"[87. 93. 93. 93. 93. 93. 93. 93. 87. 93. 93. 93. 93. 93. 93. 93. 93. 87.
 93. 87. 87. 93. 93. 87. 93. 93. 87. 93. 87. 87. 93. 93. 93. 93.]",350.1509570416856,None,l,1,0.8654792383495078,350.1509570416856,None,None,None,24_UA,28,M,24,2021_Nov_05_1732,Partial repeat,2021.2.3,120.10454102417894,
2,2,0,1,1,2,2,2,3,1,1,1,0,1,1,0,0,27,27,27,,,,,,,,,,,,,,,,,,,,,,,,,,24_UA,28,M,24,2021_Nov_05_1732,Partial repeat,2021.2.3,120.10454102417894,
2,2,0,1,1,2,3,3,3,0,1,0,1,0,1,0,0,28,28,28,0,0,0,0,,,,,,,351.033546329978,None,0.8091065985719184,351.54976706565503,None,"[93. 87. 93. 93. 87. 87. 87. 87. 93. 93. 93. 87. 93. 87. 87. 93. 87. 93.
 93. 87. 87. 87. 87. 87. 93. 93. 93. 93. 93. 87. 93. 87. 87. 93.]",352.4406785531719,None,s,1,0.6572837851708755,352.4406785531719,None,None,None,24_UA,28,M,24,2021_Nov_05_1732,Partial repeat,2021.2.3,120.10454102417894,
2,2,0,1,1,2,3,3,3,0,1,0,1,0,1,0,0,28,28,28,1,0,1,0,,,,,,,,,0.7313109964497835,353.1567266807506,None,"[87. 93. 93. 93. 87. 93. 93. 87. 87. 87. 93. 93. 93. 93. 87. 93. 93. 87.
 87. 93. 87. 93. 93. 93. 87. 87. 87. 93. 87. 93. 93. 87. 93. 87.]",353.9643715968268,None,l,1,0.572121795899875,353.9643715968268,None,None,None,24_UA,28,M,24,2021_Nov_05_1732,Partial repeat,2021.2.3,120.10454102417894,
2,2,0,1,1,2,3,3,3,0,1,0,1,0,1,0,0,28,28,28,,,,,,,,,,,,,,,,,,,,,,,,,,24_UA,28,M,24,2021_Nov_05_1732,Partial repeat,2021.2.3,120.10454102417894,
2,2,0,1,1,2,2,3,2,1,0,1,0,0,1,0,0,29,29,29,0,0,0,0,,,,,,,354.55552708331015,None,0.9271884233239983,355.038449400683,None,"[93. 87. 87. 87. 93. 93. 87. 93. 93. 87. 87. 87. 87. 93. 87. 93. 87. 93.
 93. 87. 93. 87. 87. 93. 93. 93. 93. 93. 93. 93. 93. 93. 93. 93.]",356.0542487185885,None,l,1,0.5942673960598768,356.0542487185885,None,None,None,24_UA,28,M,24,2021_Nov_05_1732,Partial repeat,2021.2.3,120.10454102417894,
2,2,0,1,1,2,2,3,2,1,0,1,0,0,1,0,0,29,29,29,1,0,1,0,,,,,,,,,0.7222457040831565,356.7203472944275,None,"[93. 87. 93. 87. 93. 93. 93. 93. 87. 93. 87. 93. 87. 93. 87. 87. 93. 87.
 87. 87. 87. 93. 93. 93. 93. 93. 87. 93. 93. 93. 93. 93. 87. 93.]",357.519669049143,None,s,1,0.4718820944945037,357.519669049143,None,None,None,24_UA,28,M,24,2021_Nov_05_1732,Partial repeat,2021.2.3,120.10454102417894,
2,2,0,1,1,2,2,3,2,1,0,1,0,0,1,0,0,29,29,29,,,,,,,,,,,,,,,,,,,,,,,,,,24_UA,28,M,24,2021_Nov_05_1732,Partial repeat,2021.2.3,120.10454102417894,
2,2,0,1,1,3,2,3,2,1,1,0,0,1,1,0,0,30,30,30,0,0,0,0,,,,,,,358.01092094215346,None,0.8327118468090707,358.485503100339,None,"[93. 93. 87. 87. 87. 93. 93. 87. 87. 87. 93. 87. 93. 87. 93. 93. 87. 93.
 87. 93. 93. 87. 87. 87. 87. 87. 87. 87. 87. 87. 87. 87. 87. 87.]",359.39306989056786,None,l,1,0.5984988923228229,359.39306989056786,None,None,None,24_UA,28,M,24,2021_Nov_05_1732,Partial repeat,2021.2.3,120.10454102417894,
2,2,0,1,1,3,2,3,2,1,1,0,0,1,1,0,0,30,30,30,1,0,1,0,,,,,,,,,0.7801689996294062,360.05915178929354,None,"[93. 87. 87. 87. 93. 87. 87. 87. 93. 87. 87. 87. 87. 87. 87. 93. 87. 87.
 93. 87. 87. 93. 87. 87. 93. 87. 93. 93. 93. 87. 93. 87. 87. 87.]",360.9250893027238,None,l,1,0.5705095682424144,360.9250893027238,None,None,None,24_UA,28,M,24,2021_Nov_05_1732,Partial repeat,2021.2.3,120.10454102417894,
2,2,0,1,1,3,2,3,2,1,1,0,0,1,1,0,0,30,30,30,,,,,,,,,,,,,,,,,,,,,,,,,,24_UA,28,M,24,2021_Nov_05_1732,Partial repeat,2021.2.3,120.10454102417894,
2,2,0,1,1,2,3,2,3,1,0,0,0,0,1,0,0,31,31,31,0,0,0,0,,,,,,,361.51624895848363,None,0.8696486756379029,361.9492124234239,None,"[87. 87. 93. 87. 93. 87. 93. 87. 87. 93. 87. 93. 87. 87. 87. 87. 87. 93.
 87. 93. 93. 93. 87. 87. 93. 87. 93. 93. 93. 87. 87. 93. 93. 93.]",362.89840528331115,None,l,1,0.533406844289857,362.89840528331115,None,None,None,24_UA,28,M,24,2021_Nov_05_1732,Partial repeat,2021.2.3,120.10454102417894,
2,2,0,1,1,2,3,2,3,1,0,0,0,0,1,0,0,31,31,31,1,0,1,0,,,,,,,,,0.9900166543831561,363.4895591662207,None,"[93. 87. 87. 93. 93. 93. 93. 93. 87. 87. 93. 93. 87. 87. 87. 93. 93. 93.
 93. 87. 93. 87. 87. 93. 93. 87. 93. 93. 93. 93. 93. 93. 93. 93.]",364.55533850366555,None,s,1,1.0363202073385764,364.55533850366555,None,None,None,24_UA,28,M,24,2021_Nov_05_1732,Partial repeat,2021.2.3,120.10454102417894,
2,2,0,1,1,2,3,2,3,1,0,0,0,0,1,0,0,31,31,31,,,,,,,,,,,,,,,,,,,,,,,,,,24_UA,28,M,24,2021_Nov_05_1732,Partial repeat,2021.2.3,120.10454102417894,
2,2,0,1,1,2,2,2,2,0,1,1,1,0,1,0,0,32,32,32,0,0,0,0,,,,,,,365.62105658479777,None,0.7925492887521657,365.95412030483203,None,"[93. 87. 87. 87. 87. 93. 93. 87. 93. 93. 87. 93. 87. 87. 87. 93. 87. 87.
 93. 93. 93. 93. 93. 93. 87. 93. 87. 93. 93. 93. 87. 87. 93. 87.]",366.8283867524733,None,s,1,0.6353055975487223,366.8283867524733,None,None,None,24_UA,28,M,24,2021_Nov_05_1732,Partial repeat,2021.2.3,120.10454102417894,
2,2,0,1,1,2,2,2,2,0,1,1,1,0,1,0,0,32,32,32,1,0,1,0,,,,,,,,,0.9570840652138088,367.53610690798087,None,"[93. 87. 93. 93. 87. 93. 93. 87. 93. 93. 93. 93. 87. 93. 93. 93. 87. 93.
 93. 93. 87. 87. 87. 93. 93. 87. 93. 93. 87. 93. 87. 87. 87. 87.]",368.56855575575173,None,l,1,0.38317686051595956,368.56855575575173,None,None,None,24_UA,28,M,24,2021_Nov_05_1732,Partial repeat,2021.2.3,120.10454102417894,
2,2,0,1,1,2,2,2,2,0,1,1,1,0,1,0,0,32,32,32,,,,,,,,,,,,,,,,,,,,,,,,,,24_UA,28,M,24,2021_Nov_05_1732,Partial repeat,2021.2.3,120.10454102417894,
2,2,0,1,1,3,3,3,3,1,0,1,1,0,1,0,0,33,33,33,0,0,0,0,,,,,,,368.9598870574737,None,0.7489838864303696,369.3928428252839,None,"[87. 87. 93. 93. 93. 93. 93. 87. 93. 87. 93. 93. 93. 87. 87. 87. 93. 87.
 87. 87. 87. 93. 93. 87. 87. 87. 93. 93. 93. 93. 93. 87. 93. 87.]",370.22547582685,None,l,1,0.7902661080770486,370.22547582685,None,None,None,24_UA,28,M,24,2021_Nov_05_1732,Partial repeat,2021.2.3,120.10454102417894,
2,2,0,1,1,3,3,3,3,1,0,1,1,0,1,0,0,33,33,33,1,0,1,0,,,,,,,,,0.8939093369862815,371.0830725396627,None,"[93. 87. 93. 87. 93. 93. 93. 93. 87. 87. 87. 93. 93. 87. 87. 87. 87. 93.
 93. 87. 87. 93. 87. 93. 93. 93. 93. 87. 87. 87. 87. 93. 87. 87.]",372.0572396943462,None,s,1,0.797562344243488,372.0572396943462,None,None,None,24_UA,28,M,24,2021_Nov_05_1732,Partial repeat,2021.2.3,120.10454102417894,
2,2,0,1,1,3,3,3,3,1,0,1,1,0,1,0,0,33,33,33,,,,,,,,,,,,,,,,,,,,,,,,,,24_UA,28,M,24,2021_Nov_05_1732,Partial repeat,2021.2.3,120.10454102417894,
2,2,0,1,1,2,3,3,2,1,0,0,0,0,1,0,0,34,34,34,0,0,0,0,,,,,,,372.8732311838903,None,0.9303148851589227,373.2562547185007,None,"[93. 93. 93. 87. 93. 93. 87. 93. 93. 87. 87. 93. 93. 87. 87. 87. 93. 93.
 87. 87. 93. 93. 87. 93. 87. 87. 93. 93. 87. 93. 87. 93. 93. 87.]",374.26368052299586,None,l,1,0.6391326738630596,374.26368052299586,None,None,None,24_UA,28,M,24,2021_Nov_05_1732,Partial repeat,2021.2.3,120.10454102417894,
2,2,0,1,1,2,3,3,2,1,0,0,0,0,1,0,0,34,34,34,1,0,1,0,,,,,,,,,0.7711443625129936,374.96308425212555,None,"[93. 93. 93. 93. 87. 87. 93. 93. 87. 87. 87. 93. 93. 87. 87. 87. 87. 93.
 93. 93. 87. 87. 87. 87. 93. 93. 93. 87. 87. 87. 93. 87. 93. 93.]",375.8123622935673,None,s,1,0.5304713519981306,375.8123622935673,None,None,None,24_UA,28,M,24,2021_Nov_05_1732,Partial repeat,2021.2.3,120.10454102417894,
2,2,0,1,1,2,3,3,2,1,0,0,0,0,1,0,0,34,34,34,,,,,,,,,,,,,,,,,,,,,,,,,,24_UA,28,M,24,2021_Nov_05_1732,Partial repeat,2021.2.3,120.10454102417894,
2,2,0,1,1,2,2,2,3,0,0,1,0,1,1,0,0,35,35,35,0,0,0,0,,,,,,,376.3535563619007,None,0.7656989239233664,376.7115850760383,None,"[93. 93. 93. 87. 87. 87. 93. 93. 93. 87. 93. 93. 87. 93. 87. 87. 93. 93.
 93. 87. 87. 87. 87. 93. 87. 87. 93. 93. 87. 87. 87. 87. 87. 93.]",377.5608586274866,None,s,1,0.6700151560362428,377.5608586274866,None,None,None,24_UA,28,M,24,2021_Nov_05_1732,Partial repeat,2021.2.3,120.10454102417894,
2,2,0,1,1,2,2,2,3,0,0,1,0,1,1,0,0,35,35,35,1,0,1,0,,,,,,,,,0.8981416748657468,378.3018999719716,None,"[87. 87. 87. 93. 87. 93. 87. 93. 93. 87. 87. 87. 87. 93. 93. 87. 93. 87.
 87. 87. 87. 93. 93. 93. 93. 93. 87. 93. 93. 93. 87. 87. 93. 93.]",379.2760661645152,None,s,1,0.5548260279720125,379.2760661645152,None,None,None,24_UA,28,M,24,2021_Nov_05_1732,Partial repeat,2021.2.3,120.10454102417894,
2,2,0,1,1,2,2,2,3,0,0,1,0,1,1,0,0,35,35,35,,,,,,,,,,,,,,,,,,,,,,,,,,24_UA,28,M,24,2021_Nov_05_1732,Partial repeat,2021.2.3,120.10454102417894,
2,2,0,1,1,3,2,3,3,0,1,0,1,0,1,0,0,36,36,36,0,0,0,0,,,,,,,379.85057276255975,None,0.7394077762245111,380.3834504045153,None,"[93. 93. 93. 87. 93. 93. 93. 87. 93. 87. 93. 87. 93. 93. 93. 87. 93. 93.
 87. 87. 87. 93. 87. 87. 87. 93. 87. 93. 87. 87. 87. 93. 87. 87.]",381.1994200855297,None,s,1,0.5355036703149381,381.1994200855297,None,None,None,24_UA,28,M,24,2021_Nov_05_1732,Partial repeat,2021.2.3,120.10454102417894,
2,2,0,1,1,3,2,3,3,0,1,0,1,0,1,0,0,36,36,36,1,0,1,0,,,,,,,,,0.8306310779843158,381.80722959186824,None,"[87. 93. 93. 93. 87. 87. 87. 93. 93. 87. 93. 93. 87. 93. 87. 93. 93. 87.
 93. 93. 87. 87. 87. 87. 87. 87. 93. 93. 93. 93. 93. 87. 93. 87.]",382.71479125067344,None,l,1,0.44418077129739686,382.71479125067344,None,None,None,24_UA,28,M,24,2021_Nov_05_1732,Partial repeat,2021.2.3,120.10454102417894,
2,2,0,1,1,3,2,3,3,0,1,0,1,0,1,0,0,36,36,36,,,,,,,,,,,,,,,,,,,,,,,,,,24_UA,28,M,24,2021_Nov_05_1732,Partial repeat,2021.2.3,120.10454102417894,
2,2,0,1,1,3,3,3,3,0,1,1,1,0,1,0,0,37,37,37,0,0,0,0,,,,,,,383.18938431312563,None,0.8657053927545929,383.50579337187446,None,"[93. 93. 93. 87. 87. 93. 93. 93. 87. 93. 93. 93. 93. 93. 93. 87. 93. 93.
 93. 93. 87. 93. 93. 87. 87. 87. 87. 87. 93. 93. 93. 87. 87. 87.]",384.4466306783179,None,s,1,0.6013596583325125,384.4466306783179,None,None,None,24_UA,28,M,24,2021_Nov_05_1732,Partial repeat,2021.2.3,120.10454102417894,
2,2,0,1,1,3,3,3,3,0,1,1,1,0,1,0,0,37,37,37,1,0,1,0,,,,,,,,,0.8112856017344748,385.11274593126655,None,"[93. 93. 93. 93. 87. 87. 87. 93. 93. 93. 87. 87. 93. 93. 87. 87. 93. 93.
 93. 93. 87. 87. 93. 87. 93. 93. 87. 87. 93. 93. 93. 93. 87. 87.]",386.0036330445437,None,l,1,0.7393710924152401,386.0036330445437,None,None,None,24_UA,28,M,24,2021_Nov_05_1732,Partial repeat,2021.2.3,120.10454102417894,
2,2,0,1,1,3,3,3,3,0,1,1,1,0,1,0,0,37,37,37,,,,,,,,,,,,,,,,,,,,,,,,,,24_UA,28,M,24,2021_Nov_05_1732,Partial repeat,2021.2.3,120.10454102417894,
2,2,0,1,1,3,2,2,3,0,0,0,0,1,1,0,0,38,38,38,0,0,0,0,,,,,,,386.76132905031045,None,0.7529145562269215,387.16930827832766,None,"[93. 93. 93. 87. 87. 87. 93. 93. 93. 93. 87. 87. 87. 87. 87. 87. 87. 93.
 93. 87. 93. 93. 93. 93. 93. 93. 87. 93. 87. 93. 93. 93. 93. 87.]",388.00193582776046,None,s,1,0.6923672958037059,388.00193582776046,None,None,None,24_UA,28,M,24,2021_Nov_05_1732,Partial repeat,2021.2.3,120.10454102417894,
2,2,0,1,1,3,2,2,3,0,0,0,0,1,1,0,0,38,38,38,1,0,1,0,,,,,,,,,0.7504072016789611,388.7679476184785,None,"[93. 93. 93. 93. 87. 87. 87. 87. 87. 87. 87. 87. 87. 93. 87. 93. 87. 93.
 93. 93. 87. 93. 87. 87. 93. 87. 87. 93. 93. 87. 93. 87. 87. 87.]",389.60056971577797,None,s,1,0.5655061141551414,389.60056971577797,None,None,None,24_UA,28,M,24,2021_Nov_05_1732,Partial repeat,2021.2.3,120.10454102417894,
2,2,0,1,1,3,2,2,3,0,0,0,0,1,1,0,0,38,38,38,,,,,,,,,,,,,,,,,,,,,,,,,,24_UA,28,M,24,2021_Nov_05_1732,Partial repeat,2021.2.3,120.10454102417894,
2,2,0,1,1,3,3,2,3,1,0,1,0,0,1,0,0,39,39,39,0,0,0,0,,,,,,,390.1833997959002,None,0.700270368045002,390.5580783606165,None,"[93. 93. 93. 93. 87. 93. 87. 87. 87. 93. 87. 93. 87. 93. 87. 93. 87. 87.
 87. 93. 93. 87. 87. 93. 87. 93. 93. 93. 93. 87. 87. 93. 93. 87.]",391.33242197196523,None,l,1,0.6105343145100051,391.33242197196523,None,None,None,24_UA,28,M,24,2021_Nov_05_1732,Partial repeat,2021.2.3,120.10454102417894,
2,2,0,1,1,3,3,2,3,1,0,1,0,0,1,0,0,39,39,39,1,0,1,0,,,,,,,,,0.9381398324123066,392.0068459541653,None,"[87. 87. 93. 87. 93. 93. 93. 93. 87. 93. 87. 87. 93. 93. 93. 93. 93. 87.
 87. 93. 87. 93. 93. 93. 87. 87. 93. 87. 87. 93. 87. 93. 93. 93.]",393.0226443099309,None,s,1,0.6154787572777423,393.0226443099309,None,None,None,24_UA,28,M,24,2021_Nov_05_1732,Partial repeat,2021.2.3,120.10454102417894,
2,2,0,1,1,3,3,2,3,1,0,1,0,0,1,0,0,39,39,39,,,,,,,,,,,,,,,,,,,,,,,,,,24_UA,28,M,24,2021_Nov_05_1732,Partial repeat,2021.2.3,120.10454102417894,
2,2,0,1,1,3,2,2,3,1,1,0,0,1,1,0,0,40,40,40,0,0,0,0,,,,,,,393.65543484605587,None,0.9064076177043976,394.03844138283966,None,"[93. 93. 87. 87. 93. 93. 93. 93. 93. 87. 93. 93. 87. 87. 87. 87. 87. 87.
 87. 93. 87. 87. 93. 87. 93. 93. 93. 93. 87. 93. 93. 93. 87. 87.]",395.02093747173785,None,l,1,0.5692087535644532,395.02093747173785,None,None,None,24_UA,28,M,24,2021_Nov_05_1732,Partial repeat,2021.2.3,120.10454102417894,
2,2,0,1,1,3,2,2,3,1,1,0,0,1,1,0,0,40,40,40,1,0,1,0,,,,,,,,,0.7893254625155477,395.6537466092559,None,"[93. 93. 93. 93. 93. 93. 93. 87. 93. 87. 87. 87. 87. 87. 93. 93. 93. 93.
 87. 87. 87. 93. 93. 93. 93. 87. 93. 93. 93. 93. 87. 87. 93. 87.]",396.5196539755998,None,l,1,0.7825231177521346,396.5196539755998,None,None,None,24_UA,28,M,24,2021_Nov_05_1732,Partial repeat,2021.2.3,120.10454102417894,
2,2,0,1,1,3,2,2,3,1,1,0,0,1,1,0,0,40,40,40,,,,,,,,,,,,,,,,,,,,,,,,,,24_UA,28,M,24,2021_Nov_05_1732,Partial repeat,2021.2.3,120.10454102417894,
2,2,0,1,1,3,3,2,3,0,1,1,0,0,1,0,0,41,41,41,0,0,0,0,,,,,,,397.32729343954634,None,0.9118877666141864,397.8601678743689,None,"[87. 93. 87. 87. 93. 87. 87. 93. 93. 93. 87. 93. 93. 87. 93. 87. 87. 93.
 87. 93. 93. 93. 87. 87. 93. 87. 93. 87. 93. 87. 87. 93. 93. 87.]",398.8509945010446,None,s,1,0.6587465602533484,398.8509945010446,None,None,None,24_UA,28,M,24,2021_Nov_05_1732,Partial repeat,2021.2.3,120.10454102417894,
2,2,0,1,1,3,3,2,3,0,1,1,0,0,1,0,0,41,41,41,1,0,1,0,,,,,,,,,0.9025626521950996,399.5836963277652,None,"[93. 87. 87. 93. 87. 87. 93. 93. 93. 87. 87. 93. 93. 87. 93. 93. 93. 87.
 93. 93. 87. 87. 87. 93. 87. 87. 87. 93. 87. 87. 87. 93. 93. 87.]",400.5661933788033,None,l,1,0.8480551849497715,400.5661933788033,None,None,None,24_UA,28,M,24,2021_Nov_05_1732,Partial repeat,2021.2.3,120.10454102417894,
2,2,0,1,1,3,3,2,3,0,1,1,0,0,1,0,0,41,41,41,,,,,,,,,,,,,,,,,,,,,,,,,,24_UA,28,M,24,2021_Nov_05_1732,Partial repeat,2021.2.3,120.10454102417894,
2,2,0,1,1,2,3,2,3,1,1,0,0,1,1,0,0,42,42,42,0,0,0,0,,,,,,,401.432107800847,None,0.7267340901371092,401.9899748111493,None,"[87. 87. 87. 93. 87. 93. 93. 93. 87. 93. 93. 87. 93. 93. 87. 93. 87. 87.
 87. 93. 93. 87. 93. 87. 93. 93. 87. 87. 87. 87. 93. 93. 87. 93.]",402.79761748223245,None,l,1,0.5528109839324316,402.79761748223245,None,None,None,24_UA,28,M,24,2021_Nov_05_1732,Partial repeat,2021.2.3,120.10454102417894,
2,2,0,1,1,2,3,2,3,1,1,0,0,1,1,0,0,42,42,42,1,0,1,0,,,,,,,,,0.8397092293814564,403.4220806877129,None,"[93. 93. 93. 87. 87. 93. 93. 87. 87. 87. 93. 93. 93. 93. 87. 93. 93. 93.
 87. 87. 93. 87. 93. 87. 87. 93. 93. 93. 93. 87. 93. 93. 93. 93.]",404.33799244783586,None,l,1,0.6113444372567756,404.33799244783586,None,None,None,24_UA,28,M,24,2021_Nov_05_1732,Partial repeat,2021.2.3,120.10454102417894,
2,2,0,1,1,2,3,2,3,1,1,0,0,1,1,0,0,42,42,42,,,,,,,,,,,,,,,,,,,,,,,,,,24_UA,28,M,24,2021_Nov_05_1732,Partial repeat,2021.2.3,120.10454102417894,
2,2,0,1,1,2,2,3,2,0,0,1,0,1,1,0,0,43,43,43,0,0,0,0,,,,,,,404.97075764757756,None,0.944981752096157,405.47032596696954,None,"[87. 87. 93. 87. 93. 93. 93. 87. 93. 87. 87. 93. 93. 93. 93. 87. 87. 93.
 93. 93. 93. 87. 87. 87. 93. 93. 87. 93. 93. 93. 93. 87. 87. 93.]",406.4944561433658,None,s,1,0.5192441282852087,406.4944561433658,None,None,None,24_UA,28,M,24,2021_Nov_05_1732,Partial repeat,2021.2.3,120.10454102417894,
2,2,0,1,1,2,2,3,2,0,0,1,0,1,1,0,0,43,43,43,1,0,1,0,,,,,,,,,0.9500232709137137,407.0772749985081,None,"[87. 93. 93. 87. 93. 93. 87. 93. 87. 87. 87. 87. 93. 93. 87. 93. 93. 93.
 87. 93. 93. 87. 87. 93. 87. 87. 87. 93. 87. 87. 93. 87. 93. 93.]",408.10141287203805,None,s,1,0.5599426939843397,408.10141287203805,None,None,None,24_UA,28,M,24,2021_Nov_05_1732,Partial repeat,2021.2.3,120.10454102417894,
2,2,0,1,1,2,2,3,2,0,0,1,0,1,1,0,0,43,43,43,,,,,,,,,,,,,,,,,,,,,,,,,,24_UA,28,M,24,2021_Nov_05_1732,Partial repeat,2021.2.3,120.10454102417894,
2,2,0,1,1,3,2,3,3,1,1,0,1,1,1,0,0,44,44,44,0,0,0,0,,,,,,,408.6842352550302,None,0.9161545831767293,409.2004810063736,None,"[87. 87. 87. 93. 93. 87. 87. 87. 93. 93. 93. 93. 93. 93. 93. 93. 87. 87.
 93. 87. 87. 93. 93. 87. 87. 87. 93. 87. 93. 87. 93. 87. 93. 87.]",410.19960064733095,None,l,1,0.62178142247285,410.19960064733095,None,None,None,24_UA,28,M,24,2021_Nov_05_1732,Partial repeat,2021.2.3,120.10454102417894,
2,2,0,1,1,3,2,3,3,1,1,0,1,1,1,0,0,44,44,44,1,0,1,0,,,,,,,,,0.8862427175359345,410.8906950057826,None,"[87. 87. 93. 93. 87. 87. 87. 93. 87. 87. 87. 87. 87. 93. 87. 93. 87. 87.
 93. 93. 87. 93. 87. 93. 87. 87. 87. 93. 87. 93. 87. 93. 93. 87.]",411.8565393198187,None,l,1,0.5166861159887048,411.8565393198187,None,None,None,24_UA,28,M,24,2021_Nov_05_1732,Partial repeat,2021.2.3,120.10454102417894,
2,2,0,1,1,3,2,3,3,1,1,0,1,1,1,0,0,44,44,44,,,,,,,,,,,,,,,,,,,,,,,,,,24_UA,28,M,24,2021_Nov_05_1732,Partial repeat,2021.2.3,120.10454102417894,
2,2,0,1,1,2,2,3,3,0,0,1,1,1,1,0,0,45,45,45,0,0,0,0,,,,,,,412.38941247178445,None,0.7309235950454204,412.69748489919584,None,"[93. 87. 87. 93. 87. 87. 93. 93. 87. 93. 93. 93. 93. 93. 87. 87. 93. 87.
 87. 93. 87. 93. 93. 87. 87. 87. 87. 87. 87. 93. 87. 93. 93. 87.]",413.50511826958245,None,s,1,0.5483219545858447,413.50511826958245,None,None,None,24_UA,28,M,24,2021_Nov_05_1732,Partial repeat,2021.2.3,120.10454102417894,
2,2,0,1,1,2,2,3,3,0,0,1,1,1,1,0,0,45,45,45,1,0,1,0,,,,,,,,,0.9050686324571288,414.121267935112,None,"[87. 93. 87. 87. 93. 93. 87. 87. 87. 93. 93. 93. 93. 93. 93. 87. 93. 93.
 93. 87. 93. 93. 87. 93. 87. 87. 87. 87. 87. 93. 93. 87. 93. 87.]",415.10376274115333,None,s,1,0.4530853865580866,415.10376274115333,None,None,None,24_UA,28,M,24,2021_Nov_05_1732,Partial repeat,2021.2.3,120.10454102417894,
2,2,0,1,1,2,2,3,3,0,0,1,1,1,1,0,0,45,45,45,,,,,,,,,,,,,,,,,,,,,,,,,,24_UA,28,M,24,2021_Nov_05_1732,Partial repeat,2021.2.3,120.10454102417894,
2,2,0,1,1,3,3,2,2,1,1,1,1,1,1,0,0,46,46,46,0,0,0,0,,,,,,,415.57834073006234,None,0.953527633522324,416.07792316085397,None,"[87. 93. 87. 87. 87. 93. 93. 87. 87. 87. 87. 87. 93. 93. 87. 87. 93. 87.
 87. 93. 87. 87. 87. 87. 93. 93. 93. 93. 93. 87. 87. 93. 87. 93.]",417.1103665564915,None,l,1,0.6711171282331634,417.1103665564915,None,None,None,24_UA,28,M,24,2021_Nov_05_1732,Partial repeat,2021.2.3,120.10454102417894,
2,2,0,1,1,3,3,2,2,1,1,1,1,1,1,0,0,46,46,46,1,0,1,0,,,,,,,,,0.8418937137651735,417.85142393665956,None,"[87. 87. 87. 87. 93. 93. 93. 93. 87. 93. 87. 93. 87. 93. 93. 87. 93. 87.
 87. 87. 87. 87. 87. 93. 87. 93. 87. 93. 87. 93. 93. 93. 93. 87.]",418.7672975318528,None,l,1,0.5492670977946545,418.7672975318528,None,None,None,24_UA,28,M,24,2021_Nov_05_1732,Partial repeat,2021.2.3,120.10454102417894,
2,2,0,1,1,3,3,2,2,1,1,1,1,1,1,0,0,46,46,46,,,,,,,,,,,,,,,,,,,,,,,,,,24_UA,28,M,24,2021_Nov_05_1732,Partial repeat,2021.2.3,120.10454102417894,
2,2,0,1,1,3,3,2,3,0,0,1,0,1,1,0,0,47,47,47,0,0,0,0,,,,,,,419.3418025263272,None,0.7414798719582646,419.63323536599637,None,"[93. 87. 87. 93. 87. 87. 87. 87. 87. 87. 93. 87. 93. 93. 93. 93. 87. 93.
 87. 93. 87. 87. 93. 87. 87. 87. 93. 93. 93. 87. 87. 93. 87. 87.]",420.44919189774737,None,s,1,0.6114602148954873,420.44919189774737,None,None,None,24_UA,28,M,24,2021_Nov_05_1732,Partial repeat,2021.2.3,120.10454102417894,
2,2,0,1,1,3,3,2,3,0,0,1,0,1,1,0,0,47,47,47,1,0,1,0,,,,,,,,,0.7774673792455419,421.12361235209755,None,"[93. 93. 93. 93. 87. 93. 93. 87. 93. 87. 87. 87. 93. 87. 87. 93. 93. 93.
 87. 87. 87. 93. 87. 87. 93. 87. 87. 87. 93. 87. 87. 87. 87. 87.]",421.98121515847015,None,s,1,0.5195209041885391,421.98121515847015,None,None,None,24_UA,28,M,24,2021_Nov_05_1732,Partial repeat,2021.2.3,120.10454102417894,
2,2,0,1,1,3,3,2,3,0,0,1,0,1,1,0,0,47,47,47,,,,,,,,,,,,,,,,,,,,,,,,,,24_UA,28,M,24,2021_Nov_05_1732,Partial repeat,2021.2.3,120.10454102417894,
2,2,0,1,1,2,3,3,2,0,1,0,0,0,1,0,0,48,48,48,0,0,0,0,,,,,,,422.52241628250704,None,0.8767776695325976,422.82215496500066,None,"[93. 93. 87. 87. 87. 87. 93. 93. 93. 87. 87. 93. 93. 93. 93. 87. 87. 93.
 93. 93. 87. 93. 93. 87. 87. 93. 87. 93. 87. 87. 87. 87. 87. 87.]",423.7796674584024,None,s,1,0.5609641670525889,423.7796674584024,None,None,None,24_UA,28,M,24,2021_Nov_05_1732,Partial repeat,2021.2.3,120.10454102417894,
2,2,0,1,1,2,3,3,2,0,1,0,0,0,1,0,0,48,48,48,1,0,1,0,,,,,,,,,0.7426617463497178,424.41249872516346,None,"[93. 87. 93. 93. 87. 87. 87. 93. 93. 93. 87. 93. 87. 87. 87. 87. 93. 87.
 93. 93. 87. 93. 87. 93. 93. 87. 93. 93. 93. 87. 87. 87. 87. 87.]",425.2450884303835,None,l,1,0.7286326363428088,425.2450884303835,None,None,None,24_UA,28,M,24,2021_Nov_05_1732,Partial repeat,2021.2.3,120.10454102417894,
2,2,0,1,1,2,3,3,2,0,1,0,0,0,1,0,0,48,48,48,,,,,,,,,,,,,,,,,,,,,,,,,,24_UA,28,M,24,2021_Nov_05_1732,Partial repeat,2021.2.3,120.10454102417894,
2,2,0,1,1,2,3,2,2,0,0,0,1,1,1,0,0,49,49,49,0,0,0,0,,,,,,,425.9944846868857,None,0.8491262631412634,426.4274183254529,None,"[87. 93. 87. 87. 93. 87. 93. 87. 93. 93. 93. 93. 93. 93. 93. 87. 93. 93.
 87. 87. 87. 93. 93. 87. 93. 93. 87. 87. 87. 93. 93. 87. 93. 87.]",427.3599494683549,None,s,1,0.5807137153242365,427.3599494683549,None,None,None,24_UA,28,M,24,2021_Nov_05_1732,Partial repeat,2021.2.3,120.10454102417894,
2,2,0,1,1,2,3,2,2,0,0,0,1,1,1,0,0,49,49,49,1,0,1,0,,,,,,,,,0.7242391145459177,428.0010654108373,None,"[87. 87. 87. 87. 87. 93. 93. 87. 87. 87. 87. 87. 87. 93. 87. 93. 87. 93.
 93. 87. 93. 87. 87. 93. 93. 87. 93. 93. 93. 93. 87. 93. 93. 87.]",428.8087074404939,None,s,1,0.6039699469511106,428.8087074404939,None,None,None,24_UA,28,M,24,2021_Nov_05_1732,Partial repeat,2021.2.3,120.10454102417894,
2,2,0,1,1,2,3,2,2,0,0,0,1,1,1,0,0,49,49,49,,,,,,,,,,,,,,,,,,,,,,,,,,24_UA,28,M,24,2021_Nov_05_1732,Partial repeat,2021.2.3,120.10454102417894,
2,2,0,1,1,2,2,3,3,0,1,1,1,0,1,0,0,50,50,50,0,0,0,0,,,,,,,429.4415043908921,None,0.9251341098487075,429.807846003554,None,"[93. 87. 87. 93. 87. 87. 87. 87. 93. 93. 93. 93. 93. 93. 93. 87. 87. 93.
 93. 87. 93. 87. 87. 87. 87. 87. 93. 93. 87. 93. 93. 93. 87. 93.]",430.81532889508526,None,s,1,0.6133870626727003,430.81532889508526,None,None,None,24_UA,28,M,24,2021_Nov_05_1732,Partial repeat,2021.2.3,120.10454102417894,
2,2,0,1,1,2,2,3,3,0,1,1,1,0,1,0,0,50,50,50,1,0,1,0,,,,,,,,,0.9059562940369856,431.4980757179328,None,"[87. 87. 87. 87. 87. 87. 93. 93. 93. 93. 93. 87. 93. 87. 93. 93. 87. 87.
 87. 93. 93. 93. 87. 93. 87. 87. 87. 87. 87. 93. 87. 87. 87. 93.]",432.4888959303353,None,l,1,0.5880150829143531,432.4888959303353,None,None,None,24_UA,28,M,24,2021_Nov_05_1732,Partial repeat,2021.2.3,120.10454102417894,
2,2,0,1,1,2,2,3,3,0,1,1,1,0,1,0,0,50,50,50,,,,,,,,,,,,,,,,,,,,,,,,,,24_UA,28,M,24,2021_Nov_05_1732,Partial repeat,2021.2.3,120.10454102417894,
2,2,0,1,1,3,3,3,3,0,0,1,1,1,1,0,0,51,51,51,0,0,0,0,,,,,,,433.0967070402439,None,0.9571840647559955,433.6129332280543,None,"[87. 87. 93. 87. 87. 87. 87. 87. 87. 87. 93. 93. 87. 93. 93. 93. 93. 87.
 87. 93. 87. 93. 93. 87. 87. 93. 87. 93. 87. 93. 87. 87. 87. 93.]",434.6453836793953,None,s,1,0.49441319249672233,434.6453836793953,None,None,None,24_UA,28,M,24,2021_Nov_05_1732,Partial repeat,2021.2.3,120.10454102417894,
2,2,0,1,1,3,3,3,3,0,0,1,1,1,1,0,0,51,51,51,1,0,1,0,,,,,,,,,0.8598263842534657,435.21155043896215,None,"[87. 93. 93. 87. 93. 87. 93. 93. 87. 93. 87. 93. 87. 87. 87. 93. 93. 87.
 93. 87. 87. 87. 93. 93. 93. 93. 93. 87. 93. 87. 87. 93. 93. 93.]",436.15243072103476,None,s,1,0.635379361694504,436.15243072103476,None,None,None,24_UA,28,M,24,2021_Nov_05_1732,Partial repeat,2021.2.3,120.10454102417894,
2,2,0,1,1,3,3,3,3,0,0,1,1,1,1,0,0,51,51,51,,,,,,,,,,,,,,,,,,,,,,,,,,24_UA,28,M,24,2021_Nov_05_1732,Partial repeat,2021.2.3,120.10454102417894,
2,2,0,1,1,3,3,3,2,1,1,1,0,1,1,0,0,52,52,52,0,0,0,0,,,,,,,436.81018336483976,None,0.8707337901926873,437.1765493517414,None,"[87. 93. 87. 87. 87. 93. 87. 87. 93. 93. 93. 87. 87. 93. 87. 93. 93. 87.
 87. 93. 87. 93. 93. 93. 93. 87. 93. 93. 87. 93. 93. 87. 87. 93.]",438.13408237081967,None,l,1,0.5097721705242293,438.13408237081967,None,None,None,24_UA,28,M,24,2021_Nov_05_1732,Partial repeat,2021.2.3,120.10454102417894,
2,2,0,1,1,3,3,3,2,1,1,1,0,1,1,0,0,52,52,52,1,0,1,0,,,,,,,,,0.8445258222023115,438.7085758196008,None,"[87. 93. 93. 93. 93. 93. 93. 93. 93. 93. 87. 93. 87. 93. 87. 93. 93. 93.
 87. 87. 93. 87. 87. 87. 93. 87. 93. 93. 93. 93. 93. 93. 93. 87.]",439.641110811066,None,l,1,0.844218807938887,439.641110811066,None,None,None,24_UA,28,M,24,2021_Nov_05_1732,Partial repeat,2021.2.3,120.10454102417894,
2,2,0,1,1,3,3,3,2,1,1,1,0,1,1,0,0,52,52,52,,,,,,,,,,,,,,,,,,,,,,,,,,24_UA,28,M,24,2021_Nov_05_1732,Partial repeat,2021.2.3,120.10454102417894,
2,2,0,1,1,2,2,2,3,1,0,1,0,0,1,0,0,53,53,53,0,0,0,0,,,,,,,440.50703453380993,None,0.7750741850734404,441.1315442427731,None,"[93. 93. 87. 87. 93. 93. 87. 93. 93. 87. 93. 93. 87. 93. 87. 93. 93. 93.
 93. 93. 87. 93. 93. 93. 93. 93. 93. 93. 93. 87. 93. 93. 93. 93.]",441.9891059977963,None,l,1,0.7507811229261279,441.9891059977963,None,None,None,24_UA,28,M,24,2021_Nov_05_1732,Partial repeat,2021.2.3,120.10454102417894,
2,2,0,1,1,2,2,2,3,1,0,1,0,0,1,0,0,53,53,53,1,0,1,0,,,,,,,,,0.9934028778118793,442.8050679816806,None,"[93. 93. 87. 87. 87. 87. 93. 93. 87. 87. 93. 87. 87. 93. 87. 87. 93. 87.
 87. 87. 93. 87. 93. 87. 87. 87. 93. 93. 87. 87. 93. 87. 93. 87.]",443.8874859447242,None,s,1,0.580424431587744,443.8874859447242,None,None,None,24_UA,28,M,24,2021_Nov_05_1732,Partial repeat,2021.2.3,120.10454102417894,
2,2,0,1,1,2,2,2,3,1,0,1,0,0,1,0,0,53,53,53,,,,,,,,,,,,,,,,,,,,,,,,,,24_UA,28,M,24,2021_Nov_05_1732,Partial repeat,2021.2.3,120.10454102417894,
2,2,0,1,1,3,2,3,2,0,0,0,0,1,1,0,0,54,54,54,0,0,0,0,,,,,,,444.47864111049057,None,0.9705091685754855,444.8449952309893,None,"[87. 87. 93. 87. 93. 87. 93. 87. 87. 93. 87. 93. 87. 93. 93. 93. 93. 87.
 93. 93. 87. 93. 87. 93. 93. 93. 87. 87. 93. 87. 87. 93. 87. 87.]",445.90242350497647,None,s,1,0.6455286667405744,445.90242350497647,None,None,None,24_UA,28,M,24,2021_Nov_05_1732,Partial repeat,2021.2.3,120.10454102417894,
2,2,0,1,1,3,2,3,2,0,0,0,0,1,1,0,0,54,54,54,1,0,1,0,,,,,,,,,0.7543063298054424,446.6184741982652,None,"[93. 93. 93. 87. 87. 87. 87. 93. 93. 87. 93. 87. 93. 87. 87. 87. 87. 93.
 87. 93. 87. 87. 87. 93. 87. 93. 87. 93. 87. 93. 93. 87. 93. 87.]",447.4594300404824,None,s,1,0.5765293639706215,447.4594300404824,None,None,None,24_UA,28,M,24,2021_Nov_05_1732,Partial repeat,2021.2.3,120.10454102417894,
2,2,0,1,1,3,2,3,2,0,0,0,0,1,1,0,0,54,54,54,,,,,,,,,,,,,,,,,,,,,,,,,,24_UA,28,M,24,2021_Nov_05_1732,Partial repeat,2021.2.3,120.10454102417894,
2,2,0,1,1,2,3,2,2,0,1,0,1,0,1,0,0,55,55,55,0,0,0,0,,,,,,,448.05890580190317,None,0.931406028544393,448.48354899190235,None,"[87. 87. 93. 93. 93. 93. 87. 87. 87. 87. 87. 87. 87. 87. 93. 93. 93. 93.
 87. 93. 93. 87. 87. 93. 93. 93. 87. 87. 93. 93. 87. 93. 93. 93.]",449.49935087551785,None,s,1,0.5197030695562717,449.49935087551785,None,None,None,24_UA,28,M,24,2021_Nov_05_1732,Partial repeat,2021.2.3,120.10454102417894,
2,2,0,1,1,2,3,2,2,0,1,0,1,0,1,0,0,55,55,55,1,0,1,0,,,,,,,,,0.9149605997270679,450.0821777484998,None,"[93. 87. 93. 87. 87. 87. 93. 87. 93. 93. 93. 93. 87. 87. 93. 87. 93. 93.
 87. 87. 93. 93. 93. 87. 93. 87. 93. 87. 87. 93. 87. 87. 87. 87.]",451.0813297815366,None,l,1,1.1297024088853505,451.0813297815366,None,None,None,24_UA,28,M,24,2021_Nov_05_1732,Partial repeat,2021.2.3,120.10454102417894,
2,2,0,1,1,2,3,2,2,0,1,0,1,0,1,0,0,55,55,55,,,,,,,,,,,,,,,,,,,,,,,,,,24_UA,28,M,24,2021_Nov_05_1732,Partial repeat,2021.2.3,120.10454102417894,
2,2,0,1,1,3,2,3,2,0,1,0,0,0,1,0,0,56,56,56,0,0,0,0,,,,,,,452.2303452226188,None,0.924668371788085,452.8381749339169,None,"[87. 87. 93. 93. 87. 87. 93. 87. 93. 87. 93. 87. 93. 87. 93. 93. 93. 87.
 87. 93. 87. 87. 87. 87. 93. 93. 93. 87. 87. 87. 87. 87. 87. 93.]",453.8456324890649,None,s,1,0.6214491631035344,453.8456324890649,None,None,None,24_UA,28,M,24,2021_Nov_05_1732,Partial repeat,2021.2.3,120.10454102417894,
2,2,0,1,1,3,2,3,2,0,1,0,0,0,1,0,0,56,56,56,1,0,1,0,,,,,,,,,0.7468951502700834,454.53670151114056,None,"[87. 87. 93. 93. 93. 93. 87. 87. 93. 87. 93. 93. 93. 93. 93. 93. 93. 93.
 87. 87. 87. 87. 93. 87. 93. 93. 93. 87. 93. 87. 93. 93. 87. 87.]",455.36933002271326,None,l,1,0.5217832184716826,455.36933002271326,None,None,None,24_UA,28,M,24,2021_Nov_05_1732,Partial repeat,2021.2.3,120.10454102417894,
2,2,0,1,1,3,2,3,2,0,1,0,0,0,1,0,0,56,56,56,,,,,,,,,,,,,,,,,,,,,,,,,,24_UA,28,M,24,2021_Nov_05_1732,Partial repeat,2021.2.3,120.10454102417894,
2,2,0,1,1,3,2,3,3,1,0,0,1,0,1,0,0,57,57,57,0,0,0,0,,,,,,,455.9188514216912,None,0.7836169138738147,456.22692994266254,None,"[87. 87. 87. 87. 93. 93. 93. 93. 87. 93. 93. 87. 93. 87. 87. 87. 93. 87.
 93. 93. 93. 93. 87. 87. 93. 87. 93. 87. 87. 87. 87. 93. 93. 87.]",457.0928507789831,None,l,1,0.5587396969822294,457.0928507789831,None,None,None,24_UA,28,M,24,2021_Nov_05_1732,Partial repeat,2021.2.3,120.10454102417894,
2,2,0,1,1,3,2,3,3,1,0,0,1,0,1,0,0,57,57,57,1,0,1,0,,,,,,,,,0.9148016456666161,457.7256496536611,None,"[87. 87. 87. 87. 93. 87. 87. 87. 93. 87. 93. 93. 93. 93. 87. 87. 93. 87.
 93. 87. 87. 93. 93. 87. 93. 93. 87. 93. 93. 87. 87. 93. 87. 87.]",458.7248013659846,None,s,1,0.7023613754317921,458.7248013659846,None,None,None,24_UA,28,M,24,2021_Nov_05_1732,Partial repeat,2021.2.3,120.10454102417894,
2,2,0,1,1,3,2,3,3,1,0,0,1,0,1,0,0,57,57,57,,,,,,,,,,,,,,,,,,,,,,,,,,24_UA,28,M,24,2021_Nov_05_1732,Partial repeat,2021.2.3,120.10454102417894,
2,2,0,1,1,2,3,2,3,0,0,0,0,1,1,0,0,58,58,58,0,0,0,0,,,,,,,459.4575057584152,None,0.786443489814114,459.7655676022732,None,"[93. 93. 93. 87. 87. 93. 87. 93. 87. 93. 87. 87. 87. 93. 93. 93. 93. 93.
 93. 87. 87. 93. 87. 87. 87. 87. 93. 93. 87. 87. 93. 87. 93. 93.]",460.639810317105,None,s,1,0.5793808292801259,460.639810317105,None,None,None,24_UA,28,M,24,2021_Nov_05_1732,Partial repeat,2021.2.3,120.10454102417894,
2,2,0,1,1,2,3,2,3,0,0,0,0,1,1,0,0,58,58,58,1,0,1,0,,,,,,,,,0.7636941666607471,461.2809365224239,None,"[87. 87. 87. 87. 93. 93. 93. 87. 93. 87. 93. 93. 93. 87. 87. 93. 87. 87.
 93. 93. 93. 93. 87. 87. 93. 93. 93. 93. 87. 87. 93. 87. 93. 93.]",462.1302180917155,None,s,1,0.9613521023165958,462.1302180917155,None,None,None,24_UA,28,M,24,2021_Nov_05_1732,Partial repeat,2021.2.3,120.10454102417894,
2,2,0,1,1,2,3,2,3,0,0,0,0,1,1,0,0,58,58,58,,,,,,,,,,,,,,,,,,,,,,,,,,24_UA,28,M,24,2021_Nov_05_1732,Partial repeat,2021.2.3,120.10454102417894,
2,2,0,1,1,2,3,3,3,0,0,0,1,1,1,0,0,59,59,59,0,0,0,0,,,,,,,463.112703276347,None,0.7667875394677154,463.4207741001919,None,"[87. 87. 87. 87. 93. 93. 87. 87. 87. 87. 93. 93. 93. 87. 87. 87. 93. 87.
 87. 93. 93. 93. 87. 93. 93. 87. 93. 93. 93. 93. 93. 87. 93. 87.]",464.2700543866267,None,s,1,0.5341563521578792,464.2700543866267,None,None,None,24_UA,28,M,24,2021_Nov_05_1732,Partial repeat,2021.2.3,120.10454102417894,
2,2,0,1,1,2,3,3,3,0,0,0,1,1,1,0,0,59,59,59,1,0,1,0,,,,,,,,,0.8385399044628046,464.87786421367855,None,"[93. 87. 93. 87. 93. 87. 87. 87. 87. 87. 87. 87. 93. 93. 87. 87. 93. 93.
 93. 93. 93. 87. 87. 93. 87. 93. 87. 93. 87. 93. 93. 93. 87. 87.]",465.80206834665296,None,s,1,0.6322232183920278,465.80206834665296,None,None,None,24_UA,28,M,24,2021_Nov_05_1732,Partial repeat,2021.2.3,120.10454102417894,
2,2,0,1,1,2,3,3,3,0,0,0,1,1,1,0,0,59,59,59,,,,,,,,,,,,,,,,,,,,,,,,,,24_UA,28,M,24,2021_Nov_05_1732,Partial repeat,2021.2.3,120.10454102417894,
2,2,0,1,1,2,3,3,2,0,0,0,0,1,1,0,0,60,60,60,0,0,0,0,,,,,,,466.44319262769204,None,0.7857352503889018,466.767907529269,None,"[87. 87. 93. 87. 87. 93. 93. 87. 87. 87. 93. 87. 87. 93. 93. 93. 87. 93.
 93. 87. 93. 93. 87. 93. 93. 93. 93. 93. 93. 93. 93. 87. 87. 93.]",467.64217173191355,None,s,1,0.7121460290254618,467.64217173191355,None,None,None,24_UA,28,M,24,2021_Nov_05_1732,Partial repeat,2021.2.3,120.10454102417894,
2,2,0,1,1,2,3,3,2,0,0,0,0,1,1,0,0,60,60,60,1,0,1,0,,,,,,,,,0.7765316928287687,468.416506683996,None,"[93. 93. 87. 87. 93. 87. 93. 93. 87. 93. 87. 87. 93. 87. 93. 87. 87. 87.
 93. 93. 87. 93. 93. 93. 93. 87. 87. 87. 87. 87. 87. 93. 87. 93.]",469.28243297244626,None,s,1,0.4974618967171409,469.28243297244626,None,None,None,24_UA,28,M,24,2021_Nov_05_1732,Partial repeat,2021.2.3,120.10454102417894,
2,2,0,1,1,2,3,3,2,0,0,0,0,1,1,0,0,60,60,60,,,,,,,,,,,,,,,,,,,,,,,,,,24_UA,28,M,24,2021_Nov_05_1732,Partial repeat,2021.2.3,120.10454102417894,
2,2,0,1,1,3,3,3,2,0,0,1,0,1,1,0,0,61,61,61,0,0,0,0,,,,,,,469.7986540288366,None,0.9849710938381133,470.22328823885255,None,"[87. 93. 93. 87. 87. 87. 87. 87. 87. 93. 93. 93. 87. 93. 93. 87. 87. 87.
 93. 93. 93. 93. 93. 93. 87. 87. 87. 93. 87. 93. 93. 87. 93. 87.]",471.2973766262585,None,s,1,0.5130129822391609,471.2973766262585,None,None,None,24_UA,28,M,24,2021_Nov_05_1732,Partial repeat,2021.2.3,120.10454102417894,
2,2,0,1,1,3,3,3,2,0,0,1,0,1,1,0,0,61,61,61,1,0,1,0,,,,,,,,,0.9380323826401339,471.8802047820973,None,"[87. 93. 93. 87. 93. 93. 93. 87. 87. 93. 87. 93. 87. 87. 93. 87. 87. 87.
 87. 93. 87. 87. 93. 87. 93. 87. 87. 87. 87. 93. 87. 87. 87. 87.]",472.9043320720739,None,s,1,0.5380440433582407,472.9043320720739,None,None,None,24_UA,28,M,24,2021_Nov_05_1732,Partial repeat,2021.2.3,120.10454102417894,
2,2,0,1,1,3,3,3,2,0,0,1,0,1,1,0,0,61,61,61,,,,,,,,,,,,,,,,,,,,,,,,,,24_UA,28,M,24,2021_Nov_05_1732,Partial repeat,2021.2.3,120.10454102417894,
2,2,0,1,1,3,3,3,2,0,1,1,0,0,1,0,0,62,62,62,0,0,0,0,,,,,,,473.4621868952563,None,0.9543749222406404,474.08665298716005,None,"[93. 87. 93. 87. 93. 87. 93. 87. 87. 87. 93. 87. 87. 93. 87. 93. 87. 87.
 93. 87. 87. 87. 93. 93. 87. 93. 87. 87. 87. 87. 87. 87. 93. 87.]",475.12743012771534,None,s,1,0.45913757436937885,475.12743012771534,None,None,None,24_UA,28,M,24,2021_Nov_05_1732,Partial repeat,2021.2.3,120.10454102417894,
2,2,0,1,1,3,3,3,2,0,1,1,0,0,1,0,0,62,62,62,1,0,1,0,,,,,,,,,0.8133436068189741,475.66029237541807,None,"[93. 87. 93. 87. 93. 93. 93. 87. 93. 87. 93. 93. 93. 87. 87. 87. 87. 87.
 87. 93. 87. 87. 87. 87. 93. 87. 87. 87. 93. 87. 87. 93. 93. 87.]",476.55121380505807,None,l,1,0.49192477507313015,476.55121380505807,None,None,None,24_UA,28,M,24,2021_Nov_05_1732,Partial repeat,2021.2.3,120.10454102417894,
2,2,0,1,1,3,3,3,2,0,1,1,0,0,1,0,0,62,62,62,,,,,,,,,,,,,,,,,,,,,,,,,,24_UA,28,M,24,2021_Nov_05_1732,Partial repeat,2021.2.3,120.10454102417894,
2,2,0,1,1,3,2,2,2,1,0,0,1,0,1,0,0,63,63,63,0,0,0,0,,,,,,,477.0591213214939,None,0.9113449552813802,479.24890043315827,None,"[93. 93. 87. 87. 93. 87. 93. 87. 87. 93. 87. 87. 93. 93. 87. 93. 87. 93.
 87. 93. 87. 87. 93. 93. 93. 87. 87. 93. 87. 87. 93. 93. 93. 87.]",480.2397309083972,None,l,1,0.5467642482544761,480.2397309083972,None,None,None,24_UA,28,M,24,2021_Nov_05_1732,Partial repeat,2021.2.3,120.10454102417894,
2,2,0,1,1,3,2,2,2,1,0,0,1,0,1,0,0,63,63,63,1,0,1,0,,,,,,,,,0.849902585609017,480.8475400940224,None,"[93. 93. 93. 93. 87. 93. 93. 93. 93. 93. 87. 93. 87. 93. 93. 93. 87. 93.
 93. 87. 93. 93. 87. 93. 93. 87. 87. 93. 93. 93. 93. 93. 93. 93.]",481.7717483962733,None,s,1,0.6458288547437405,481.7717483962733,None,None,None,24_UA,28,M,24,2021_Nov_05_1732,Partial repeat,2021.2.3,120.10454102417894,
2,2,0,1,1,3,2,2,2,1,0,0,1,0,1,0,0,63,63,63,,,,,,,,,,,,,,,,,,,,,,,,,,24_UA,28,M,24,2021_Nov_05_1732,Partial repeat,2021.2.3,120.10454102417894,
1,2,0,1,1,3,2,2,3,1,0,0,0,0,0,0,0,64,64,64,0,0,0,0,,,,,,,494.5524960183393,None,0.9727837617913163,499.9145714976621,None,"[93. 87. 87. 87. 93. 87. 93. 87. 87. 93. 87. 87. 87. 87. 87. 87. 87. 93.
 93. 87. 87. 87. 87. 93. 93. 87. 93. 93. 93. 93. 93. 93. 87. 87.]",500.9719981680828,None,l,1,0.6928271992219379,500.9719981680828,None,None,None,24_UA,28,M,24,2021_Nov_05_1732,Partial repeat,2021.2.3,120.10454102417894,
1,2,0,1,1,3,2,2,3,1,0,0,0,0,0,0,0,64,64,64,1,0,1,0,,,,,,,,,0.7065688307460868,501.7297095681097,None,"[93. 93. 93. 93. 87. 87. 93. 93. 87. 87. 87. 93. 87. 93. 87. 87. 93. 93.
 87. 93. 87. 87. 87. 93. 93. 87. 93. 93. 87. 87. 87. 93. 87. 87.]",502.5206748072342,None,s,1,2.00820676706644,502.5206748072342,None,None,None,24_UA,28,M,24,2021_Nov_05_1732,Partial repeat,2021.2.3,120.10454102417894,
1,2,0,1,1,3,2,2,3,1,0,0,0,0,0,0,0,64,64,64,,,,,,,,,,,,,,,,,,,,,,,,,,24_UA,28,M,24,2021_Nov_05_1732,Partial repeat,2021.2.3,120.10454102417894,
2,3,0,1,1,2,2,2,3,0,0,1,0,1,0,0,0,65,65,65,0,0,0,0,,,,,,,504.56060077368966,None,0.8961168691807417,505.6346731254125,None,"[87. 87. 93. 93. 93. 87. 87. 87. 87. 87. 87. 93. 93. 87. 87. 93. 87. 93.
 93. 93. 93. 93. 87. 87. 93. 93. 87. 87. 93. 93. 87. 93. 93. 93.]",506.6088444493762,None,s,1,0.5441052111527824,506.6088444493762,None,None,None,24_UA,28,M,24,2021_Nov_05_1732,Partial repeat,2021.2.3,120.10454102417894,
2,3,0,1,1,2,2,2,3,0,0,1,0,1,0,0,0,65,65,65,1,0,1,0,,,,,,,,,0.7063859779123558,507.22498256921244,None,"[87. 87. 93. 87. 93. 93. 87. 93. 87. 93. 93. 93. 93. 93. 87. 93. 93. 93.
 93. 87. 93. 93. 87. 93. 93. 93. 87. 87. 93. 93. 87. 87. 93. 93.]",508.0160119510765,None,s,1,0.8804671506513841,508.0160119510765,None,None,None,24_UA,28,M,24,2021_Nov_05_1732,Partial repeat,2021.2.3,120.10454102417894,
2,3,0,1,1,2,2,2,3,0,0,1,0,1,0,0,0,65,65,65,,,,,,,,,,,,,,,,,,,,,,,,,,24_UA,28,M,24,2021_Nov_05_1732,Partial repeat,2021.2.3,120.10454102417894,
6,2,0,1,1,2,3,2,3,1,0,0,0,0,0,0,0,66,66,66,0,0,0,0,,,,,,,508.92353448281574,None,0.9667625991454223,509.4730578060771,None,"[93. 87. 87. 93. 93. 93. 93. 87. 93. 93. 87. 93. 93. 93. 93. 93. 93. 93.
 87. 87. 87. 93. 93. 87. 87. 87. 93. 93. 93. 93. 93. 93. 87. 93.]",510.5221622772733,None,l,1,0.7268183590676927,510.5221622772733,None,None,None,24_UA,28,M,24,2021_Nov_05_1732,Partial repeat,2021.2.3,120.10454102417894,
6,2,0,1,1,2,3,2,3,1,0,0,0,0,0,0,0,66,66,66,1,0,1,0,,,,,,,,,0.9513439931412362,511.32147697628534,None,"[87. 93. 87. 87. 87. 87. 87. 93. 93. 87. 93. 87. 87. 93. 93. 87. 93. 93.
 87. 93. 87. 93. 87. 93. 87. 87. 93. 87. 87. 93. 87. 87. 87. 87.]",512.3539274276263,None,s,1,0.6061164835955424,512.3539274276263,None,None,None,24_UA,28,M,24,2021_Nov_05_1732,Partial repeat,2021.2.3,120.10454102417894,
6,2,0,1,1,2,3,2,3,1,0,0,0,0,0,0,0,66,66,66,,,,,,,,,,,,,,,,,,,,,,,,,,24_UA,28,M,24,2021_Nov_05_1732,Partial repeat,2021.2.3,120.10454102417894,
5,3,0,1,1,2,3,3,3,0,1,0,1,0,0,0,0,67,67,67,0,0,0,0,,,,,,,512.9784069895068,None,0.8390960779659942,513.8609545850195,None,"[87. 93. 87. 87. 93. 93. 93. 87. 93. 93. 87. 87. 87. 87. 87. 87. 87. 93.
 87. 87. 93. 87. 87. 93. 93. 87. 87. 93. 87. 87. 87. 87. 87. 87.]",514.7768291423563,None,s,1,0.9032365389175538,514.7768291423563,None,None,None,24_UA,28,M,24,2021_Nov_05_1732,Partial repeat,2021.2.3,120.10454102417894,
5,3,0,1,1,2,3,3,3,0,1,0,1,0,0,0,0,67,67,67,1,0,1,0,,,,,,,,,0.952196363506647,515.7510213127061,None,"[93. 93. 87. 93. 87. 93. 87. 93. 93. 93. 87. 93. 87. 93. 93. 87. 87. 87.
 93. 93. 87. 93. 93. 87. 87. 93. 87. 87. 93. 87. 87. 87. 87. 93.]",516.7834842718803,None,l,1,0.592531372923986,516.7834842718803,None,None,None,24_UA,28,M,24,2021_Nov_05_1732,Partial repeat,2021.2.3,120.10454102417894,
5,3,0,1,1,2,3,3,3,0,1,0,1,0,0,0,0,67,67,67,,,,,,,,,,,,,,,,,,,,,,,,,,24_UA,28,M,24,2021_Nov_05_1732,Partial repeat,2021.2.3,120.10454102417894,
5,4,0,1,1,3,3,2,2,1,0,1,1,0,0,0,0,68,68,68,0,0,0,0,,,,,,,517.4079484395043,None,0.8157614424525711,517.7992720440961,None,"[87. 93. 93. 93. 87. 93. 87. 87. 93. 87. 87. 93. 93. 87. 93. 87. 87. 87.
 87. 87. 87. 93. 87. 93. 87. 93. 93. 93. 87. 93. 93. 87. 87. 93.]",518.6901790416196,None,l,1,0.813948247461667,518.6901790416196,None,None,None,24_UA,28,M,24,2021_Nov_05_1732,Partial repeat,2021.2.3,120.10454102417894,
5,4,0,1,1,3,3,2,2,1,0,1,1,0,0,0,0,68,68,68,1,0,1,0,,,,,,,,,0.8812057006098061,519.5727654434886,None,"[93. 93. 87. 87. 93. 93. 93. 93. 87. 93. 93. 93. 93. 87. 87. 93. 93. 93.
 87. 87. 93. 87. 87. 87. 87. 87. 93. 93. 87. 93. 93. 93. 93. 93.]",520.5302708811869,None,s,1,1.8061000630586932,520.5302708811869,None,None,None,24_UA,28,M,24,2021_Nov_05_1732,Partial repeat,2021.2.3,120.10454102417894,
5,4,0,1,1,3,3,2,2,1,0,1,1,0,0,0,0,68,68,68,,,,,,,,,,,,,,,,,,,,,,,,,,24_UA,28,M,24,2021_Nov_05_1732,Partial repeat,2021.2.3,120.10454102417894,
1,1,0,1,1,3,2,2,2,0,1,0,1,0,0,0,0,69,69,69,0,0,0,0,,,,,,,522.3620353901133,None,0.9010703002462287,522.6867534988269,None,"[93. 93. 87. 87. 87. 93. 87. 87. 93. 93. 87. 93. 93. 87. 93. 87. 87. 93.
 87. 93. 87. 87. 87. 87. 87. 93. 93. 87. 93. 87. 87. 93. 87. 93.]",523.6775810876425,None,s,1,0.6106218693421397,523.6775810876425,None,None,None,24_UA,28,M,24,2021_Nov_05_1732,Partial repeat,2021.2.3,120.10454102417894,
1,1,0,1,1,3,2,2,2,0,1,0,1,0,0,0,0,69,69,69,1,0,1,0,,,,,,,,,0.9783635093691897,524.3519944862928,None,"[87. 87. 93. 87. 87. 93. 87. 93. 87. 87. 93. 93. 93. 93. 87. 87. 93. 93.
 93. 93. 93. 93. 87. 93. 93. 87. 87. 93. 93. 93. 87. 87. 87. 93.]",525.417760353761,None,l,1,0.6150682437692012,525.417760353761,None,None,None,24_UA,28,M,24,2021_Nov_05_1732,Partial repeat,2021.2.3,120.10454102417894,
1,1,0,1,1,3,2,2,2,0,1,0,1,0,0,0,0,69,69,69,,,,,,,,,,,,,,,,,,,,,,,,,,24_UA,28,M,24,2021_Nov_05_1732,Partial repeat,2021.2.3,120.10454102417894,
2,7,0,1,1,3,3,3,2,0,0,1,0,1,0,0,0,70,70,70,0,0,0,0,,,,,,,526.0588849555133,None,0.8510352538902666,526.4252223989024,None,"[93. 93. 93. 87. 87. 87. 87. 93. 93. 87. 93. 93. 87. 87. 93. 87. 93. 87.
 93. 87. 93. 87. 87. 87. 93. 93. 87. 93. 93. 87. 93. 87. 93. 93.]",527.366097549555,None,s,1,0.5381578967135283,527.366097549555,None,None,None,24_UA,28,M,24,2021_Nov_05_1732,Partial repeat,2021.2.3,120.10454102417894,
2,7,0,1,1,3,3,3,2,0,0,1,0,1,0,0,0,70,70,70,1,0,1,0,,,,,,,,,0.8298023465938851,527.9655784423958,None,"[93. 93. 93. 87. 87. 93. 93. 87. 93. 93. 87. 93. 87. 87. 93. 87. 93. 93.
 93. 93. 93. 93. 93. 93. 87. 93. 87. 93. 93. 93. 87. 93. 87. 93.]",528.8814619797158,None,s,1,0.9098172628655448,528.8814619797158,None,None,None,24_UA,28,M,24,2021_Nov_05_1732,Partial repeat,2021.2.3,120.10454102417894,
2,7,0,1,1,3,3,3,2,0,0,1,0,1,0,0,0,70,70,70,,,,,,,,,,,,,,,,,,,,,,,,,,24_UA,28,M,24,2021_Nov_05_1732,Partial repeat,2021.2.3,120.10454102417894,
5,7,0,1,1,3,2,2,2,0,0,0,1,1,0,0,0,71,71,71,0,0,0,0,,,,,,,529.822320773972,None,0.7730770268720701,530.2219948005913,None,"[87. 93. 93. 87. 87. 87. 87. 93. 87. 93. 87. 93. 93. 87. 87. 87. 93. 93.
 93. 93. 93. 93. 87. 93. 87. 93. 93. 93. 87. 93. 93. 87. 93. 93.]",531.0795745155774,None,l,0,0.7117323083803058,531.0795745155774,None,531.812323487211,None,24_UA,28,M,24,2021_Nov_05_1732,Partial repeat,2021.2.3,120.10454102417894,
5,7,0,1,1,3,2,2,2,0,0,0,1,1,0,0,0,71,71,71,1,0,1,0,,,,,,,,,0.9389159717789626,532.3534858048915,None,"[93. 93. 93. 93. 93. 93. 93. 93. 93. 87. 87. 87. 87. 93. 87. 87. 93. 93.
 87. 87. 93. 93. 87. 93. 87. 87. 87. 87. 93. 87. 93. 93. 87. 87.]",533.3692796706673,None,s,1,0.7429717448721931,533.3692796706673,None,None,None,24_UA,28,M,24,2021_Nov_05_1732,Partial repeat,2021.2.3,120.10454102417894,
5,7,0,1,1,3,2,2,2,0,0,0,1,1,0,0,0,71,71,71,,,,,,,,,,,,,,,,,,,,,,,,,,24_UA,28,M,24,2021_Nov_05_1732,Partial repeat,2021.2.3,120.10454102417894,
7,7,0,1,1,2,3,3,2,1,0,0,0,0,0,0,0,72,72,72,0,0,0,0,,,,,,,534.1436280927228,None,0.7007586247812235,534.55161245216,None,"[93. 93. 87. 93. 87. 87. 87. 93. 87. 87. 87. 93. 87. 87. 87. 87. 93. 87.
 87. 87. 87. 93. 93. 87. 87. 93. 87. 93. 87. 93. 93. 87. 87. 93.]",535.334294939843,None,l,1,0.6010713367359131,535.334294939843,None,None,None,24_UA,28,M,24,2021_Nov_05_1732,Partial repeat,2021.2.3,120.10454102417894,
7,7,0,1,1,2,3,3,2,1,0,0,0,0,0,0,0,72,72,72,1,0,1,0,,,,,,,,,0.7123217664419802,536.0086945478033,None,"[93. 93. 87. 93. 93. 93. 93. 87. 87. 87. 93. 93. 87. 87. 87. 87. 93. 87.
 93. 93. 87. 87. 87. 87. 93. 87. 93. 87. 87. 87. 87. 93. 87. 87.]",536.8080169439454,None,s,1,0.8073951048863819,536.8080169439454,None,None,None,24_UA,28,M,24,2021_Nov_05_1732,Partial repeat,2021.2.3,120.10454102417894,
7,7,0,1,1,2,3,3,2,1,0,0,0,0,0,0,0,72,72,72,,,,,,,,,,,,,,,,,,,,,,,,,,24_UA,28,M,24,2021_Nov_05_1732,Partial repeat,2021.2.3,120.10454102417894,
8,7,0,1,1,2,2,2,3,0,1,1,0,0,0,0,0,73,73,73,0,0,0,0,,,,,,,537.6323014477675,None,0.77317618488885,538.2900932186385,None,"[93. 93. 93. 87. 93. 93. 93. 93. 93. 87. 93. 87. 93. 87. 93. 87. 87. 87.
 93. 87. 93. 87. 93. 93. 87. 93. 87. 87. 87. 93. 87. 93. 93. 87.]",539.1476597843648,None,s,1,0.7078282607799338,539.1476597843648,None,None,None,24_UA,28,M,24,2021_Nov_05_1732,Partial repeat,2021.2.3,120.10454102417894,
8,7,0,1,1,2,2,2,3,0,1,1,0,0,0,0,0,73,73,73,1,0,1,0,,,,,,,,,0.8578125399509031,539.9136924214727,None,"[93. 87. 87. 93. 93. 87. 93. 93. 93. 93. 87. 93. 87. 93. 87. 93. 87. 87.
 93. 93. 93. 93. 87. 87. 93. 87. 87. 87. 93. 87. 93. 87. 93. 93.]",540.8462312615011,None,l,1,0.7226279141541454,540.8462312615011,None,None,None,24_UA,28,M,24,2021_Nov_05_1732,Partial repeat,2021.2.3,120.10454102417894,
8,7,0,1,1,2,2,2,3,0,1,1,0,0,0,0,0,73,73,73,,,,,,,,,,,,,,,,,,,,,,,,,,24_UA,28,M,24,2021_Nov_05_1732,Partial repeat,2021.2.3,120.10454102417894,
5,1,0,1,1,3,2,2,3,0,0,0,0,1,0,0,0,74,74,74,0,0,0,0,,,,,,,541.5872617017194,None,0.7171967244383911,541.9119794897197,None,"[87. 93. 93. 93. 87. 93. 93. 87. 87. 87. 93. 87. 87. 93. 87. 87. 87. 93.
 87. 93. 93. 87. 93. 93. 87. 87. 87. 87. 93. 93. 87. 93. 87. 87.]",542.7113102244184,None,s,1,0.9192132114840206,542.7113102244184,None,None,None,24_UA,28,M,24,2021_Nov_05_1732,Partial repeat,2021.2.3,120.10454102417894,
5,1,0,1,1,3,2,2,3,0,0,0,0,1,0,0,0,74,74,74,1,0,1,0,,,,,,,,,0.9790932899809041,543.6937902776299,None,"[93. 87. 87. 93. 93. 93. 87. 93. 93. 87. 87. 93. 87. 93. 87. 93. 93. 93.
 87. 93. 87. 87. 87. 93. 87. 87. 87. 87. 87. 87. 93. 87. 87. 93.]",544.7512233623238,None,s,1,0.6713037835907016,544.7512233623238,None,None,None,24_UA,28,M,24,2021_Nov_05_1732,Partial repeat,2021.2.3,120.10454102417894,
5,1,0,1,1,3,2,2,3,0,0,0,0,1,0,0,0,74,74,74,,,,,,,,,,,,,,,,,,,,,,,,,,24_UA,28,M,24,2021_Nov_05_1732,Partial repeat,2021.2.3,120.10454102417894,
1,4,0,1,1,3,2,3,2,1,1,0,0,1,0,0,0,75,75,75,0,0,0,0,,,,,,,545.4422930258261,None,0.7149667438585289,545.7170558099533,None,"[87. 93. 87. 93. 93. 87. 87. 93. 93. 93. 87. 93. 93. 93. 93. 87. 93. 93.
 87. 87. 87. 93. 93. 93. 87. 93. 93. 87. 87. 93. 87. 87. 93. 87.]",546.508055044731,None,l,1,0.7384990719256166,546.508055044731,None,None,None,24_UA,28,M,24,2021_Nov_05_1732,Partial repeat,2021.2.3,120.10454102417894,
1,4,0,1,1,3,2,3,2,1,1,0,0,1,0,0,0,75,75,75,1,0,1,0,,,,,,,,,0.9999470425091019,547.3073626880432,None,"[93. 87. 87. 87. 87. 93. 93. 93. 87. 93. 93. 87. 93. 93. 87. 93. 93. 87.
 93. 93. 93. 87. 87. 87. 93. 93. 87. 93. 87. 93. 87. 87. 87. 87.]",548.3897809718001,None,l,1,0.6808299419644754,548.3897809718001,None,None,None,24_UA,28,M,24,2021_Nov_05_1732,Partial repeat,2021.2.3,120.10454102417894,
1,4,0,1,1,3,2,3,2,1,1,0,0,1,0,0,0,75,75,75,,,,,,,,,,,,,,,,,,,,,,,,,,24_UA,28,M,24,2021_Nov_05_1732,Partial repeat,2021.2.3,120.10454102417894,
4,5,0,1,1,2,3,2,2,0,0,0,1,1,0,0,0,76,76,76,0,0,0,0,,,,,,,549.0891782866602,None,0.7285597127603177,549.3805947699293,None,"[93. 93. 87. 87. 87. 87. 93. 93. 87. 93. 93. 87. 87. 93. 93. 93. 93. 93.
 87. 93. 87. 87. 87. 93. 93. 93. 93. 87. 93. 87. 93. 87. 93. 87.]",550.1882448174292,None,s,1,0.9143819806413376,550.1882448174292,None,None,None,24_UA,28,M,24,2021_Nov_05_1732,Partial repeat,2021.2.3,120.10454102417894,
4,5,0,1,1,2,3,2,2,0,0,0,1,1,0,0,0,76,76,76,1,0,1,0,,,,,,,,,0.7079059731276441,551.1707418684673,None,"[87. 93. 93. 93. 93. 87. 87. 93. 87. 93. 93. 93. 93. 93. 93. 93. 87. 93.
 87. 87. 87. 93. 87. 93. 87. 93. 93. 87. 93. 93. 87. 87. 87. 93.]",551.9534006233407,None,s,1,0.7332566861477972,551.9534006233407,None,None,None,24_UA,28,M,24,2021_Nov_05_1732,Partial repeat,2021.2.3,120.10454102417894,
4,5,0,1,1,2,3,2,2,0,0,0,1,1,0,0,0,76,76,76,,,,,,,,,,,,,,,,,,,,,,,,,,24_UA,28,M,24,2021_Nov_05_1732,Partial repeat,2021.2.3,120.10454102417894,
1,6,0,1,1,3,2,3,3,0,0,0,1,1,0,0,0,77,77,77,0,0,0,0,,,,,,,552.711081234851,None,0.8147448502949939,553.0024983595504,None,"[93. 93. 87. 93. 87. 87. 87. 87. 93. 87. 87. 93. 93. 87. 87. 93. 87. 87.
 87. 93. 87. 93. 93. 87. 93. 87. 93. 87. 93. 87. 93. 93. 87. 93.]",553.9017323670014,None,s,1,0.6729467997647589,553.9017323670014,None,None,None,24_UA,28,M,24,2021_Nov_05_1732,Partial repeat,2021.2.3,120.10454102417894,
1,6,0,1,1,3,2,3,3,0,0,0,1,1,0,0,0,77,77,77,1,0,1,0,,,,,,,,,0.8015989167978339,554.6427605622266,None,"[87. 87. 93. 87. 93. 87. 87. 87. 93. 93. 87. 87. 93. 87. 93. 87. 93. 87.
 93. 87. 87. 87. 93. 87. 93. 93. 93. 87. 87. 93. 87. 93. 93. 93.]",555.5253508126589,None,s,1,1.977376561226265,555.5253508126589,None,None,None,24_UA,28,M,24,2021_Nov_05_1732,Partial repeat,2021.2.3,120.10454102417894,
1,6,0,1,1,3,2,3,3,0,0,0,1,1,0,0,0,77,77,77,,,,,,,,,,,,,,,,,,,,,,,,,,24_UA,28,M,24,2021_Nov_05_1732,Partial repeat,2021.2.3,120.10454102417894,
7,3,0,1,1,2,3,3,2,0,1,0,0,0,0,0,0,78,78,78,0,0,0,0,,,,,,,557.523650388739,None,0.8249322149647433,557.8816534457801,None,"[87. 87. 87. 93. 87. 87. 87. 87. 93. 93. 93. 93. 93. 93. 87. 87. 93. 87.
 87. 93. 87. 93. 87. 93. 93. 87. 87. 87. 87. 87. 87. 93. 87. 87.]",558.7808925846512,None,s,1,0.5288972892703896,558.7808925846512,None,None,None,24_UA,28,M,24,2021_Nov_05_1732,Partial repeat,2021.2.3,120.10454102417894,
7,3,0,1,1,2,3,3,2,0,1,0,0,0,0,0,0,78,78,78,1,0,1,0,,,,,,,,,0.8026534676940568,559.3720515989844,None,"[87. 87. 87. 93. 87. 93. 93. 87. 93. 93. 93. 87. 87. 87. 87. 93. 93. 93.
 93. 93. 93. 93. 93. 87. 87. 93. 93. 93. 93. 87. 87. 93. 87. 93.]",560.2546322280068,None,l,1,0.57533181909821,560.2546322280068,None,None,None,24_UA,28,M,24,2021_Nov_05_1732,Partial repeat,2021.2.3,120.10454102417894,
7,3,0,1,1,2,3,3,2,0,1,0,0,0,0,0,0,78,78,78,,,,,,,,,,,,,,,,,,,,,,,,,,24_UA,28,M,24,2021_Nov_05_1732,Partial repeat,2021.2.3,120.10454102417894,
7,6,0,1,1,2,2,2,2,1,1,1,1,1,0,0,0,79,79,79,0,0,0,0,,,,,,,560.8458002223197,None,0.8374575713683357,561.3953203384444,None,"[87. 93. 87. 87. 87. 93. 93. 93. 87. 87. 87. 93. 93. 87. 87. 87. 87. 87.
 93. 87. 93. 93. 93. 93. 93. 87. 93. 87. 87. 93. 87. 87. 93. 87.]",562.3112067621842,None,l,1,0.5186084737724741,562.3112067621842,None,None,None,24_UA,28,M,24,2021_Nov_05_1732,Partial repeat,2021.2.3,120.10454102417894,
7,6,0,1,1,2,2,2,2,1,1,1,1,1,0,0,0,79,79,79,1,0,1,0,,,,,,,,,0.8941249968452167,562.9023606450974,None,"[93. 87. 93. 93. 87. 93. 93. 87. 93. 87. 93. 93. 93. 87. 87. 93. 93. 93.
 93. 93. 87. 87. 87. 93. 87. 93. 87. 87. 93. 87. 93. 87. 87. 87.]",563.8848477540123,None,l,1,0.6254766854654008,563.8848477540123,None,None,None,24_UA,28,M,24,2021_Nov_05_1732,Partial repeat,2021.2.3,120.10454102417894,
7,6,0,1,1,2,2,2,2,1,1,1,1,1,0,0,0,79,79,79,,,,,,,,,,,,,,,,,,,,,,,,,,24_UA,28,M,24,2021_Nov_05_1732,Partial repeat,2021.2.3,120.10454102417894,
4,8,0,1,1,3,3,3,2,1,1,1,0,1,0,0,0,80,80,80,0,0,0,0,,,,,,,564.5426225270567,None,0.8390051192371714,565.0255679358161,None,"[93. 87. 87. 87. 93. 87. 87. 93. 87. 93. 87. 87. 93. 87. 87. 87. 93. 87.
 87. 87. 93. 87. 93. 87. 87. 93. 93. 93. 93. 87. 93. 93. 93. 93.]",565.9414447381496,None,l,1,0.5844266175736266,565.9414447381496,None,None,None,24_UA,28,M,24,2021_Nov_05_1732,Partial repeat,2021.2.3,120.10454102417894,
4,8,0,1,1,3,3,3,2,1,1,1,0,1,0,0,0,80,80,80,1,0,1,0,,,,,,,,,0.8748144133741595,566.5908780691498,None,"[93. 93. 93. 87. 87. 93. 93. 93. 93. 87. 87. 87. 93. 87. 93. 87. 87. 93.
 87. 93. 93. 93. 87. 87. 87. 87. 87. 93. 87. 93. 93. 87. 93. 87.]",567.5483928075482,None,l,1,0.6254991354253434,567.5483928075482,None,None,None,24_UA,28,M,24,2021_Nov_05_1732,Partial repeat,2021.2.3,120.10454102417894,
4,8,0,1,1,3,3,3,2,1,1,1,0,1,0,0,0,80,80,80,,,,,,,,,,,,,,,,,,,,,,,,,,24_UA,28,M,24,2021_Nov_05_1732,Partial repeat,2021.2.3,120.10454102417894,
2,8,0,1,1,3,2,2,3,0,1,0,0,0,0,0,0,81,81,81,0,0,0,0,,,,,,,568.1978364013885,None,0.9342627987684788,568.4642680063116,None,"[93. 93. 87. 93. 87. 93. 87. 93. 87. 93. 87. 87. 93. 93. 93. 93. 87. 93.
 87. 93. 93. 93. 93. 87. 93. 93. 87. 87. 87. 87. 87. 93. 87. 87.]",569.4883933720048,None,l,0,0.47753114521765383,569.4883933720048,None,569.9796417371654,None,24_UA,28,M,24,2021_Nov_05_1732,Partial repeat,2021.2.3,120.10454102417894,
2,8,0,1,1,3,2,2,3,0,1,0,0,0,0,0,0,81,81,81,1,0,1,0,,,,,,,,,0.8361302187931032,570.5291743611233,None,"[87. 87. 93. 93. 93. 87. 87. 93. 93. 93. 87. 93. 93. 93. 93. 93. 87. 93.
 93. 93. 87. 93. 93. 93. 87. 93. 93. 87. 87. 93. 87. 87. 87. 87.]",571.4450595020098,None,l,1,0.6645181235980999,571.4450595020098,None,None,None,24_UA,28,M,24,2021_Nov_05_1732,Partial repeat,2021.2.3,120.10454102417894,
2,8,0,1,1,3,2,2,3,0,1,0,0,0,0,0,0,81,81,81,,,,,,,,,,,,,,,,,,,,,,,,,,24_UA,28,M,24,2021_Nov_05_1732,Partial repeat,2021.2.3,120.10454102417894,
5,6,0,1,1,2,3,3,2,0,0,0,0,1,0,0,0,82,82,82,0,0,0,0,,,,,,,572.1361346176418,None,0.9425601789773704,572.4108797625195,None,"[93. 93. 93. 93. 93. 87. 93. 87. 87. 87. 87. 93. 87. 87. 87. 93. 93. 87.
 87. 87. 87. 87. 93. 93. 93. 93. 93. 87. 93. 87. 93. 93. 87. 87.]",573.4350253331759,None,s,1,0.6909625698935997,573.4350253331759,None,None,None,24_UA,28,M,24,2021_Nov_05_1732,Partial repeat,2021.2.3,120.10454102417894,
5,6,0,1,1,2,3,3,2,0,0,0,0,1,0,0,0,82,82,82,1,0,1,0,,,,,,,,,0.9494174215670034,574.1927069068261,None,"[93. 87. 87. 93. 87. 87. 87. 93. 93. 93. 87. 87. 87. 87. 87. 93. 87. 93.
 93. 93. 87. 87. 93. 87. 87. 87. 93. 87. 93. 87. 93. 93. 87. 87.]",575.2168178404063,None,s,1,1.1002169554958527,575.2168178404063,None,None,None,24_UA,28,M,24,2021_Nov_05_1732,Partial repeat,2021.2.3,120.10454102417894,
5,6,0,1,1,2,3,3,2,0,0,0,0,1,0,0,0,82,82,82,,,,,,,,,,,,,,,,,,,,,,,,,,24_UA,28,M,24,2021_Nov_05_1732,Partial repeat,2021.2.3,120.10454102417894,
4,2,0,1,1,3,3,3,2,1,0,1,0,0,0,0,0,83,83,83,0,0,0,0,,,,,,,576.340871815235,None,0.9726945153494915,576.6988970015191,None,"[87. 93. 93. 87. 93. 87. 87. 93. 93. 93. 87. 93. 87. 93. 87. 93. 87. 87.
 93. 93. 87. 93. 93. 87. 93. 87. 87. 93. 93. 87. 93. 93. 87. 93.]",577.7563381040563,None,l,1,0.48072000131287496,577.7563381040563,None,None,None,24_UA,28,M,24,2021_Nov_05_1732,Partial repeat,2021.2.3,120.10454102417894,
4,2,0,1,1,3,3,3,2,1,0,1,0,0,0,0,0,83,83,83,1,0,1,0,,,,,,,,,0.8544285660653,578.2975263995468,None,"[93. 87. 87. 87. 87. 87. 87. 87. 87. 87. 93. 93. 87. 93. 87. 93. 93. 87.
 93. 93. 93. 87. 93. 93. 93. 93. 93. 87. 87. 93. 93. 93. 93. 93.]",579.2300703709952,None,s,1,0.6870322237773507,579.2300703709952,None,None,None,24_UA,28,M,24,2021_Nov_05_1732,Partial repeat,2021.2.3,120.10454102417894,
4,2,0,1,1,3,3,3,2,1,0,1,0,0,0,0,0,83,83,83,,,,,,,,,,,,,,,,,,,,,,,,,,24_UA,28,M,24,2021_Nov_05_1732,Partial repeat,2021.2.3,120.10454102417894,
2,6,0,1,1,2,3,2,3,1,1,0,0,1,0,0,0,84,84,84,0,0,0,0,,,,,,,579.9378062414726,None,0.8317471072681609,580.1875825436837,None,"[93. 87. 93. 87. 93. 93. 93. 87. 93. 93. 87. 87. 93. 93. 87. 87. 93. 87.
 87. 87. 87. 87. 93. 93. 93. 87. 87. 93. 93. 93. 87. 87. 93. 87.]",581.0951416367825,None,l,1,0.8059701740166929,581.0951416367825,None,None,None,24_UA,28,M,24,2021_Nov_05_1732,Partial repeat,2021.2.3,120.10454102417894,
2,6,0,1,1,2,3,2,3,1,1,0,0,1,0,0,0,84,84,84,1,0,1,0,,,,,,,,,0.7968362427723686,581.9610656802361,None,"[93. 87. 93. 93. 87. 87. 87. 93. 87. 87. 87. 93. 87. 87. 87. 87. 93. 93.
 87. 87. 87. 93. 93. 87. 93. 87. 87. 93. 87. 87. 93. 87. 93. 87.]",582.8353160921943,None,l,1,0.6503111491037998,582.8353160921943,None,None,None,24_UA,28,M,24,2021_Nov_05_1732,Partial repeat,2021.2.3,120.10454102417894,
2,6,0,1,1,2,3,2,3,1,1,0,0,1,0,0,0,84,84,84,,,,,,,,,,,,,,,,,,,,,,,,,,24_UA,28,M,24,2021_Nov_05_1732,Partial repeat,2021.2.3,120.10454102417894,
6,3,0,1,1,2,3,3,3,0,0,0,1,1,0,0,0,85,85,85,0,0,0,0,,,,,,,583.5097355844009,None,0.9621215536806877,583.6679167016773,None,"[93. 93. 87. 87. 93. 87. 93. 87. 93. 87. 93. 93. 87. 87. 87. 93. 87. 93.
 87. 87. 93. 93. 87. 87. 93. 87. 93. 93. 93. 93. 87. 87. 93. 87.]",584.7087166129058,None,s,1,0.7444531213513983,584.7087166129058,None,None,None,24_UA,28,M,24,2021_Nov_05_1732,Partial repeat,2021.2.3,120.10454102417894,
6,3,0,1,1,2,3,3,3,0,0,0,1,1,0,0,0,85,85,85,1,0,1,0,,,,,,,,,0.8743249511446324,585.5246846903501,None,"[93. 93. 87. 93. 93. 93. 93. 87. 93. 93. 87. 93. 87. 93. 87. 87. 87. 93.
 87. 87. 87. 87. 87. 93. 93. 93. 93. 87. 87. 87. 87. 87. 87. 93.]",586.4738852473638,None,s,1,0.7553185800388746,586.4738852473638,None,None,None,24_UA,28,M,24,2021_Nov_05_1732,Partial repeat,2021.2.3,120.10454102417894,
6,3,0,1,1,2,3,3,3,0,0,0,1,1,0,0,0,85,85,85,,,,,,,,,,,,,,,,,,,,,,,,,,24_UA,28,M,24,2021_Nov_05_1732,Partial repeat,2021.2.3,120.10454102417894,
7,8,0,1,1,3,2,3,3,1,0,0,1,0,0,0,0,86,86,86,0,0,0,0,,,,,,,587.2399098666283,None,0.9474704043867537,587.5312949199615,None,"[87. 87. 87. 87. 87. 93. 87. 87. 93. 93. 93. 93. 87. 87. 93. 93. 93. 87.
 93. 93. 93. 87. 87. 93. 87. 87. 87. 87. 93. 93. 87. 93. 93. 93.]",588.5554266999279,None,l,1,0.5138218221327406,588.5554266999279,None,None,None,24_UA,28,M,24,2021_Nov_05_1732,Partial repeat,2021.2.3,120.10454102417894,
7,8,0,1,1,3,2,3,3,1,0,0,1,0,0,0,0,86,86,86,1,0,1,0,,,,,,,,,0.7360477227056318,589.1382564593332,None,"[93. 87. 87. 93. 87. 93. 93. 93. 93. 93. 87. 93. 93. 87. 93. 87. 93. 87.
 93. 93. 87. 93. 93. 87. 87. 87. 93. 87. 93. 93. 93. 87. 87. 93.]",589.9542299889108,None,s,1,0.6501995407415961,589.9542299889108,None,None,None,24_UA,28,M,24,2021_Nov_05_1732,Partial repeat,2021.2.3,120.10454102417894,
7,8,0,1,1,3,2,3,3,1,0,0,1,0,0,0,0,86,86,86,,,,,,,,,,,,,,,,,,,,,,,,,,24_UA,28,M,24,2021_Nov_05_1732,Partial repeat,2021.2.3,120.10454102417894,
3,8,0,1,1,2,2,3,2,0,0,1,0,1,0,0,0,87,87,87,0,0,0,0,,,,,,,590.6369755289052,None,0.9265527600778615,590.9283913707513,None,"[87. 93. 87. 93. 87. 93. 93. 93. 87. 93. 93. 93. 87. 93. 87. 93. 87. 87.
 93. 93. 87. 93. 93. 93. 87. 93. 87. 93. 93. 93. 93. 93. 87. 93.]",591.9442076864798,None,s,1,0.7240823506836023,591.9442076864798,None,None,None,24_UA,28,M,24,2021_Nov_05_1732,Partial repeat,2021.2.3,120.10454102417894,
3,8,0,1,1,2,2,3,2,0,0,1,0,1,0,0,0,87,87,87,1,0,1,0,,,,,,,,,0.9471981341906193,592.7185323757258,None,"[93. 87. 93. 93. 93. 93. 87. 87. 93. 87. 87. 87. 87. 87. 87. 87. 93. 93.
 87. 93. 93. 93. 93. 93. 87. 87. 93. 87. 93. 93. 87. 87. 93. 93.]",593.7509966177531,None,s,1,0.7418691312523151,593.7509966177531,None,None,None,24_UA,28,M,24,2021_Nov_05_1732,Partial repeat,2021.2.3,120.10454102417894,
3,8,0,1,1,2,2,3,2,0,0,1,0,1,0,0,0,87,87,87,,,,,,,,,,,,,,,,,,,,,,,,,,24_UA,28,M,24,2021_Nov_05_1732,Partial repeat,2021.2.3,120.10454102417894,
8,3,0,1,1,3,2,3,3,0,1,0,1,0,0,0,0,88,88,88,0,0,0,0,,,,,,,594.5253174584359,None,0.902247019302868,594.8666902284313,None,"[93. 87. 93. 87. 93. 93. 87. 93. 87. 93. 93. 93. 93. 87. 93. 87. 93. 93.
 87. 87. 87. 93. 87. 93. 93. 93. 93. 93. 93. 87. 93. 87. 93. 87.]",595.8575232693802,None,s,1,0.5708168119454058,595.8575232693802,None,None,None,24_UA,28,M,24,2021_Nov_05_1732,Partial repeat,2021.2.3,120.10454102417894,
8,3,0,1,1,3,2,3,3,0,1,0,1,0,0,0,0,88,88,88,1,0,1,0,,,,,,,,,0.9552178118187714,596.4986263833198,None,"[87. 87. 93. 87. 87. 93. 93. 93. 93. 93. 93. 87. 93. 87. 93. 93. 93. 93.
 87. 87. 93. 87. 87. 87. 93. 87. 93. 87. 93. 87. 93. 87. 93. 87.]",597.5394060895851,None,l,1,0.7451314307800203,597.5394060895851,None,None,None,24_UA,28,M,24,2021_Nov_05_1732,Partial repeat,2021.2.3,120.10454102417894,
8,3,0,1,1,3,2,3,3,0,1,0,1,0,0,0,0,88,88,88,,,,,,,,,,,,,,,,,,,,,,,,,,24_UA,28,M,24,2021_Nov_05_1732,Partial repeat,2021.2.3,120.10454102417894,
3,6,0,1,1,3,3,2,2,0,1,1,1,0,0,0,0,89,89,89,0,0,0,0,,,,,,,598.3054143524496,None,0.9965168935292921,598.5302336784007,None,"[87. 93. 87. 93. 93. 87. 87. 93. 87. 87. 87. 93. 87. 87. 93. 87. 93. 93.
 93. 93. 87. 87. 87. 93. 87. 93. 87. 93. 93. 93. 93. 87. 87. 87.]",599.6043031437002,None,s,1,0.8401114278676687,599.6043031437002,None,None,None,24_UA,28,M,24,2021_Nov_05_1732,Partial repeat,2021.2.3,120.10454102417894,
3,6,0,1,1,3,3,2,2,0,1,1,1,0,0,0,0,89,89,89,1,0,1,0,,,,,,,,,0.8789396476189564,600.5118648025091,None,"[87. 87. 87. 93. 93. 87. 93. 93. 87. 87. 87. 93. 93. 87. 93. 87. 87. 87.
 87. 93. 87. 93. 87. 87. 87. 87. 93. 87. 87. 87. 87. 93. 93. 93.]",601.4777081544016,None,l,1,0.7109010185267834,601.4777081544016,None,None,None,24_UA,28,M,24,2021_Nov_05_1732,Partial repeat,2021.2.3,120.10454102417894,
3,6,0,1,1,3,3,2,2,0,1,1,1,0,0,0,0,89,89,89,,,,,,,,,,,,,,,,,,,,,,,,,,24_UA,28,M,24,2021_Nov_05_1732,Partial repeat,2021.2.3,120.10454102417894,
6,8,0,1,1,3,3,3,2,0,1,1,0,0,0,0,0,90,90,90,0,0,0,0,,,,,,,602.2104138296891,None,0.8812439397671126,602.6017451314074,None,"[93. 93. 87. 93. 93. 87. 87. 87. 87. 87. 93. 87. 87. 87. 93. 87. 93. 87.
 87. 93. 93. 87. 93. 87. 87. 87. 87. 87. 93. 93. 87. 93. 93. 87.]",603.5675878418733,None,s,1,0.7488950057886541,603.5675878418733,None,None,None,24_UA,28,M,24,2021_Nov_05_1732,Partial repeat,2021.2.3,120.10454102417894,
6,8,0,1,1,3,3,3,2,0,1,1,0,0,0,0,0,90,90,90,1,0,1,0,,,,,,,,,0.7818157842360385,604.3835555986043,None,"[93. 87. 87. 93. 93. 87. 93. 93. 93. 93. 87. 93. 93. 93. 87. 93. 93. 93.
 93. 87. 87. 93. 93. 93. 87. 87. 93. 93. 93. 87. 87. 87. 87. 87.]",605.2411622535401,None,l,1,0.6913323527660395,605.2411622535401,None,None,None,24_UA,28,M,24,2021_Nov_05_1732,Partial repeat,2021.2.3,120.10454102417894,
6,8,0,1,1,3,3,3,2,0,1,1,0,0,0,0,0,90,90,90,,,,,,,,,,,,,,,,,,,,,,,,,,24_UA,28,M,24,2021_Nov_05_1732,Partial repeat,2021.2.3,120.10454102417894,
5,5,0,1,1,3,3,3,3,0,0,1,1,1,0,0,0,91,91,91,0,0,0,0,,,,,,,605.9572145503953,None,0.7304611347447504,606.2319715616759,None,"[93. 93. 93. 87. 93. 87. 87. 93. 93. 87. 87. 87. 87. 87. 93. 93. 93. 87.
 87. 93. 87. 87. 87. 93. 93. 93. 87. 93. 93. 87. 87. 87. 87. 87.]",607.0479389976936,None,s,1,0.7877568442600023,607.0479389976936,None,None,None,24_UA,28,M,24,2021_Nov_05_1732,Partial repeat,2021.2.3,120.10454102417894,
5,5,0,1,1,3,3,3,3,0,0,1,1,1,0,0,0,91,91,91,1,0,1,0,,,,,,,,,0.8329853026577033,607.8972215291251,None,"[93. 87. 87. 87. 87. 93. 93. 93. 93. 87. 93. 87. 87. 93. 87. 93. 87. 87.
 87. 93. 87. 93. 93. 87. 87. 93. 93. 93. 87. 93. 93. 87. 93. 93.]",608.8131005764517,None,s,1,0.6544573355276952,608.8131005764517,None,None,None,24_UA,28,M,24,2021_Nov_05_1732,Partial repeat,2021.2.3,120.10454102417894,
5,5,0,1,1,3,3,3,3,0,0,1,1,1,0,0,0,91,91,91,,,,,,,,,,,,,,,,,,,,,,,,,,24_UA,28,M,24,2021_Nov_05_1732,Partial repeat,2021.2.3,120.10454102417894,
6,6,0,1,1,2,3,2,2,1,0,0,1,0,0,0,0,92,92,92,0,0,0,0,,,,,,,609.4875569507312,None,0.910984762379478,609.7706082591467,None,"[87. 93. 87. 93. 93. 87. 93. 93. 93. 87. 87. 93. 87. 87. 93. 93. 93. 87.
 93. 87. 87. 93. 87. 93. 93. 93. 93. 87. 87. 87. 87. 93. 93. 93.]",610.7614390551025,None,l,1,0.6741648703136889,610.7614390551025,None,None,None,24_UA,28,M,24,2021_Nov_05_1732,Partial repeat,2021.2.3,120.10454102417894,
6,6,0,1,1,2,3,2,2,1,0,0,1,0,0,0,0,92,92,92,1,0,1,0,,,,,,,,,0.7543744715922779,611.4858077783356,None,"[87. 87. 87. 93. 93. 87. 93. 93. 87. 93. 87. 93. 87. 93. 93. 87. 93. 87.
 87. 87. 87. 93. 93. 93. 93. 93. 93. 93. 93. 87. 93. 93. 87. 93.]",612.3267594512727,None,s,1,1.0448527947337425,612.3267594512727,None,None,None,24_UA,28,M,24,2021_Nov_05_1732,Partial repeat,2021.2.3,120.10454102417894,
6,6,0,1,1,2,3,2,2,1,0,0,1,0,0,0,0,92,92,92,,,,,,,,,,,,,,,,,,,,,,,,,,24_UA,28,M,24,2021_Nov_05_1732,Partial repeat,2021.2.3,120.10454102417894,
8,4,0,1,1,3,3,2,2,0,0,1,1,1,0,0,0,93,93,93,0,0,0,0,,,,,,,613.3924977373645,None,0.7755729911788483,613.6589485851073,None,"[87. 93. 87. 87. 87. 93. 93. 93. 93. 93. 93. 93. 93. 93. 87. 93. 87. 87.
 87. 93. 93. 93. 87. 87. 93. 93. 87. 93. 87. 93. 93. 87. 87. 87.]",614.5165536364766,None,s,1,0.663094154868304,614.5165536364766,None,None,None,24_UA,28,M,24,2021_Nov_05_1732,Partial repeat,2021.2.3,120.10454102417894,
8,4,0,1,1,3,3,2,2,0,0,1,1,1,0,0,0,93,93,93,1,0,1,0,,,,,,,,,0.8323338577870926,615.249262839614,None,"[93. 87. 93. 93. 93. 87. 87. 87. 87. 87. 93. 93. 87. 87. 87. 93. 87. 87.
 93. 93. 93. 87. 87. 87. 87. 93. 93. 87. 93. 87. 87. 93. 87. 87.]",616.1568209705692,None,s,1,0.8628545176106854,616.1568209705692,None,None,None,24_UA,28,M,24,2021_Nov_05_1732,Partial repeat,2021.2.3,120.10454102417894,
8,4,0,1,1,3,3,2,2,0,0,1,1,1,0,0,0,93,93,93,,,,,,,,,,,,,,,,,,,,,,,,,,24_UA,28,M,24,2021_Nov_05_1732,Partial repeat,2021.2.3,120.10454102417894,
8,6,0,1,1,2,3,3,2,1,1,0,0,1,0,0,0,94,94,94,0,0,0,0,,,,,,,617.0477212331061,None,0.7938709791062898,617.3391396406587,None,"[93. 87. 87. 93. 87. 87. 87. 87. 93. 87. 87. 87. 87. 93. 93. 93. 87. 87.
 87. 93. 87. 87. 93. 87. 93. 87. 87. 93. 93. 87. 87. 93. 93. 93.]",618.2134150682832,None,l,1,0.5662706955627073,618.2134150682832,None,None,None,24_UA,28,M,24,2021_Nov_05_1732,Partial repeat,2021.2.3,120.10454102417894,
8,6,0,1,1,2,3,3,2,1,1,0,0,1,0,0,0,94,94,94,1,0,1,0,,,,,,,,,0.806737746793698,618.8378526166707,None,"[87. 93. 87. 87. 93. 93. 87. 93. 87. 93. 93. 87. 87. 93. 87. 93. 87. 87.
 87. 93. 93. 93. 93. 93. 93. 87. 87. 87. 93. 87. 87. 87. 93. 93.]",619.728763462761,None,l,1,0.6349662824795814,619.728763462761,None,None,None,24_UA,28,M,24,2021_Nov_05_1732,Partial repeat,2021.2.3,120.10454102417894,
8,6,0,1,1,2,3,3,2,1,1,0,0,1,0,0,0,94,94,94,,,,,,,,,,,,,,,,,,,,,,,,,,24_UA,28,M,24,2021_Nov_05_1732,Partial repeat,2021.2.3,120.10454102417894,
3,1,0,1,1,2,2,2,2,0,1,1,1,0,0,0,0,95,95,95,0,0,0,0,,,,,,,620.3865292558221,None,0.7219914141978365,620.9110798878537,None,"[93. 87. 93. 87. 93. 87. 87. 93. 93. 93. 93. 87. 87. 93. 87. 93. 87. 93.
 93. 93. 93. 93. 93. 93. 87. 87. 93. 87. 87. 93. 87. 93. 93. 93.]",621.7104205646756,None,s,1,0.6203661130130058,621.7104205646756,None,None,None,24_UA,28,M,24,2021_Nov_05_1732,Partial repeat,2021.2.3,120.10454102417894,
3,1,0,1,1,2,2,2,2,0,1,1,1,0,0,0,0,95,95,95,1,0,1,0,,,,,,,,,0.78025842151444,622.3931452582801,None,"[93. 93. 87. 93. 93. 93. 87. 93. 87. 87. 93. 87. 93. 87. 93. 87. 93. 93.
 87. 93. 87. 93. 93. 93. 87. 93. 93. 93. 93. 93. 87. 87. 87. 87.]",623.2507560824961,None,l,1,0.7440326657197147,623.2507560824961,None,None,None,24_UA,28,M,24,2021_Nov_05_1732,Partial repeat,2021.2.3,120.10454102417894,
3,1,0,1,1,2,2,2,2,0,1,1,1,0,0,0,0,95,95,95,,,,,,,,,,,,,,,,,,,,,,,,,,24_UA,28,M,24,2021_Nov_05_1732,Partial repeat,2021.2.3,120.10454102417894,
4,4,0,1,1,2,3,2,3,0,1,0,0,0,0,0,0,96,96,96,0,0,0,0,,,,,,,624.0167633832207,None,0.8478613346143564,624.2082570302045,None,"[87. 93. 87. 93. 87. 93. 87. 87. 93. 87. 87. 87. 93. 93. 87. 87. 87. 93.
 93. 93. 87. 93. 93. 87. 93. 87. 93. 87. 87. 87. 87. 93. 87. 87.]",625.1408106230629,None,l,0,0.5342249848836218,625.1408106230629,None,625.6986811612151,None,24_UA,28,M,24,2021_Nov_05_1732,Partial repeat,2021.2.3,120.10454102417894,
4,4,0,1,1,2,3,2,3,0,1,0,0,0,0,0,0,96,96,96,1,0,1,0,,,,,,,,,0.8749368340857612,626.2398550245889,None,"[93. 87. 87. 93. 93. 87. 87. 93. 87. 87. 93. 87. 87. 93. 87. 87. 93. 87.
 93. 93. 87. 93. 93. 87. 93. 87. 87. 93. 87. 87. 87. 87. 93. 93.]",627.1973764979739,None,l,1,0.5574722365272464,627.1973764979739,None,None,None,24_UA,28,M,24,2021_Nov_05_1732,Partial repeat,2021.2.3,120.10454102417894,
4,4,0,1,1,2,3,2,3,0,1,0,0,0,0,0,0,96,96,96,,,,,,,,,,,,,,,,,,,,,,,,,,24_UA,28,M,24,2021_Nov_05_1732,Partial repeat,2021.2.3,120.10454102417894,
8,5,0,1,1,3,3,3,3,0,1,1,1,0,0,0,0,97,97,97,0,0,0,0,,,,,,,627.7718824545882,None,0.8584788992117074,627.9550551852044,None,"[87. 87. 87. 87. 87. 93. 87. 87. 87. 87. 93. 93. 87. 93. 93. 87. 87. 87.
 87. 93. 93. 87. 93. 87. 87. 87. 93. 87. 87. 87. 93. 93. 87. 93.]",628.8959255251539,None,s,1,0.5869512756435142,628.8959255251539,None,None,None,24_UA,28,M,24,2021_Nov_05_1732,Partial repeat,2021.2.3,120.10454102417894,
8,5,0,1,1,3,3,3,3,0,1,1,1,0,0,0,0,97,97,97,1,0,1,0,,,,,,,,,0.7678177050033458,629.5536842625152,None,"[93. 87. 93. 87. 93. 93. 93. 93. 87. 87. 93. 87. 93. 87. 87. 87. 87. 87.
 87. 87. 93. 87. 87. 87. 93. 93. 93. 93. 93. 87. 87. 87. 93. 93.]",630.4112938038779,None,l,1,0.5436068220988091,630.4112938038779,None,None,None,24_UA,28,M,24,2021_Nov_05_1732,Partial repeat,2021.2.3,120.10454102417894,
8,5,0,1,1,3,3,3,3,0,1,1,1,0,0,0,0,97,97,97,,,,,,,,,,,,,,,,,,,,,,,,,,24_UA,28,M,24,2021_Nov_05_1732,Partial repeat,2021.2.3,120.10454102417894,
6,7,0,1,1,3,2,3,3,1,1,0,1,1,0,0,0,98,98,98,0,0,0,0,,,,,,,630.9691492684833,None,0.990182474009246,631.1939528794646,None,"[93. 87. 93. 93. 93. 93. 87. 93. 87. 87. 87. 87. 93. 87. 93. 93. 87. 93.
 87. 93. 93. 93. 93. 93. 87. 93. 87. 87. 93. 87. 93. 93. 87. 87.]",632.2680422290141,None,l,1,0.4948233852919657,632.2680422290141,None,None,None,24_UA,28,M,24,2021_Nov_05_1732,Partial repeat,2021.2.3,120.10454102417894,
6,7,0,1,1,3,2,3,3,1,1,0,1,1,0,0,0,98,98,98,1,0,1,0,,,,,,,,,0.7691209343613573,632.8258752436632,None,"[93. 87. 93. 87. 87. 87. 87. 93. 93. 93. 93. 87. 93. 87. 93. 87. 93. 87.
 87. 93. 87. 87. 87. 87. 87. 93. 93. 93. 87. 87. 87. 93. 87. 93.]",633.6834976135688,None,l,1,0.4714613181495224,633.6834976135688,None,None,None,24_UA,28,M,24,2021_Nov_05_1732,Partial repeat,2021.2.3,120.10454102417894,
6,7,0,1,1,3,2,3,3,1,1,0,1,1,0,0,0,98,98,98,,,,,,,,,,,,,,,,,,,,,,,,,,24_UA,28,M,24,2021_Nov_05_1732,Partial repeat,2021.2.3,120.10454102417894,
8,8,0,1,1,2,2,3,2,1,1,1,0,1,0,0,0,99,99,99,0,0,0,0,,,,,,,634.1747488651563,None,0.7412768478880779,634.3828763270321,None,"[93. 93. 93. 93. 93. 93. 87. 93. 93. 93. 93. 87. 93. 87. 87. 87. 93. 87.
 87. 87. 87. 93. 93. 87. 87. 87. 93. 93. 93. 87. 87. 93. 87. 93.]",635.1988633265828,None,l,1,0.6521199742455792,635.1988633265828,None,None,None,24_UA,28,M,24,2021_Nov_05_1732,Partial repeat,2021.2.3,120.10454102417894,
8,8,0,1,1,2,2,3,2,1,1,1,0,1,0,0,0,99,99,99,1,0,1,0,,,,,,,,,0.8858569536770293,635.9149153027247,None,"[87. 87. 87. 87. 87. 87. 87. 87. 87. 93. 93. 93. 87. 87. 87. 93. 87. 87.
 87. 87. 93. 87. 87. 93. 93. 87. 87. 93. 87. 93. 93. 87. 87. 87.]",636.8807727660205,None,l,1,0.8092433778147097,636.8807727660205,None,None,None,24_UA,28,M,24,2021_Nov_05_1732,Partial repeat,2021.2.3,120.10454102417894,
8,8,0,1,1,2,2,3,2,1,1,1,0,1,0,0,0,99,99,99,,,,,,,,,,,,,,,,,,,,,,,,,,24_UA,28,M,24,2021_Nov_05_1732,Partial repeat,2021.2.3,120.10454102417894,
6,5,0,1,1,2,2,3,3,1,1,1,1,1,0,0,0,100,100,100,0,0,0,0,,,,,,,637.7050527798492,None,0.9082684058145878,637.9964673388422,None,"[93. 93. 87. 93. 93. 87. 93. 87. 93. 87. 87. 87. 87. 93. 87. 93. 93. 93.
 93. 87. 93. 87. 87. 87. 93. 93. 87. 87. 93. 93. 93. 93. 87. 87.]",638.9789708041535,None,l,1,0.5190565107805014,638.9789708041535,None,None,None,24_UA,28,M,24,2021_Nov_05_1732,Partial repeat,2021.2.3,120.10454102417894,
6,5,0,1,1,2,2,3,3,1,1,1,1,1,0,0,0,100,100,100,1,0,1,0,,,,,,,,,0.7997113453567483,639.5618634234415,None,"[93. 93. 93. 93. 87. 93. 93. 93. 87. 87. 93. 87. 87. 93. 87. 93. 93. 93.
 87. 93. 93. 93. 93. 93. 93. 87. 87. 93. 87. 87. 87. 93. 93. 87.]",640.4443821547211,None,l,1,0.5096753149955475,640.4443821547211,None,None,None,24_UA,28,M,24,2021_Nov_05_1732,Partial repeat,2021.2.3,120.10454102417894,
6,5,0,1,1,2,2,3,3,1,1,1,1,1,0,0,0,100,100,100,,,,,,,,,,,,,,,,,,,,,,,,,,24_UA,28,M,24,2021_Nov_05_1732,Partial repeat,2021.2.3,120.10454102417894,
1,3,0,1,1,2,3,2,2,1,1,0,1,1,0,0,0,101,101,101,0,0,0,0,,,,,,,640.9772565895437,None,0.9967078127756988,641.2353640709625,None,"[93. 93. 93. 87. 93. 93. 93. 93. 87. 87. 87. 87. 93. 93. 93. 93. 93. 87.
 87. 87. 93. 87. 87. 87. 87. 93. 93. 93. 87. 93. 87. 93. 93. 87.]",642.3094537412217,None,l,1,0.5326336036159773,642.3094537412217,None,None,None,24_UA,28,M,24,2021_Nov_05_1732,Partial repeat,2021.2.3,120.10454102417894,
1,3,0,1,1,2,3,2,2,1,1,0,1,1,0,0,0,101,101,101,1,0,1,0,,,,,,,,,0.7124498685815513,642.9089323890694,None,"[93. 93. 87. 87. 93. 93. 87. 87. 93. 87. 93. 87. 93. 93. 93. 87. 93. 87.
 93. 87. 93. 93. 93. 87. 87. 93. 87. 93. 87. 93. 87. 87. 93. 87.]",643.69993483098,None,l,1,0.48618175524825347,643.69993483098,None,None,None,24_UA,28,M,24,2021_Nov_05_1732,Partial repeat,2021.2.3,120.10454102417894,
1,3,0,1,1,2,3,2,2,1,1,0,1,1,0,0,0,101,101,101,,,,,,,,,,,,,,,,,,,,,,,,,,24_UA,28,M,24,2021_Nov_05_1732,Partial repeat,2021.2.3,120.10454102417894,
5,2,0,1,1,3,3,2,3,0,0,1,0,1,0,0,0,102,102,102,0,0,0,0,,,,,,,644.2078317638698,None,0.9553580432935682,644.4326305641443,None,"[87. 87. 93. 87. 93. 93. 87. 93. 93. 93. 87. 87. 93. 87. 87. 87. 93. 93.
 87. 93. 93. 87. 87. 87. 87. 93. 87. 87. 93. 93. 87. 93. 93. 93.]",645.4650874297549,None,l,0,0.46505506243920536,645.4650874297549,None,645.9479988428648,None,24_UA,28,M,24,2021_Nov_05_1732,Partial repeat,2021.2.3,120.10454102417894,
5,2,0,1,1,3,3,2,3,0,0,1,0,1,0,0,0,102,102,102,1,0,1,0,,,,,,,,,0.9282165585485608,646.4892083054583,None,"[87. 87. 87. 93. 87. 87. 87. 93. 87. 87. 93. 87. 93. 93. 93. 87. 93. 87.
 93. 93. 87. 87. 87. 93. 93. 87. 93. 87. 93. 87. 93. 87. 93. 87.]",647.5050060197973,None,s,1,0.745176972119225,647.5050060197973,None,None,None,24_UA,28,M,24,2021_Nov_05_1732,Partial repeat,2021.2.3,120.10454102417894,
5,2,0,1,1,3,3,2,3,0,0,1,0,1,0,0,0,102,102,102,,,,,,,,,,,,,,,,,,,,,,,,,,24_UA,28,M,24,2021_Nov_05_1732,Partial repeat,2021.2.3,120.10454102417894,
2,5,0,1,1,2,2,3,3,0,0,1,1,1,0,0,0,103,103,103,0,0,0,0,,,,,,,648.271017489802,None,0.9505123704021914,648.4958255907732,None,"[93. 93. 87. 93. 93. 87. 93. 87. 93. 93. 87. 93. 87. 87. 87. 93. 93. 93.
